Timestamp,AccX,AccY,AccZ,GyroX,GyroY,GyroZ
2026-07-27 13:06:50.046,0.26,-0.14,0.95,1.65,-2.87,-1.71
2026-07-27 13:06:50.107,0.0,-0.1,0.97,10.62,-42.91,93.38
2026-07-27 13:06:50.108,-0.09,0.09,0.91,10.38,-13.43,75.81
2026-07-27 13:06:50.108,-0.09,0.09,0.91,10.38,-13.43,75.81
2026-07-27 13:06:50.164,-0.09,0.08,0.94,-7.69,0.79,32.84
2026-07-27 13:06:50.165,-0.09,0.08,0.94,-7.69,0.79,32.84
2026-07-27 13:06:50.165,-0.09,0.08,0.94,-7.69,0.79,32.84
2026-07-27 13:06:50.225,-0.09,0.08,0.94,-7.69,0.79,32.84
2026-07-27 13:06:50.225,0.05,-0.22,1.0,-41.2,-7.14,-14.95
2026-07-27 13:06:50.225,0.05,-0.22,1.0,-41.2,-7.14,-14.95
2026-07-27 13:06:50.294,0.04,-0.23,0.97,-28.14,-4.21,-8.06
2026-07-27 13:06:50.294,0.01,-0.16,0.98,-8.3,-2.87,4.88
2026-07-27 13:06:50.344,0.01,-0.16,0.98,-8.3,-2.87,4.88
2026-07-27 13:06:50.345,0.0,-0.13,0.98,0.24,-3.97,9.7
2026-07-27 13:06:50.345,0.0,-0.13,0.98,0.24,-3.97,9.7
2026-07-27 13:06:50.405,0.02,-0.16,0.98,-1.22,-3.97,5.68
2026-07-27 13:06:50.405,0.02,-0.16,0.98,-1.22,-3.97,5.68
2026-07-27 13:06:50.407,0.03,-0.19,0.98,-3.23,-2.69,0.79
2026-07-27 13:06:50.463,0.03,-0.19,0.98,-3.23,-2.69,0.79
2026-07-27 13:06:50.464,0.03,-0.19,0.98,-2.14,-1.28,0.43
2026-07-27 13:06:50.464,0.03,-0.19,0.98,-2.14,-1.28,0.43
2026-07-27 13:06:50.524,0.02,-0.18,0.98,0.18,-0.43,2.32
2026-07-27 13:06:50.525,0.02,-0.18,0.97,1.71,-0.43,2.93
2026-07-27 13:06:50.584,0.02,-0.18,0.97,1.71,-0.43,2.93
2026-07-27 13:06:50.643,0.02,-0.18,0.97,2.14,-0.73,2.26
2026-07-27 13:06:50.644,0.02,-0.18,0.97,2.14,-0.73,2.26
2026-07-27 13:06:50.644,0.02,-0.18,0.97,2.32,-0.98,1.59
2026-07-27 13:06:50.644,0.02,-0.18,0.97,2.32,-0.98,1.59
2026-07-27 13:06:50.645,0.02,-0.18,0.98,2.32,-1.46,1.16
2026-07-27 13:06:50.704,0.02,-0.18,0.98,2.32,-1.46,1.16
2026-07-27 13:06:50.705,0.02,-0.18,0.98,1.46,-1.59,1.1
2026-07-27 13:06:50.763,0.02,-0.18,0.98,1.46,-1.59,1.1
2026-07-27 13:06:50.764,0.02,-0.17,0.97,0.24,-1.34,1.71
2026-07-27 13:06:50.764,0.02,-0.17,0.97,-0.73,-1.77,1.89
2026-07-27 13:06:50.824,0.03,-0.17,0.98,-0.73,-1.77,1.89
2026-07-27 13:06:50.825,0.03,-0.17,0.98,-1.77,-2.2,0.73
2026-07-27 13:06:50.825,0.03,-0.17,0.98,-1.77,-2.2,0.73
2026-07-27 13:06:50.927,0.02,-0.17,0.98,-3.72,-2.26,-0.73
2026-07-27 13:06:50.928,0.02,-0.17,0.98,-3.72,-2.26,-0.73
2026-07-27 13:06:50.928,0.03,-0.18,0.98,-7.45,-2.44,-2.99
2026-07-27 13:06:50.946,0.03,-0.18,0.98,-7.45,-2.44,-2.99
2026-07-27 13:06:50.947,0.03,-0.19,0.97,-12.02,-2.5,-7.75
2026-07-27 13:06:50.947,0.03,-0.19,0.97,-12.02,-2.5,-7.75
2026-07-27 13:06:51.004,0.04,-0.2,0.98,-15.2,-2.81,-11.96
2026-07-27 13:06:51.004,0.05,-0.22,0.97,-17.88,-4.15,-11.54
2026-07-27 13:06:51.071,0.05,-0.22,0.97,-17.88,-4.15,-11.54
2026-07-27 13:06:51.072,0.05,-0.23,0.97,-18.37,-4.88,-8.06
2026-07-27 13:06:51.072,0.05,-0.23,0.97,-18.37,-4.88,-8.06
2026-07-27 13:06:51.147,0.06,-0.25,0.98,-13.55,-3.05,-3.72
2026-07-27 13:06:51.147,0.06,-0.25,0.98,-13.55,-3.05,-3.72
2026-07-27 13:06:51.148,0.06,-0.26,0.98,-6.1,0.85,1.71
2026-07-27 13:06:51.184,0.06,-0.26,0.98,-6.1,0.85,1.71
2026-07-27 13:06:51.185,0.04,-0.23,0.99,3.42,6.29,6.9
2026-07-27 13:06:51.248,0.04,-0.23,0.99,17.82,13.37,6.41
2026-07-27 13:06:51.251,-0.0,-0.15,0.99,17.82,13.37,6.41
2026-07-27 13:06:51.313,-0.03,-0.1,0.98,28.08,20.02,-1.83
2026-07-27 13:06:51.314,-0.03,-0.1,0.98,28.08,20.02,-1.83
2026-07-27 13:06:51.314,-0.03,-0.13,0.97,29.17,21.06,-10.62
2026-07-27 13:06:51.315,-0.03,-0.13,0.97,29.17,21.06,-10.62
2026-07-27 13:06:51.424,0.02,-0.23,0.95,16.3,8.79,-15.14
2026-07-27 13:06:51.425,0.02,-0.23,0.95,16.3,8.79,-15.14
2026-07-27 13:06:51.425,0.06,-0.3,0.97,-14.89,-12.82,-24.72
2026-07-27 13:06:51.426,0.06,-0.31,0.97,-40.28,-14.1,-38.57
2026-07-27 13:06:51.426,0.06,-0.31,0.97,-40.28,-14.1,-38.57
2026-07-27 13:06:51.484,0.01,-0.25,0.93,-34.67,9.09,-43.82
2026-07-27 13:06:51.484,0.01,-0.25,0.93,-34.67,9.09,-43.82
2026-07-27 13:06:51.484,-0.02,-0.21,0.9,-7.02,28.02,-39.31
2026-07-27 13:06:51.546,-0.02,-0.21,0.9,-7.02,28.02,-39.31
2026-07-27 13:06:51.547,-0.03,-0.24,0.9,10.07,31.31,-24.96
2026-07-27 13:06:51.547,-0.03,-0.24,0.9,10.07,31.31,-24.96
2026-07-27 13:06:51.604,-0.07,-0.31,0.93,-0.73,24.48,1.77
2026-07-27 13:06:51.604,-0.12,-0.4,0.95,-27.77,13.0,31.56
2026-07-27 13:06:51.665,-0.12,-0.4,0.95,-27.77,13.0,31.56
2026-07-27 13:06:51.666,-0.15,-0.42,0.95,-36.38,12.08,30.09
2026-07-27 13:06:51.667,-0.15,-0.42,0.95,-36.38,12.08,30.09
2026-07-27 13:06:51.726,-0.18,-0.43,0.95,-14.53,26.98,-5.86
2026-07-27 13:06:51.726,-0.18,-0.43,0.95,-14.53,26.98,-5.86
2026-07-27 13:06:51.784,-0.21,-0.45,0.95,17.52,47.0,-56.95
2026-07-27 13:06:51.784,-0.2,-0.37,0.98,47.73,60.61,-115.23
2026-07-27 13:06:51.785,-0.2,-0.37,0.98,47.73,60.61,-115.23
2026-07-27 13:06:51.844,-0.17,-0.27,0.99,58.41,49.5,-139.04
2026-07-27 13:06:51.844,-0.17,-0.27,0.99,58.41,49.5,-139.04
2026-07-27 13:06:51.845,-0.14,-0.16,0.99,44.56,23.32,-125.61
2026-07-27 13:06:51.908,-0.14,-0.16,0.99,44.56,23.32,-125.61
2026-07-27 13:06:51.909,-0.01,0.19,1.0,42.18,6.16,-116.21
2026-07-27 13:06:51.970,0.21,0.91,0.97,71.53,0.55,-106.51
2026-07-27 13:06:51.971,0.21,0.91,0.97,71.53,0.55,-106.51
2026-07-27 13:06:51.971,0.24,1.2,0.87,77.51,4.82,-37.41
2026-07-27 13:06:52.026,0.24,1.2,0.87,77.51,4.82,-37.41
2026-07-27 13:06:52.026,-0.1,0.36,0.81,3.36,15.56,93.2
2026-07-27 13:06:52.026,-0.1,0.36,0.81,3.36,15.56,93.2
2026-07-27 13:06:52.084,-0.46,-0.78,0.94,-97.96,36.25,166.87
2026-07-27 13:06:52.085,-0.53,-1.14,1.04,-110.17,45.1,134.46
2026-07-27 13:06:52.158,-0.53,-1.14,1.04,-110.17,45.1,134.46
2026-07-27 13:06:52.159,-0.31,-0.73,0.92,-24.05,10.74,77.39
2026-07-27 13:06:52.160,-0.31,-0.73,0.92,-24.05,10.74,77.39
2026-07-27 13:06:52.204,-0.1,-0.21,0.81,42.42,-50.84,41.81
2026-07-27 13:06:52.205,-0.1,-0.21,0.81,42.42,-50.84,41.81
2026-07-27 13:06:52.265,-0.05,0.02,0.86,32.29,-72.14,20.02
2026-07-27 13:06:52.266,-0.02,0.02,0.92,-3.3,-49.13,21.0
2026-07-27 13:06:52.266,-0.02,0.02,0.92,-3.3,-49.13,21.0
2026-07-27 13:06:52.324,-0.03,-0.1,0.9,-20.32,-30.27,42.66
2026-07-27 13:06:52.325,-0.03,-0.1,0.9,-20.32,-30.27,42.66
2026-07-27 13:06:52.325,-0.13,-0.19,1.02,-13.37,-17.64,49.99
2026-07-27 13:06:52.386,-0.13,-0.19,1.02,-13.37,-17.64,49.99
2026-07-27 13:06:52.386,-0.15,-0.2,1.12,16.48,-12.88,28.69
2026-07-27 13:06:52.445,-0.15,-0.2,1.12,16.6,-19.71,3.36
2026-07-27 13:06:52.446,-0.03,-0.24,1.07,16.6,-19.71,3.36
2026-07-27 13:06:52.446,0.06,-0.25,0.96,-16.78,-28.44,3.05
2026-07-27 13:06:52.504,0.06,-0.25,0.96,-16.78,-28.44,3.05
2026-07-27 13:06:52.506,0.03,-0.19,0.94,-25.21,-24.54,18.01
2026-07-27 13:06:52.506,0.03,-0.19,0.94,-25.21,-24.54,18.01
2026-07-27 13:06:52.564,-0.04,-0.11,0.98,-3.3,-12.02,28.81
2026-07-27 13:06:52.624,-0.04,-0.11,0.98,-3.3,-12.02,28.81
2026-07-27 13:06:52.625,-0.08,-0.06,0.99,23.8,-0.49,31.86
2026-07-27 13:06:52.625,-0.09,-0.07,0.97,34.12,5.0,23.56
2026-07-27 13:06:52.626,-0.09,-0.07,0.97,34.12,5.0,23.56
2026-07-27 13:06:52.688,-0.06,-0.09,0.97,27.28,2.93,10.07
2026-07-27 13:06:52.689,-0.06,-0.09,0.97,27.28,2.93,10.07
2026-07-27 13:06:52.689,-0.02,-0.1,1.0,13.06,-2.62,1.59
2026-07-27 13:06:52.744,-0.02,-0.1,1.0,13.06,-2.62,1.59
2026-07-27 13:06:52.745,-0.0,-0.11,1.0,2.81,-5.19,1.4
2026-07-27 13:06:52.804,-0.0,-0.11,1.0,2.81,-5.19,1.4
2026-07-27 13:06:52.804,-0.01,-0.1,0.98,1.34,-3.11,3.66
2026-07-27 13:06:52.805,-0.02,-0.09,0.98,4.46,-1.95,4.82
2026-07-27 13:06:52.864,-0.02,-0.09,0.98,4.46,-1.95,4.82
2026-07-27 13:06:52.871,-0.02,-0.09,1.0,6.71,-2.69,4.46
2026-07-27 13:06:52.871,-0.02,-0.09,1.0,6.71,-2.69,4.46
2026-07-27 13:06:52.924,-0.02,-0.08,1.0,7.39,-2.32,4.03
2026-07-27 13:06:52.942,-0.02,-0.08,1.0,7.39,-2.32,4.03
2026-07-27 13:06:52.987,-0.02,-0.08,0.99,6.53,-0.55,3.72
2026-07-27 13:06:52.989,-0.02,-0.08,0.99,6.53,-0.55,3.72
2026-07-27 13:06:52.989,-0.02,-0.07,0.98,5.74,0.18,3.66
2026-07-27 13:06:53.044,-0.02,-0.07,0.98,5.74,0.18,3.66
2026-07-27 13:06:53.045,-0.02,-0.06,0.99,5.43,-0.67,3.78
2026-07-27 13:06:53.046,-0.02,-0.06,0.99,4.82,-1.83,3.97
2026-07-27 13:06:53.104,-0.02,-0.06,0.99,4.82,-1.83,3.97
2026-07-27 13:06:53.105,-0.03,-0.05,0.99,3.72,-2.2,3.48
2026-07-27 13:06:53.105,-0.03,-0.05,0.99,3.72,-2.2,3.48
2026-07-27 13:06:53.173,-0.02,-0.05,0.99,2.69,-2.75,1.89
2026-07-27 13:06:53.174,-0.02,-0.05,0.99,2.69,-2.75,1.89
2026-07-27 13:06:53.226,-0.01,-0.06,1.0,2.14,-3.72,0.79
2026-07-27 13:06:53.227,-0.01,-0.06,1.0,2.14,-3.72,0.79
2026-07-27 13:06:53.227,-0.01,-0.06,1.0,1.46,-3.48,0.55
2026-07-27 13:06:53.284,-0.01,-0.06,0.99,1.28,-2.26,0.92
2026-07-27 13:06:53.285,-0.01,-0.06,0.99,1.28,-2.26,0.92
2026-07-27 13:06:53.286,-0.02,-0.06,0.99,1.53,-1.4,1.34
2026-07-27 13:06:53.344,-0.02,-0.06,0.99,1.53,-1.4,1.34
2026-07-27 13:06:53.344,-0.01,-0.05,0.99,1.59,-1.89,1.16
2026-07-27 13:06:53.345,-0.01,-0.05,0.99,1.59,-1.89,1.16
2026-07-27 13:06:53.405,-0.01,-0.06,0.99,0.92,-3.17,0.73
2026-07-27 13:06:53.411,-0.01,-0.06,0.99,0.92,-3.17,0.73
2026-07-27 13:06:53.464,-0.0,-0.06,1.0,-0.37,-3.85,0.67
2026-07-27 13:06:53.465,-0.0,-0.06,1.0,-0.37,-3.85,0.67
2026-07-27 13:06:53.466,0.0,-0.06,1.0,-0.55,-3.36,0.98
2026-07-27 13:06:53.528,-0.0,-0.05,0.99,0.06,-2.62,1.28
2026-07-27 13:06:53.528,-0.0,-0.05,0.99,0.06,-2.62,1.28
2026-07-27 13:06:53.529,-0.0,-0.05,0.99,0.18,-2.75,1.16
2026-07-27 13:06:53.584,-0.0,-0.05,0.99,0.18,-2.75,1.16
2026-07-27 13:06:53.585,0.0,-0.06,1.0,0.31,-2.93,0.79
2026-07-27 13:06:53.585,0.0,-0.06,1.0,0.31,-2.93,0.79
2026-07-27 13:06:53.646,0.01,-0.06,1.0,1.04,-2.26,0.43
2026-07-27 13:06:53.646,0.01,-0.06,1.0,1.04,-2.26,0.43
2026-07-27 13:06:53.706,0.01,-0.05,0.99,1.83,-1.53,0.43
2026-07-27 13:06:53.706,0.01,-0.05,0.99,2.44,-0.98,0.49
2026-07-27 13:06:53.707,0.0,-0.05,0.99,2.44,-0.98,0.49
2026-07-27 13:06:53.770,0.0,-0.05,0.99,2.75,-0.98,0.37
2026-07-27 13:06:53.771,0.0,-0.05,0.99,2.75,-0.98,0.37
2026-07-27 13:06:53.772,0.01,-0.05,0.99,2.26,-1.53,0.12
2026-07-27 13:06:53.824,0.01,-0.05,0.99,2.26,-1.53,0.12
2026-07-27 13:06:53.825,0.01,-0.05,0.99,1.53,-1.59,0.0
2026-07-27 13:06:53.826,0.01,-0.05,0.99,1.53,-1.59,0.0
2026-07-27 13:06:53.885,0.01,-0.05,0.99,1.22,-1.34,0.31
2026-07-27 13:06:53.885,0.01,-0.05,0.99,1.22,-1.34,0.31
2026-07-27 13:06:53.947,0.01,-0.04,1.0,0.92,-1.28,0.49
2026-07-27 13:06:53.949,0.01,-0.04,1.0,0.61,-1.1,0.43
2026-07-27 13:06:53.949,0.01,-0.04,0.99,0.61,-1.1,0.43
2026-07-27 13:06:54.003,0.01,-0.04,0.99,0.49,-0.98,0.31
2026-07-27 13:06:54.004,0.01,-0.04,0.99,0.49,-0.98,0.31
2026-07-27 13:06:54.064,0.01,-0.04,1.0,0.31,-1.46,0.18
2026-07-27 13:06:54.065,0.01,-0.04,1.0,0.31,-1.46,0.18
2026-07-27 13:06:54.065,0.01,-0.04,1.0,0.31,-1.34,0.18
2026-07-27 13:06:54.123,0.01,-0.04,1.0,0.31,-1.34,0.18
2026-07-27 13:06:54.124,0.01,-0.04,1.0,0.24,-0.79,0.12
2026-07-27 13:06:54.124,0.01,-0.04,0.99,0.18,-0.43,0.06
2026-07-27 13:06:54.184,0.01,-0.04,0.99,0.18,-0.43,0.06
2026-07-27 13:06:54.185,0.01,-0.04,0.99,0.49,-0.18,-0.06
2026-07-27 13:06:54.185,0.01,-0.04,0.99,0.49,-0.18,-0.06
2026-07-27 13:06:54.243,0.01,-0.05,0.99,1.04,-0.43,-0.12
2026-07-27 13:06:54.244,0.01,-0.05,0.99,1.04,-0.43,-0.12
2026-07-27 13:06:54.304,0.01,-0.06,0.99,2.08,-0.67,-0.12
2026-07-27 13:06:54.305,0.01,-0.06,0.99,2.08,-0.67,-0.12
2026-07-27 13:06:54.305,0.02,-0.07,1.01,3.72,-1.34,0.79
2026-07-27 13:06:54.364,0.02,-0.07,1.01,3.72,-1.34,0.79
2026-07-27 13:06:54.365,0.05,-0.11,1.07,9.28,1.65,2.44
2026-07-27 13:06:54.365,0.05,-0.09,1.03,34.91,20.26,9.22
2026-07-27 13:06:54.434,0.05,-0.09,1.03,34.91,20.26,9.22
2026-07-27 13:06:54.435,-0.17,0.43,0.83,72.88,42.24,33.45
2026-07-27 13:06:54.435,-0.17,0.43,0.83,72.88,42.24,33.45
2026-07-27 13:06:54.485,-0.29,0.95,0.85,38.15,17.58,31.49
2026-07-27 13:06:54.485,-0.29,0.95,0.85,38.15,17.58,31.49
2026-07-27 13:06:54.544,0.13,0.18,1.05,-90.21,-24.05,-56.46
2026-07-27 13:06:54.545,0.13,0.18,1.05,-189.94,-14.22,-128.6
2026-07-27 13:06:54.545,0.7,-1.35,0.98,-189.94,-14.22,-128.6
2026-07-27 13:06:54.604,0.67,-1.5,0.65,-121.89,23.38,-30.64
2026-07-27 13:06:54.604,0.67,-1.5,0.65,-121.89,23.38,-30.64
2026-07-27 13:06:54.664,-0.05,0.24,0.49,54.44,32.53,152.1
2026-07-27 13:06:54.665,-0.05,0.24,0.49,54.44,32.53,152.1
2026-07-27 13:06:54.665,-0.6,1.63,0.71,116.33,0.06,180.48
2026-07-27 13:06:54.726,-0.6,1.63,0.71,116.33,0.06,180.48
2026-07-27 13:06:54.726,-0.6,1.63,0.71,116.33,0.06,180.48
2026-07-27 13:06:54.726,-0.6,1.63,0.71,116.33,0.06,180.48
2026-07-27 13:06:54.784,0.51,-1.11,1.07,-112.37,-26.73,-131.84
2026-07-27 13:06:54.784,0.51,-1.11,1.07,-112.37,-26.73,-131.84
2026-07-27 13:06:54.785,0.51,-1.11,1.07,-112.37,-26.73,-131.84
2026-07-27 13:06:54.844,0.51,-1.11,1.07,-112.37,-26.73,-131.84
2026-07-27 13:06:54.845,-0.07,0.17,0.68,47.67,6.16,83.19
2026-07-27 13:06:54.846,-0.07,0.17,0.68,47.67,6.16,83.19
2026-07-27 13:06:54.913,-0.52,1.41,1.0,83.25,-24.54,112.85
2026-07-27 13:06:54.913,-0.2,0.67,1.12,-4.21,-28.81,-24.78
2026-07-27 13:06:54.914,-0.2,0.67,1.12,-4.21,-28.81,-24.78
2026-07-27 13:06:54.965,0.38,-0.86,0.89,-81.36,-1.16,-142.64
2026-07-27 13:06:54.966,0.38,-0.86,0.89,-81.36,-1.16,-142.64
2026-07-27 13:06:55.026,0.51,-1.27,0.78,-48.83,9.58,-100.71
2026-07-27 13:06:55.026,0.51,-1.27,0.78,-48.83,9.58,-100.71
2026-07-27 13:06:55.084,0.14,-0.33,0.97,44.43,-8.3,28.69
2026-07-27 13:06:55.084,-0.22,0.54,1.07,74.1,-17.15,85.21
2026-07-27 13:06:55.089,-0.22,0.54,1.07,74.1,-17.15,85.21
2026-07-27 13:06:55.203,-0.17,0.44,1.03,12.27,-11.29,29.66
2026-07-27 13:06:55.205,-0.17,0.44,1.03,12.27,-11.29,29.66
2026-07-27 13:06:55.205,0.11,-0.16,0.97,-55.6,-9.16,-43.03
2026-07-27 13:06:55.206,0.11,-0.16,0.97,-55.6,-9.16,-43.03
2026-07-27 13:06:55.206,0.22,-0.51,0.93,-67.63,-11.84,-52.61
2026-07-27 13:06:55.206,0.22,-0.51,0.93,-67.63,-11.84,-52.61
2026-07-27 13:06:55.264,0.13,-0.4,0.93,-34.79,-16.17,-12.39
2026-07-27 13:06:55.265,0.03,-0.17,0.95,-5.86,-18.92,18.68
2026-07-27 13:06:55.265,0.03,-0.17,0.95,-5.86,-18.92,18.68
2026-07-27 13:06:55.325,-0.01,-0.13,0.91,-4.58,-19.47,15.81
2026-07-27 13:06:55.326,-0.01,-0.13,0.91,-4.58,-19.47,15.81
2026-07-27 13:06:55.384,0.02,-0.3,0.88,-19.53,-25.39,-0.12
2026-07-27 13:06:55.385,0.02,-0.3,0.88,-19.53,-25.39,-0.12
2026-07-27 13:06:55.386,0.14,-0.48,0.94,-35.52,-40.53,-2.01
2026-07-27 13:06:55.444,0.14,-0.48,0.94,-35.52,-40.53,-2.01
2026-07-27 13:06:55.445,0.27,-0.44,1.02,-35.03,-44.13,16.17
2026-07-27 13:06:55.505,0.23,-0.18,1.06,-6.71,-22.09,38.88
2026-07-27 13:06:55.505,0.23,-0.18,1.06,-6.71,-22.09,38.88
2026-07-27 13:06:55.506,0.13,-0.04,1.12,17.4,9.77,40.22
2026-07-27 13:06:55.564,0.13,-0.04,1.12,17.4,9.77,40.22
2026-07-27 13:06:55.565,0.07,-0.14,1.06,1.65,36.56,21.36
2026-07-27 13:06:55.565,0.07,-0.14,1.06,1.65,36.56,21.36
2026-07-27 13:06:55.624,0.0,-0.28,0.85,-23.93,53.28,5.37
2026-07-27 13:06:55.626,0.0,-0.28,0.85,-23.93,53.28,5.37
2026-07-27 13:06:55.626,-0.06,-0.29,0.75,-19.84,46.94,-1.59
2026-07-27 13:06:55.684,-0.02,-0.32,0.83,-4.82,23.01,-11.78
2026-07-27 13:06:55.685,-0.02,-0.32,0.83,-4.82,23.01,-11.78
2026-07-27 13:06:55.745,0.0,-0.42,1.01,10.44,6.71,-19.96
2026-07-27 13:06:55.745,0.0,-0.42,1.01,10.44,6.71,-19.96
2026-07-27 13:06:55.746,-0.09,-0.24,1.21,66.35,-8.42,-2.93
2026-07-27 13:06:55.804,-0.09,-0.24,1.21,66.35,-8.42,-2.93
2026-07-27 13:06:55.805,-0.09,0.06,1.29,132.32,-36.68,5.0
2026-07-27 13:06:55.805,-0.09,0.06,1.29,139.83,-56.88,-30.15
2026-07-27 13:06:55.864,0.11,0.03,1.17,139.83,-56.88,-30.15
2026-07-27 13:06:55.864,0.27,-0.04,0.93,130.13,-48.65,-60.91
2026-07-27 13:06:55.924,0.27,-0.04,0.93,130.13,-48.65,-60.91
2026-07-27 13:06:55.924,0.28,0.13,0.87,153.38,-32.47,-56.03
2026-07-27 13:06:55.925,0.28,0.13,0.87,153.38,-32.47,-56.03
2026-07-27 13:06:55.989,0.21,0.36,0.93,170.35,-16.78,-45.35
2026-07-27 13:06:55.989,0.21,0.36,0.93,133.67,-0.31,-55.11
2026-07-27 13:06:55.990,0.11,0.54,0.85,133.67,-0.31,-55.11
2026-07-27 13:06:56.045,0.11,0.58,0.85,64.15,-15.26,-84.96
2026-07-27 13:06:56.045,0.11,0.58,0.85,64.15,-15.26,-84.96
2026-07-27 13:06:56.110,0.23,0.48,0.83,5.62,-51.51,-120.36
2026-07-27 13:06:56.111,0.23,0.48,0.83,5.62,-51.51,-120.36
2026-07-27 13:06:56.111,0.32,0.43,0.71,-29.97,-70.8,-142.94
2026-07-27 13:06:56.164,0.31,0.35,0.78,-54.63,-78.06,-172.85
2026-07-27 13:06:56.165,0.31,0.35,0.78,-54.63,-78.06,-172.85
2026-07-27 13:06:56.224,0.23,0.14,1.02,-77.21,-54.93,-199.22
2026-07-27 13:06:56.234,0.23,0.14,1.02,-77.21,-54.93,-199.22
2026-07-27 13:06:56.235,0.07,-0.05,1.08,-86.06,16.36,-159.12
2026-07-27 13:06:56.284,0.07,-0.05,1.08,-86.06,16.36,-159.12
2026-07-27 13:06:56.287,-0.07,-0.11,0.97,-77.21,96.44,-56.82
2026-07-27 13:06:56.343,-0.15,-0.09,0.98,-102.97,133.67,3.6
2026-07-27 13:06:56.344,-0.15,-0.09,0.98,-102.97,133.67,3.6
2026-07-27 13:06:56.344,-0.3,-0.02,1.05,-146.91,95.83,-47.73
2026-07-27 13:06:56.406,-0.3,-0.02,1.05,-146.91,95.83,-47.73
2026-07-27 13:06:56.406,-0.44,0.05,1.04,-127.81,23.62,-123.41
2026-07-27 13:06:56.407,-0.44,0.05,1.04,-127.81,23.62,-123.41
2026-07-27 13:06:56.464,-0.42,0.05,1.0,-81.24,-10.93,-132.93
2026-07-27 13:06:56.464,-0.27,0.01,0.93,-52.19,-10.01,-99.73
2026-07-27 13:06:56.525,-0.27,0.01,0.93,-52.19,-10.01,-99.73
2026-07-27 13:06:56.525,-0.1,-0.02,0.83,-28.02,-4.7,-74.58
2026-07-27 13:06:56.526,-0.1,-0.02,0.83,-28.02,-4.7,-74.58
2026-07-27 13:06:56.584,-0.01,-0.08,0.81,-25.82,3.78,-71.41
2026-07-27 13:06:56.584,-0.01,-0.08,0.81,-25.82,3.78,-71.41
2026-07-27 13:06:56.585,0.02,-0.21,0.94,-48.1,22.46,-65.67
2026-07-27 13:06:56.644,0.02,-0.21,0.94,-43.09,46.63,-45.17
2026-07-27 13:06:56.644,0.01,-0.32,1.02,-43.09,46.63,-45.17
2026-07-27 13:06:56.704,-0.07,-0.3,0.95,-16.91,59.02,-34.42
2026-07-27 13:06:56.704,-0.07,-0.3,0.95,-16.91,59.02,-34.42
2026-07-27 13:06:56.704,-0.17,-0.28,0.88,-29.97,52.86,-38.39
2026-07-27 13:06:56.765,-0.17,-0.28,0.88,-29.97,52.86,-38.39
2026-07-27 13:06:56.766,-0.2,-0.32,0.9,-62.5,45.41,-48.22
2026-07-27 13:06:56.767,-0.2,-0.32,0.9,-62.5,45.41,-48.22
2026-07-27 13:06:56.833,-0.2,-0.4,0.9,-85.82,72.63,-88.56
2026-07-27 13:06:56.835,-0.24,-0.57,0.74,-126.59,150.39,-157.41
2026-07-27 13:06:56.885,-0.24,-0.57,0.74,-126.59,150.39,-157.41
2026-07-27 13:06:56.885,-0.31,-0.73,0.53,-142.58,197.57,-176.7
2026-07-27 13:06:56.885,-0.31,-0.73,0.53,-142.58,197.57,-176.7
2026-07-27 13:06:56.944,-0.34,-0.76,0.46,-85.94,144.47,-112.06
2026-07-27 13:06:56.946,-0.34,-0.76,0.46,-21.36,63.84,-33.63
2026-07-27 13:06:57.005,-0.32,-0.76,0.53,-21.36,63.84,-33.63
2026-07-27 13:06:57.016,-0.29,-0.74,0.62,11.47,35.95,0.24
2026-07-27 13:06:57.019,-0.29,-0.74,0.62,11.47,35.95,0.24
2026-07-27 13:06:57.064,-0.26,-0.73,0.65,31.43,47.79,-3.42
2026-07-27 13:06:57.065,-0.26,-0.73,0.65,31.43,47.79,-3.42
2026-07-27 13:06:57.065,-0.3,-0.74,0.65,41.08,45.96,-23.99
2026-07-27 13:06:57.124,-0.3,-0.74,0.65,41.08,45.96,-23.99
2026-07-27 13:06:57.124,-0.34,-0.75,0.64,44.25,17.64,-47.55
2026-07-27 13:06:57.184,-0.35,-0.72,0.61,39.92,0.18,-57.19
2026-07-27 13:06:57.184,-0.35,-0.72,0.61,39.92,0.18,-57.19
2026-07-27 13:06:57.184,-0.37,-0.69,0.56,22.64,4.39,-48.83
2026-07-27 13:06:57.244,-0.37,-0.69,0.56,22.64,4.39,-48.83
2026-07-27 13:06:57.244,-0.38,-0.71,0.52,4.33,12.57,-34.73
2026-07-27 13:06:57.244,-0.38,-0.71,0.52,4.33,12.57,-34.73
2026-07-27 13:06:57.305,-0.38,-0.73,0.5,-5.43,18.98,-25.88
2026-07-27 13:06:57.306,-0.38,-0.73,0.5,-11.11,26.43,-23.8
2026-07-27 13:06:57.364,-0.39,-0.75,0.46,-11.11,26.43,-23.8
2026-07-27 13:06:57.365,-0.42,-0.76,0.42,-17.64,36.87,-25.94
2026-07-27 13:06:57.365,-0.42,-0.76,0.42,-17.64,36.87,-25.94
2026-07-27 13:06:57.424,-0.46,-0.77,0.36,-28.08,49.62,-31.74
2026-07-27 13:06:57.424,-0.46,-0.77,0.36,-28.08,49.62,-31.74
2026-07-27 13:06:57.424,-0.49,-0.77,0.28,-37.78,63.23,-41.08
2026-07-27 13:06:57.486,-0.49,-0.77,0.28,-37.78,63.23,-41.08
2026-07-27 13:06:57.486,-0.53,-0.76,0.14,-40.04,79.83,-45.23
2026-07-27 13:06:57.545,-0.57,-0.69,-0.08,-36.19,94.91,-37.17
2026-07-27 13:06:57.545,-0.57,-0.69,-0.08,-36.19,94.91,-37.17
2026-07-27 13:06:57.604,-0.57,-0.54,-0.14,-41.63,106.75,-27.1
2026-07-27 13:06:57.605,-0.57,-0.54,-0.14,-41.63,106.75,-27.1
2026-07-27 13:06:57.605,-0.59,-0.44,0.09,-66.77,144.47,-21.0
2026-07-27 13:06:57.605,-0.59,-0.44,0.09,-66.77,144.47,-21.0
2026-07-27 13:06:57.670,-0.63,-0.56,0.44,-76.29,205.08,-8.06
2026-07-27 13:06:57.670,-0.58,-0.8,0.65,-28.02,241.15,6.53
2026-07-27 13:06:57.785,-0.58,-0.8,0.65,-28.02,241.15,6.53
2026-07-27 13:06:57.786,-0.49,-0.97,0.6,14.16,217.53,9.16
2026-07-27 13:06:57.786,-0.49,-0.97,0.6,14.16,217.53,9.16
2026-07-27 13:06:57.787,-0.43,-1.02,0.36,-33.75,135.5,4.58
2026-07-27 13:06:57.787,-0.43,-1.02,0.36,-33.75,135.5,4.58
2026-07-27 13:06:57.855,-0.48,-0.92,0.14,-128.72,41.08,1.95
2026-07-27 13:06:57.857,-0.67,-0.72,0.14,-167.11,-25.09,21.24
2026-07-27 13:06:57.857,-0.67,-0.72,0.14,-167.11,-25.09,21.24
2026-07-27 13:06:57.904,-0.89,-0.61,0.33,-95.76,-54.69,71.41
2026-07-27 13:06:57.905,-0.89,-0.61,0.33,-95.76,-54.69,71.41
2026-07-27 13:06:57.905,-0.97,-0.65,0.56,59.57,-57.86,125.73
2026-07-27 13:06:57.964,-0.97,-0.65,0.56,59.57,-57.86,125.73
2026-07-27 13:06:57.965,-0.85,-0.97,0.75,213.99,-43.95,146.42
2026-07-27 13:06:58.024,-0.63,-1.48,0.62,269.78,-24.72,92.65
2026-07-27 13:06:58.026,-0.63,-1.48,0.62,269.78,-24.72,92.65
2026-07-27 13:06:58.026,-0.52,-1.36,0.3,214.97,-0.37,-67.2
2026-07-27 13:06:58.084,-0.52,-1.36,0.3,214.97,-0.37,-67.2
2026-07-27 13:06:58.085,-0.5,-0.75,0.23,131.23,39.31,-200.68
2026-07-27 13:06:58.148,-0.41,-0.49,0.26,55.48,66.77,-178.83
2026-07-27 13:06:58.149,-0.41,-0.49,0.26,55.48,66.77,-178.83
2026-07-27 13:06:58.149,-0.36,-0.6,0.31,-1.83,78.43,-84.11
2026-07-27 13:06:58.205,-0.36,-0.6,0.31,-1.83,78.43,-84.11
2026-07-27 13:06:58.205,-0.38,-0.88,0.31,-7.93,96.56,-2.38
2026-07-27 13:06:58.208,-0.38,-0.88,0.31,-7.93,96.56,-2.38
2026-07-27 13:06:58.266,-0.39,-1.08,0.24,-20.39,90.58,22.52
2026-07-27 13:06:58.267,-0.39,-1.01,0.1,-69.7,42.48,-13.73
2026-07-27 13:06:58.324,-0.39,-1.01,0.1,-69.7,42.48,-13.73
2026-07-27 13:06:58.324,-0.41,-0.84,-0.04,-86.67,-9.64,-48.65
2026-07-27 13:06:58.325,-0.41,-0.84,-0.04,-86.67,-9.64,-48.65
2026-07-27 13:06:58.384,-0.46,-0.74,-0.03,-39.43,-24.9,-47.0
2026-07-27 13:06:58.385,-0.46,-0.74,-0.03,-39.43,-24.9,-47.0
2026-07-27 13:06:58.444,-0.52,-0.78,0.12,52.92,-0.79,-31.13
2026-07-27 13:06:58.445,-0.52,-0.78,0.12,52.92,-0.79,-31.13
2026-07-27 13:06:58.445,-0.55,-0.89,0.33,162.9,42.11,-36.38
2026-07-27 13:06:58.504,-0.56,-0.83,0.49,277.1,101.68,-80.2
2026-07-27 13:06:58.505,-0.56,-0.83,0.49,277.1,101.68,-80.2
2026-07-27 13:06:58.567,-0.53,-0.59,0.59,353.88,164.73,-130.92
2026-07-27 13:06:58.567,-0.53,-0.59,0.59,353.88,164.73,-130.92
2026-07-27 13:06:58.627,-0.5,-0.37,0.62,328.74,177.8,-130.31
2026-07-27 13:06:58.627,-0.5,-0.37,0.62,204.9,124.76,-68.6
2026-07-27 13:06:58.627,-0.47,-0.33,0.64,204.9,124.76,-68.6
2026-07-27 13:06:58.627,-0.43,-0.43,0.7,72.14,55.91,-2.87
2026-07-27 13:06:58.687,-0.43,-0.43,0.7,72.14,55.91,-2.87
2026-07-27 13:06:58.687,-0.41,-0.55,0.76,8.91,16.42,20.45
2026-07-27 13:06:58.687,-0.41,-0.55,0.76,8.91,16.42,20.45
2026-07-27 13:06:58.756,-0.36,-0.64,0.82,6.77,7.63,7.57
2026-07-27 13:06:58.756,-0.36,-0.64,0.82,6.77,7.63,7.57
2026-07-27 13:06:58.804,-0.25,-0.68,0.91,22.34,11.84,-13.0
2026-07-27 13:06:58.805,-0.12,-0.67,0.95,22.34,5.49,-12.02
2026-07-27 13:06:58.864,-0.12,-0.67,0.95,22.34,5.49,-12.02
2026-07-27 13:06:58.864,-0.06,-0.71,0.88,-13.0,-34.73,16.24
2026-07-27 13:06:58.865,-0.06,-0.71,0.88,-13.0,-34.73,16.24
2026-07-27 13:06:58.984,-0.09,-0.78,0.74,-59.69,-86.85,42.72
2026-07-27 13:06:58.984,-0.09,-0.78,0.74,-59.69,-86.85,42.72
2026-07-27 13:06:58.984,-0.15,-0.75,0.67,-74.28,-104.68,41.02
2026-07-27 13:06:58.985,-0.15,-0.75,0.67,-58.96,-87.77,23.19
2026-07-27 13:06:58.985,-0.2,-0.64,0.72,-58.96,-87.77,23.19
2026-07-27 13:06:58.986,-0.21,-0.57,0.79,-46.02,-69.21,18.37
2026-07-27 13:06:59.044,-0.21,-0.57,0.79,-46.02,-69.21,18.37
2026-07-27 13:06:59.046,-0.23,-0.56,0.82,-43.82,-65.25,27.65
2026-07-27 13:06:59.106,-0.23,-0.56,0.82,-43.82,-65.25,27.65
2026-07-27 13:06:59.106,-0.27,-0.57,0.79,-39.79,-68.54,33.45
2026-07-27 13:06:59.106,-0.27,-0.57,0.79,-30.82,-70.68,32.41
2026-07-27 13:06:59.166,-0.31,-0.55,0.73,-30.82,-70.68,32.41
2026-07-27 13:06:59.166,-0.33,-0.52,0.66,-23.19,-70.07,33.45
2026-07-27 13:06:59.167,-0.33,-0.52,0.66,-23.19,-70.07,33.45
2026-07-27 13:06:59.285,-0.33,-0.53,0.59,-22.95,-71.23,46.39
2026-07-27 13:06:59.286,-0.33,-0.53,0.59,-22.95,-71.23,46.39
2026-07-27 13:06:59.344,-0.3,-0.59,0.54,-30.33,-76.97,74.04
2026-07-27 13:06:59.345,-0.3,-0.59,0.54,-30.33,-76.97,74.04
2026-07-27 13:06:59.346,-0.24,-0.66,0.48,-35.22,-81.73,100.95
2026-07-27 13:06:59.346,-0.19,-0.66,0.45,-24.41,-73.18,107.48
2026-07-27 13:06:59.346,-0.19,-0.66,0.45,-24.41,-73.18,107.48
2026-07-27 13:06:59.405,-0.15,-0.58,0.45,7.81,-48.58,91.43
2026-07-27 13:06:59.405,-0.15,-0.58,0.45,7.81,-48.58,91.43
2026-07-27 13:06:59.406,-0.14,-0.46,0.52,49.13,-25.45,63.35
2026-07-27 13:06:59.466,-0.14,-0.46,0.52,49.13,-25.45,63.35
2026-07-27 13:06:59.466,-0.16,-0.36,0.64,74.1,-17.7,39.49
2026-07-27 13:06:59.466,-0.22,-0.34,0.81,75.07,-14.34,39.73
2026-07-27 13:06:59.524,-0.22,-0.34,0.81,75.07,-14.34,39.73
2026-07-27 13:06:59.524,-0.3,-0.37,0.95,64.82,-9.16,59.57
2026-07-27 13:06:59.524,-0.3,-0.37,0.95,64.82,-9.16,59.57
2026-07-27 13:06:59.584,-0.36,-0.41,1.07,49.44,-9.28,78.55
2026-07-27 13:06:59.584,-0.36,-0.41,1.07,49.44,-9.28,78.55
2026-07-27 13:06:59.647,-0.37,-0.48,1.16,27.77,-17.94,89.23
2026-07-27 13:06:59.653,-0.37,-0.48,1.16,27.77,-17.94,89.23
2026-07-27 13:06:59.654,-0.37,-0.48,1.16,27.77,-17.94,89.23
2026-07-27 13:06:59.704,-0.37,-0.48,1.16,27.77,-17.94,89.23
2026-07-27 13:06:59.704,-0.33,-0.28,0.98,17.21,-42.72,41.02
2026-07-27 13:06:59.705,-0.33,-0.28,0.98,26.92,-42.24,8.42
2026-07-27 13:06:59.764,-0.36,-0.15,0.89,26.92,-42.24,8.42
2026-07-27 13:06:59.765,-0.38,-0.13,0.91,19.04,-35.46,6.96
2026-07-27 13:06:59.765,-0.38,-0.13,0.91,19.04,-35.46,6.96
2026-07-27 13:06:59.826,-0.35,-0.18,0.99,-6.77,-31.31,26.12
2026-07-27 13:06:59.826,-0.35,-0.18,0.99,-6.77,-31.31,26.12
2026-07-27 13:06:59.884,-0.35,-0.26,1.02,-38.7,-38.51,46.51
2026-07-27 13:06:59.884,-0.35,-0.26,1.02,-38.7,-38.51,46.51
2026-07-27 13:06:59.884,-0.35,-0.32,0.97,-54.44,-49.26,54.63
2026-07-27 13:06:59.948,-0.35,-0.31,0.91,-37.84,-42.36,39.92
2026-07-27 13:06:59.948,-0.35,-0.31,0.91,-37.84,-42.36,39.92
2026-07-27 13:07:00.064,-0.34,-0.28,0.89,-9.89,-22.34,15.08
2026-07-27 13:07:00.065,-0.34,-0.28,0.89,-9.89,-22.34,15.08
2026-07-27 13:07:00.123,-0.32,-0.25,0.89,3.54,-11.35,2.26
2026-07-27 13:07:00.124,-0.32,-0.25,0.89,3.54,-11.35,2.26
2026-07-27 13:07:00.124,-0.29,-0.24,0.87,0.73,-12.76,3.48
2026-07-27 13:07:00.124,-0.29,-0.24,0.87,0.73,-12.76,3.48
2026-07-27 13:07:00.125,-0.25,-0.24,0.87,-9.4,-13.37,9.83
2026-07-27 13:07:00.127,-0.19,-0.27,0.9,-19.78,-9.28,17.76
2026-07-27 13:07:00.128,-0.19,-0.27,0.9,-19.78,-9.28,17.76
2026-07-27 13:07:00.244,-0.11,-0.32,0.92,-31.13,-9.89,26.12
2026-07-27 13:07:00.245,-0.11,-0.32,0.92,-31.13,-9.89,26.12
2026-07-27 13:07:00.246,-0.09,-0.39,0.93,-41.56,-17.7,26.06
2026-07-27 13:07:00.483,-0.09,-0.39,0.93,-41.32,-21.48,9.7
2026-07-27 13:07:00.503,-0.15,-0.44,0.97,-41.32,-21.48,9.7
2026-07-27 13:07:00.504,-0.16,-0.43,1.0,-30.52,-13.49,-12.33
2026-07-27 13:07:00.505,-0.16,-0.43,1.0,-30.52,-13.49,-12.33
2026-07-27 13:07:00.505,-0.07,-0.41,0.94,-17.46,-4.94,-20.02
2026-07-27 13:07:00.505,-0.07,-0.41,0.94,-17.46,-4.94,-20.02
2026-07-27 13:07:00.509,0.02,-0.49,0.8,-12.63,-13.73,1.04
2026-07-27 13:07:00.509,0.02,-0.49,0.8,-12.63,-13.73,1.04
2026-07-27 13:07:00.509,0.06,-0.63,0.7,-20.69,-30.46,36.13
2026-07-27 13:07:00.510,0.08,-0.66,0.71,-26.73,-30.58,48.22
2026-07-27 13:07:00.510,0.08,-0.66,0.71,-26.73,-30.58,48.22
2026-07-27 13:07:00.510,0.06,-0.59,0.74,-23.5,-20.26,35.77
2026-07-27 13:07:00.511,0.06,-0.59,0.74,-23.5,-20.26,35.77
2026-07-27 13:07:00.545,0.01,-0.5,0.74,-19.35,-18.43,24.72
2026-07-27 13:07:00.604,0.01,-0.5,0.74,-19.35,-18.43,24.72
2026-07-27 13:07:00.669,-0.03,-0.45,0.72,-14.53,-21.73,22.46
2026-07-27 13:07:00.669,-0.04,-0.43,0.74,-5.8,-21.0,25.94
2026-07-27 13:07:00.670,-0.04,-0.43,0.74,-5.8,-21.0,25.94
2026-07-27 13:07:00.670,-0.06,-0.43,0.79,5.92,-17.76,33.02
2026-07-27 13:07:00.670,-0.06,-0.43,0.79,5.92,-17.76,33.02
2026-07-27 13:07:00.723,-0.09,-0.44,0.84,16.11,-17.21,41.26
2026-07-27 13:07:00.724,-0.09,-0.44,0.84,16.11,-17.21,41.26
2026-07-27 13:07:00.724,-0.13,-0.43,0.87,20.08,-19.23,49.74
2026-07-27 13:07:00.784,-0.13,-0.43,0.87,20.08,-19.23,49.74
2026-07-27 13:07:00.785,-0.19,-0.4,0.88,20.02,-19.04,52.98
2026-07-27 13:07:00.843,-0.31,-0.39,0.89,13.49,-8.91,49.5
2026-07-27 13:07:00.844,-0.31,-0.39,0.89,13.49,-8.91,49.5
2026-07-27 13:07:00.844,-0.39,-0.44,0.96,-7.39,15.38,43.88
2026-07-27 13:07:00.906,-0.39,-0.44,0.96,-7.39,15.38,43.88
2026-07-27 13:07:00.906,-0.36,-0.46,1.02,-29.17,38.82,33.45
2026-07-27 13:07:00.906,-0.36,-0.46,1.02,-29.17,38.82,33.45
2026-07-27 13:07:00.964,-0.26,-0.42,1.0,-36.68,38.76,21.24
2026-07-27 13:07:00.964,-0.18,-0.41,0.92,-36.19,11.05,18.25
2026-07-27 13:07:00.965,-0.18,-0.41,0.92,-36.19,11.05,18.25
2026-07-27 13:07:01.028,-0.19,-0.44,0.83,-33.08,-21.67,18.98
2026-07-27 13:07:01.028,-0.19,-0.44,0.83,-33.08,-21.67,18.98
2026-07-27 13:07:01.083,-0.26,-0.46,0.79,-29.24,-27.34,9.7
2026-07-27 13:07:01.084,-0.26,-0.46,0.79,-29.24,-27.34,9.7
2026-07-27 13:07:01.084,-0.35,-0.46,0.83,-19.71,-1.53,-6.59
2026-07-27 13:07:01.145,-0.35,-0.46,0.83,-19.71,-1.53,-6.59
2026-07-27 13:07:01.146,-0.43,-0.44,0.9,4.03,32.78,-6.77
2026-07-27 13:07:01.204,-0.47,-0.39,0.92,36.19,41.99,16.66
2026-07-27 13:07:01.204,-0.47,-0.39,0.92,36.19,41.99,16.66
2026-07-27 13:07:01.204,-0.49,-0.34,0.89,55.6,16.85,33.02
2026-07-27 13:07:01.268,-0.49,-0.34,0.89,55.6,16.85,33.02
2026-07-27 13:07:01.324,-0.5,-0.3,0.83,44.62,-15.38,30.82
2026-07-27 13:07:01.324,-0.5,-0.3,0.83,44.62,-15.38,30.82
2026-07-27 13:07:01.324,-0.46,-0.28,0.77,11.78,-34.06,29.66
2026-07-27 13:07:01.325,-0.38,-0.32,0.73,-17.52,-34.42,32.23
2026-07-27 13:07:01.325,-0.38,-0.32,0.73,-17.52,-34.42,32.23
2026-07-27 13:07:01.384,-0.31,-0.4,0.74,-32.65,-20.81,31.07
2026-07-27 13:07:01.385,-0.31,-0.4,0.74,-32.65,-20.81,31.07
2026-07-27 13:07:01.444,-0.3,-0.51,0.8,-39.73,-4.64,23.56
2026-07-27 13:07:01.444,-0.3,-0.51,0.8,-39.73,-4.64,23.56
2026-07-27 13:07:01.445,-0.3,-0.59,0.86,-39.98,8.61,6.96
2026-07-27 13:07:01.509,-0.3,-0.59,0.86,-39.98,8.61,6.96
2026-07-27 13:07:01.509,-0.3,-0.59,0.86,-39.98,8.61,6.96
2026-07-27 13:07:01.510,-0.3,-0.59,0.86,-39.98,8.61,6.96
2026-07-27 13:07:01.567,-0.22,-0.66,0.86,-33.51,11.11,-30.46
2026-07-27 13:07:01.567,-0.22,-0.66,0.86,-33.51,11.11,-30.46
2026-07-27 13:07:01.569,-0.18,-0.75,0.75,-31.19,-4.82,-39.92
2026-07-27 13:07:01.640,-0.17,-0.95,0.62,-37.05,-17.64,-39.0
2026-07-27 13:07:01.640,-0.17,-0.95,0.62,-37.05,-17.64,-39.0
2026-07-27 13:07:01.686,-0.12,-0.94,0.56,-43.33,-12.08,-45.04
2026-07-27 13:07:01.686,-0.12,-0.94,0.56,-43.33,-12.08,-45.04
2026-07-27 13:07:01.687,-0.07,-0.66,0.55,-22.95,8.48,-70.37
2026-07-27 13:07:01.744,-0.07,-0.66,0.55,-22.95,8.48,-70.37
2026-07-27 13:07:01.744,-0.07,-0.44,0.54,-0.31,15.81,-80.81
2026-07-27 13:07:01.745,-0.07,-0.44,0.54,-0.85,5.0,-60.36
2026-07-27 13:07:01.809,-0.12,-0.4,0.55,-0.85,5.0,-60.36
2026-07-27 13:07:01.810,-0.18,-0.42,0.61,-1.83,4.09,-36.93
2026-07-27 13:07:01.931,-0.18,-0.42,0.61,-1.83,4.09,-36.93
2026-07-27 13:07:01.932,-0.18,-0.43,0.68,11.78,15.26,-21.85
2026-07-27 13:07:01.933,-0.18,-0.43,0.68,11.78,15.26,-21.85
2026-07-27 13:07:01.933,-0.12,-0.42,0.71,26.98,14.71,-0.43
2026-07-27 13:07:01.933,-0.12,-0.42,0.71,26.98,14.71,-0.43
2026-07-27 13:07:01.933,-0.1,-0.44,0.71,32.47,-4.27,30.64
2026-07-27 13:07:01.985,-0.1,-0.44,0.71,32.47,-4.27,30.64
2026-07-27 13:07:01.985,-0.1,-0.44,0.71,32.47,-4.27,30.64
2026-07-27 13:07:01.985,-0.1,-0.44,0.71,32.47,-4.27,30.64
2026-07-27 13:07:02.224,-0.37,-0.72,0.87,29.72,-35.95,72.08
2026-07-27 13:07:02.224,-0.37,-0.72,0.87,29.72,-35.95,72.08
2026-07-27 13:07:02.225,-0.37,-0.72,0.87,29.72,-35.95,72.08
2026-07-27 13:07:02.226,-0.37,-0.72,0.87,29.72,-35.95,72.08
2026-07-27 13:07:02.228,-0.45,-0.93,0.96,25.33,-18.86,54.75
2026-07-27 13:07:02.229,-0.36,-0.86,0.85,26.31,-3.23,29.72
2026-07-27 13:07:02.229,-0.36,-0.86,0.85,26.31,-3.23,29.72
2026-07-27 13:07:02.230,-0.28,-0.77,0.73,22.64,9.22,6.16
2026-07-27 13:07:02.404,-0.28,-0.77,0.73,22.64,9.22,6.16
2026-07-27 13:07:02.404,-0.22,-0.65,0.67,13.98,24.66,-20.14
2026-07-27 13:07:02.404,-0.22,-0.65,0.67,13.98,24.66,-20.14
2026-07-27 13:07:02.404,-0.21,-0.53,0.68,7.87,45.96,-55.79
2026-07-27 13:07:02.465,-0.24,-0.44,0.74,6.59,67.26,-95.7
2026-07-27 13:07:02.481,-0.24,-0.44,0.74,6.59,67.26,-95.7
2026-07-27 13:07:02.482,-0.31,-0.41,0.81,-1.46,84.29,-132.14
2026-07-27 13:07:02.482,-0.31,-0.41,0.81,-1.46,84.29,-132.14
2026-07-27 13:07:02.482,-0.39,-0.38,0.9,-20.2,98.69,-158.45
2026-07-27 13:07:02.482,-0.39,-0.38,0.9,-20.2,98.69,-158.45
2026-07-27 13:07:02.644,-0.47,-0.32,0.96,-21.24,105.96,-169.43
2026-07-27 13:07:02.644,-0.51,-0.24,0.96,9.52,99.3,-164.31
2026-07-27 13:07:02.644,-0.51,-0.24,0.96,9.52,99.3,-164.31
2026-07-27 13:07:02.646,-0.5,-0.2,0.91,43.52,80.57,-138.49
2026-07-27 13:07:02.646,-0.5,-0.2,0.91,43.52,80.57,-138.49
2026-07-27 13:07:02.646,-0.43,-0.22,0.85,54.44,55.66,-95.4
2026-07-27 13:07:02.647,-0.43,-0.22,0.85,54.44,55.66,-95.4
2026-07-27 13:07:02.649,-0.31,-0.29,0.85,51.27,39.92,-57.19
2026-07-27 13:07:02.765,-0.17,-0.35,0.95,73.24,56.64,-53.96
2026-07-27 13:07:02.765,-0.17,-0.35,0.95,73.24,56.64,-53.96
2026-07-27 13:07:02.765,-0.12,-0.28,1.03,139.59,104.31,-89.84
2026-07-27 13:07:02.766,-0.12,-0.28,1.03,139.59,104.31,-89.84
2026-07-27 13:07:02.766,-0.12,-0.13,1.0,193.12,131.1,-111.15
2026-07-27 13:07:02.767,-0.12,-0.13,1.0,193.12,131.1,-111.15
2026-07-27 13:07:02.767,-0.08,-0.1,0.93,162.6,96.07,-62.38
2026-07-27 13:07:02.767,0.03,-0.28,0.9,80.51,34.18,24.9
2026-07-27 13:07:02.824,0.03,-0.28,0.9,80.51,34.18,24.9
2026-07-27 13:07:02.824,0.14,-0.54,0.87,17.03,-4.94,86.24
2026-07-27 13:07:02.886,0.14,-0.54,0.87,17.03,-4.94,86.24
2026-07-27 13:07:02.892,0.1,-0.68,0.81,-27.59,-8.36,88.26
2026-07-27 13:07:02.893,0.1,-0.68,0.81,-27.59,-8.36,88.26
2026-07-27 13:07:02.893,-0.09,-0.57,0.79,-75.38,13.61,33.14
2026-07-27 13:07:03.004,-0.09,-0.57,0.79,-75.38,13.61,33.14
2026-07-27 13:07:03.005,-0.29,-0.46,0.84,-133.24,31.37,-15.5
2026-07-27 13:07:03.008,-0.44,-0.66,0.9,-194.15,25.82,-9.16
2026-07-27 13:07:03.014,-0.44,-0.66,0.9,-194.15,25.82,-9.16
2026-07-27 13:07:03.065,-0.5,-1.03,0.89,-233.34,-14.65,23.86
2026-07-27 13:07:03.126,-0.5,-1.03,0.89,-233.34,-14.65,23.86
2026-07-27 13:07:03.126,-0.37,-1.16,0.85,-227.36,-65.25,42.97
2026-07-27 13:07:03.126,-0.37,-1.16,0.85,-227.36,-65.25,42.97
2026-07-27 13:07:03.127,-0.24,-1.02,0.8,-168.52,-66.47,16.48
2026-07-27 13:07:03.127,-0.33,-0.85,0.68,-75.68,-26.0,-61.95
2026-07-27 13:07:03.187,-0.33,-0.85,0.68,-75.68,-26.0,-61.95
2026-07-27 13:07:03.188,-0.51,-0.69,0.49,6.9,15.75,-148.44
2026-07-27 13:07:03.188,-0.51,-0.69,0.49,6.9,15.75,-148.44
2026-07-27 13:07:03.244,-0.58,-0.47,0.35,52.98,56.4,-196.17
2026-07-27 13:07:03.245,-0.58,-0.47,0.35,52.98,56.4,-196.17
2026-07-27 13:07:03.304,-0.54,-0.25,0.31,63.96,89.42,-186.71
2026-07-27 13:07:03.304,-0.48,-0.13,0.33,45.59,93.2,-126.71
2026-07-27 13:07:03.364,-0.48,-0.13,0.33,45.59,93.2,-126.71
2026-07-27 13:07:03.365,-0.45,-0.19,0.37,14.77,78.19,-45.96
2026-07-27 13:07:03.365,-0.45,-0.19,0.37,14.77,78.19,-45.96
2026-07-27 13:07:03.424,-0.47,-0.35,0.44,-4.52,77.15,23.56
2026-07-27 13:07:03.425,-0.47,-0.35,0.44,-4.52,77.15,23.56
2026-07-27 13:07:03.425,-0.48,-0.53,0.53,-9.64,91.8,73.06
2026-07-27 13:07:03.605,-0.49,-0.7,0.59,-15.44,99.55,108.64
2026-07-27 13:07:03.605,-0.49,-0.7,0.59,-15.44,99.55,108.64
2026-07-27 13:07:03.606,-0.5,-0.87,0.64,-24.48,94.12,132.69
2026-07-27 13:07:03.606,-0.5,-0.87,0.64,-24.48,94.12,132.69
2026-07-27 13:07:03.607,-0.52,-1.05,0.68,-31.13,82.7,142.88
2026-07-27 13:07:03.607,-0.52,-1.05,0.68,-31.13,82.7,142.88
2026-07-27 13:07:03.607,-0.48,-1.16,0.71,-31.43,71.23,138.18
2026-07-27 13:07:03.607,-0.42,-1.2,0.73,-17.46,67.08,112.18
2026-07-27 13:07:03.664,-0.42,-1.2,0.73,-17.46,67.08,112.18
2026-07-27 13:07:03.665,-0.44,-1.17,0.74,13.0,75.13,58.59
2026-07-27 13:07:03.667,-0.44,-1.17,0.74,13.0,75.13,58.59
2026-07-27 13:07:04.023,-0.34,-1.04,0.75,48.95,89.17,2.62
2026-07-27 13:07:04.035,-0.34,-1.04,0.75,48.95,89.17,2.62
2026-07-27 13:07:04.039,-0.2,-0.86,0.74,70.92,82.34,-32.78
2026-07-27 13:07:04.039,-0.2,-0.86,0.74,70.92,82.34,-32.78
2026-07-27 13:07:04.039,-0.22,-0.79,0.69,60.67,27.53,-49.56
2026-07-27 13:07:04.040,-0.4,-0.87,0.63,18.8,-57.68,-50.42
2026-07-27 13:07:04.040,-0.4,-0.87,0.63,18.8,-57.68,-50.42
2026-07-27 13:07:04.040,-0.54,-0.97,0.64,-28.69,-125.37,-50.29
2026-07-27 13:07:04.041,-0.54,-0.97,0.64,-28.69,-125.37,-50.29
2026-07-27 13:07:04.041,-0.6,-0.98,0.67,-49.99,-149.72,-70.92
2026-07-27 13:07:04.041,-0.6,-0.98,0.67,-49.99,-149.72,-70.92
2026-07-27 13:07:04.042,-0.62,-0.9,0.67,-37.48,-139.71,-109.56
2026-07-27 13:07:04.042,-0.65,-0.78,0.63,-5.68,-112.3,-135.8
2026-07-27 13:07:04.042,-0.65,-0.78,0.63,-5.68,-112.3,-135.8
2026-07-27 13:07:04.043,-0.65,-0.63,0.54,24.23,-83.68,-127.99
2026-07-27 13:07:04.043,-0.65,-0.63,0.54,24.23,-83.68,-127.99
2026-07-27 13:07:04.144,-0.61,-0.5,0.44,31.62,-70.25,-97.41
2026-07-27 13:07:04.145,-0.61,-0.5,0.44,31.62,-70.25,-97.41
2026-07-27 13:07:04.145,-0.55,-0.41,0.34,19.29,-65.98,-70.01
2026-07-27 13:07:04.145,-0.53,-0.37,0.28,3.36,-50.29,-57.01
2026-07-27 13:07:04.146,-0.53,-0.37,0.28,3.36,-50.29,-57.01
2026-07-27 13:07:04.385,-0.6,-0.42,0.29,-11.41,-13.73,-52.0
2026-07-27 13:07:04.385,-0.6,-0.42,0.29,-11.41,-13.73,-52.0
2026-07-27 13:07:05.224,-0.73,-0.47,0.39,-16.97,46.75,-48.22
2026-07-27 13:07:05.225,-0.69,-0.42,0.56,-1.16,129.7,-43.21
2026-07-27 13:07:05.225,-0.69,-0.42,0.56,-1.16,129.7,-43.21
2026-07-27 13:07:05.225,-0.46,-0.34,0.73,30.03,202.88,-27.53
2026-07-27 13:07:05.225,-0.46,-0.34,0.73,30.03,202.88,-27.53
2026-07-27 13:07:05.225,-0.3,-0.46,0.73,47.36,210.51,12.08
2026-07-27 13:07:05.226,-0.3,-0.46,0.73,47.36,210.51,12.08
2026-07-27 13:07:05.227,-0.35,-0.76,0.63,20.02,150.76,65.12
2026-07-27 13:07:05.227,-0.35,-0.76,0.63,-23.68,98.94,93.2
2026-07-27 13:07:05.228,-0.46,-0.99,0.62,-23.68,98.94,93.2
2026-07-27 13:07:05.230,-0.43,-1.01,0.71,-17.15,111.82,77.94
2026-07-27 13:07:05.231,-0.43,-1.01,0.71,-17.15,111.82,77.94
2026-07-27 13:07:05.231,-0.29,-0.91,0.8,36.93,151.98,41.63
2026-07-27 13:07:05.231,-0.29,-0.91,0.8,36.93,151.98,41.63
2026-07-27 13:07:05.231,-0.2,-0.83,0.8,72.27,147.52,19.9
2026-07-27 13:07:05.231,-0.2,-0.83,0.8,72.27,147.52,19.9
2026-07-27 13:07:05.231,-0.2,-0.84,0.79,62.01,90.82,22.95
2026-07-27 13:07:05.232,-0.29,-0.86,0.86,58.53,26.25,35.4
2026-07-27 13:07:05.233,-0.29,-0.86,0.86,58.53,26.25,35.4
2026-07-27 13:07:05.233,-0.37,-0.79,1.03,116.7,-33.02,51.64
2026-07-27 13:07:05.235,-0.37,-0.79,1.03,116.7,-33.02,51.64
2026-07-27 13:07:05.235,-0.43,-0.65,1.24,197.2,-91.37,65.19
2026-07-27 13:07:05.235,-0.43,-0.65,1.24,197.2,-91.37,65.19
2026-07-27 13:07:05.240,-0.55,-0.5,1.38,235.53,-132.2,64.27
2026-07-27 13:07:05.241,-0.73,-0.37,1.34,237.3,-147.58,53.77
2026-07-27 13:07:05.241,-0.73,-0.37,1.34,237.3,-147.58,53.77
2026-07-27 13:07:05.241,-0.77,-0.2,1.11,221.74,-142.09,35.95
2026-07-27 13:07:05.242,-0.77,-0.2,1.11,221.74,-142.09,35.95
2026-07-27 13:07:05.242,-0.62,-0.01,0.65,194.27,-114.75,17.82
2026-07-27 13:07:05.242,-0.62,-0.01,0.65,194.27,-114.75,17.82
2026-07-27 13:07:05.242,-0.41,0.12,0.35,142.33,-59.69,17.27
2026-07-27 13:07:05.242,-0.41,0.12,0.35,142.33,-59.69,17.27
2026-07-27 13:07:05.243,-0.21,0.35,0.39,105.29,-8.67,22.4
2026-07-27 13:07:05.243,-0.12,0.53,0.51,119.51,6.04,15.81
2026-07-27 13:07:05.243,-0.12,0.53,0.51,119.51,6.04,15.81
2026-07-27 13:07:05.243,-0.21,0.51,0.64,127.2,6.16,4.82
2026-07-27 13:07:05.583,-0.21,0.51,0.64,127.2,6.16,4.82
2026-07-27 13:07:05.584,-0.3,0.52,0.74,89.11,13.49,8.91
2026-07-27 13:07:05.584,-0.3,0.52,0.74,89.11,13.49,8.91
2026-07-27 13:07:05.584,-0.27,0.63,0.78,38.09,24.72,38.88
2026-07-27 13:07:05.587,-0.27,0.63,0.78,38.09,24.72,38.88
2026-07-27 13:07:05.587,-0.22,0.66,0.7,12.57,33.08,73.85
2026-07-27 13:07:05.588,-0.15,0.62,0.58,5.0,38.64,90.76
2026-07-27 13:07:05.589,-0.15,0.62,0.58,5.0,38.64,90.76
2026-07-27 13:07:05.589,-0.08,0.67,0.56,-0.73,41.56,92.04
2026-07-27 13:07:05.589,-0.08,0.67,0.56,-0.73,41.56,92.04
2026-07-27 13:07:05.589,-0.02,0.75,0.64,-2.38,36.74,84.23
2026-07-27 13:07:05.590,-0.02,0.75,0.64,-2.38,36.74,84.23
2026-07-27 13:07:05.590,0.0,0.76,0.69,8.67,17.03,72.57
2026-07-27 13:07:05.590,0.0,0.76,0.69,22.71,-13.24,60.42
2026-07-27 13:07:05.764,0.03,0.68,0.6,22.71,-13.24,60.42
2026-07-27 13:07:05.765,0.08,0.57,0.44,11.6,-34.3,44.13
2026-07-27 13:07:05.765,0.08,0.57,0.44,11.6,-34.3,44.13
2026-07-27 13:07:05.765,0.1,0.44,0.47,-45.35,-33.02,21.06
2026-07-27 13:07:05.766,0.1,0.44,0.47,-45.35,-33.02,21.06
2026-07-27 13:07:05.766,0.01,0.32,0.65,-137.7,-16.91,-6.35
2026-07-27 13:07:05.767,0.01,0.32,0.65,-137.7,-16.91,-6.35
2026-07-27 13:07:05.767,-0.22,0.24,0.87,-224.49,22.34,-52.55
2026-07-27 13:07:05.767,-0.49,0.12,1.08,-277.89,85.69,-91.8
2026-07-27 13:07:05.768,-0.49,0.12,1.08,-277.89,85.69,-91.8
2026-07-27 13:07:05.769,-0.64,-0.1,1.15,-293.58,109.5,-48.03
2026-07-27 13:07:05.771,-0.64,-0.1,1.15,-293.58,109.5,-48.03
2026-07-27 13:07:05.772,-0.59,-0.35,1.07,-271.0,54.5,45.96
2026-07-27 13:07:05.772,-0.59,-0.35,1.07,-271.0,54.5,45.96
2026-07-27 13:07:05.772,-0.49,-0.4,0.97,-200.32,-1.65,54.93
2026-07-27 13:07:05.773,-0.43,-0.25,0.93,-96.56,1.22,-37.9
2026-07-27 13:07:05.773,-0.43,-0.25,0.93,-96.56,1.22,-37.9
2026-07-27 13:07:05.773,-0.41,-0.11,0.91,-20.14,20.2,-105.22
2026-07-27 13:07:05.773,-0.41,-0.11,0.91,-20.14,20.2,-105.22
2026-07-27 13:07:06.664,-0.38,-0.18,0.88,-3.72,15.99,-74.4
2026-07-27 13:07:06.664,-0.38,-0.18,0.88,-3.72,15.99,-74.4
2026-07-27 13:07:06.664,-0.33,-0.33,0.86,-20.87,-0.18,-2.26
2026-07-27 13:07:06.665,-0.33,-0.33,0.86,-20.87,-0.18,-2.26
2026-07-27 13:07:06.665,-0.3,-0.4,0.85,-28.99,-6.84,33.2
2026-07-27 13:07:06.665,-0.31,-0.37,0.83,-11.9,-5.19,25.88
2026-07-27 13:07:06.666,-0.31,-0.37,0.83,-11.9,-5.19,25.88
2026-07-27 13:07:06.666,-0.35,-0.34,0.8,10.99,-5.49,12.15
2026-07-27 13:07:06.667,-0.35,-0.34,0.8,10.99,-5.49,12.15
2026-07-27 13:07:06.667,-0.38,-0.36,0.79,16.3,-2.2,9.89
2026-07-27 13:07:06.785,-0.38,-0.36,0.79,16.3,-2.2,9.89
2026-07-27 13:07:06.786,-0.35,-0.35,0.78,11.78,12.57,9.28
2026-07-27 13:07:06.786,-0.35,-0.35,0.78,11.78,12.57,9.28
2026-07-27 13:07:06.786,-0.32,-0.32,0.78,10.19,34.42,-3.54
2026-07-27 13:07:06.787,-0.34,-0.31,0.85,10.44,58.59,-21.61
2026-07-27 13:07:06.787,-0.34,-0.31,0.85,10.44,58.59,-21.61
2026-07-27 13:07:06.851,-0.33,-0.35,1.03,1.04,78.25,-24.23
2026-07-27 13:07:06.853,-0.33,-0.35,1.03,1.04,78.25,-24.23
2026-07-27 13:07:06.861,-0.26,-0.44,1.22,-20.87,72.69,-8.91
2026-07-27 13:07:06.861,-0.26,-0.48,1.26,-33.02,30.4,-1.4
2026-07-27 13:07:06.863,-0.26,-0.48,1.26,-33.02,30.4,-1.4
2026-07-27 13:07:06.863,-0.33,-0.42,1.16,-21.48,-29.17,-15.99
2026-07-27 13:07:06.866,-0.33,-0.42,1.16,-21.48,-29.17,-15.99
2026-07-27 13:07:06.866,-0.34,-0.34,1.03,-6.53,-80.32,-23.25
2026-07-27 13:07:06.866,-0.34,-0.34,1.03,-6.53,-80.32,-23.25
2026-07-27 13:07:06.866,-0.23,-0.3,0.91,-4.46,-113.89,-4.46
2026-07-27 13:07:06.866,-0.23,-0.3,0.91,-4.46,-113.89,-4.46
2026-07-27 13:07:06.867,-0.05,-0.27,0.86,-6.65,-128.11,16.72
2026-07-27 13:07:06.867,-0.05,-0.27,0.86,-6.65,-128.11,16.72
2026-07-27 13:07:06.867,0.09,-0.27,0.9,-6.16,-122.01,24.05
2026-07-27 13:07:06.868,0.12,-0.31,0.95,-3.48,-101.56,19.1
2026-07-27 13:07:06.868,0.12,-0.31,0.95,-3.48,-101.56,19.1
2026-07-27 13:07:06.868,0.04,-0.34,0.98,-1.28,-85.21,4.46
2026-07-27 13:07:06.868,0.04,-0.34,0.98,-1.28,-85.21,4.46
2026-07-27 13:07:06.869,-0.1,-0.35,0.95,-2.99,-86.67,-12.15
2026-07-27 13:07:06.869,-0.1,-0.35,0.95,-2.99,-86.67,-12.15
2026-07-27 13:07:06.869,-0.24,-0.35,0.88,-8.36,-93.75,-23.56
2026-07-27 13:07:06.869,-0.24,-0.35,0.88,-8.36,-93.75,-23.56
2026-07-27 13:07:06.869,-0.34,-0.36,0.81,-19.17,-87.22,-28.63
2026-07-27 13:07:06.869,-0.34,-0.36,0.81,-37.6,-60.49,-32.23
2026-07-27 13:07:06.869,-0.39,-0.36,0.74,-37.6,-60.49,-32.23
2026-07-27 13:07:06.869,-0.41,-0.34,0.64,-56.52,-14.89,-39.61
2026-07-27 13:07:06.869,-0.41,-0.34,0.64,-56.52,-14.89,-39.61
2026-07-27 13:07:06.870,-0.41,-0.33,0.54,-63.9,42.18,-40.47
2026-07-27 13:07:06.870,-0.41,-0.33,0.54,-63.9,42.18,-40.47
2026-07-27 13:07:06.872,-0.48,-0.41,0.47,-55.18,104.55,-14.65
2026-07-27 13:07:06.872,-0.48,-0.41,0.47,-55.18,104.55,-14.65
2026-07-27 13:07:06.873,-0.58,-0.55,0.53,-33.08,178.65,39.86
2026-07-27 13:07:06.903,-0.57,-0.67,0.7,-9.34,242.74,101.68
2026-07-27 13:07:06.904,-0.57,-0.67,0.7,-9.34,242.74,101.68
2026-07-27 13:07:06.904,-0.53,-0.81,0.82,-27.04,260.13,149.96
2026-07-27 13:07:07.025,-0.53,-0.81,0.82,-27.04,260.13,149.96
2026-07-27 13:07:07.025,-0.68,-1.02,0.76,-117.49,245.48,179.32
2026-07-27 13:07:07.025,-0.68,-1.02,0.76,-162.78,224.12,151.79
2026-07-27 13:07:07.025,-0.81,-1.08,0.62,-162.78,224.12,151.79
2026-07-27 13:07:07.025,-0.77,-0.8,0.55,-37.6,213.13,43.52
2026-07-27 13:07:07.084,-0.77,-0.8,0.55,-37.6,213.13,43.52
2026-07-27 13:07:07.505,-0.71,-0.44,0.52,141.42,188.29,-62.87
2026-07-27 13:07:07.506,-0.71,-0.44,0.52,141.42,188.29,-62.87
2026-07-27 13:07:07.506,-0.67,-0.25,0.49,210.82,116.33,-91.06
2026-07-27 13:07:07.744,-0.64,-0.25,0.48,170.29,38.33,-67.2
2026-07-27 13:07:07.745,-0.64,-0.25,0.48,170.29,38.33,-67.2
2026-07-27 13:07:07.923,-0.63,-0.31,0.5,101.14,-2.01,-45.23
2026-07-27 13:07:07.924,-0.63,-0.31,0.5,101.14,-2.01,-45.23
2026-07-27 13:07:07.924,-0.63,-0.38,0.51,56.7,-10.31,-33.75
2026-07-27 13:07:07.924,-0.63,-0.38,0.51,56.7,-10.31,-33.75
2026-07-27 13:07:07.924,-0.66,-0.46,0.52,34.73,-8.61,-17.09
2026-07-27 13:07:07.926,-0.66,-0.46,0.52,34.73,-8.61,-17.09
2026-07-27 13:07:07.926,-0.69,-0.57,0.5,16.42,-11.41,6.71
2026-07-27 13:07:07.927,-0.72,-0.69,0.48,-3.36,-26.0,30.46
2026-07-27 13:07:07.928,-0.72,-0.69,0.48,-3.36,-26.0,30.46
2026-07-27 13:07:07.928,-0.74,-0.78,0.5,-18.49,-41.14,43.7
2026-07-27 13:07:07.929,-0.74,-0.78,0.5,-18.49,-41.14,43.7
2026-07-27 13:07:07.929,-0.76,-0.75,0.56,-9.89,-34.73,37.23
2026-07-27 13:07:07.930,-0.76,-0.75,0.56,-9.89,-34.73,37.23
2026-07-27 13:07:07.930,-0.73,-0.59,0.62,22.28,-10.31,12.15
2026-07-27 13:07:07.931,-0.73,-0.59,0.62,22.28,-10.31,12.15
2026-07-27 13:07:07.932,-0.66,-0.43,0.64,38.82,-4.82,-12.33
2026-07-27 13:07:07.932,-0.61,-0.42,0.69,18.07,-35.4,-17.94
2026-07-27 13:07:07.933,-0.61,-0.42,0.69,18.07,-35.4,-17.94
2026-07-27 13:07:07.933,-0.58,-0.63,0.91,-6.47,-86.06,-22.28
2026-07-27 13:07:07.935,-0.58,-0.63,0.91,-6.47,-86.06,-22.28
2026-07-27 13:07:07.935,-0.55,-0.75,1.18,29.17,-133.91,-63.84
2026-07-27 13:07:07.935,-0.55,-0.75,1.18,29.17,-133.91,-63.84
2026-07-27 13:07:07.936,-0.5,-0.58,1.31,125.98,-149.78,-124.82
2026-07-27 13:07:07.936,-0.46,-0.35,1.33,198.49,-140.69,-142.82
2026-07-27 13:07:07.937,-0.46,-0.35,1.33,198.49,-140.69,-142.82
2026-07-27 13:07:07.938,-0.44,-0.23,1.24,189.58,-144.41,-106.02
2026-07-27 13:07:07.938,-0.44,-0.23,1.24,189.58,-144.41,-106.02
2026-07-27 13:07:07.938,-0.42,-0.21,1.04,133.85,-160.22,-54.57
2026-07-27 13:07:07.939,-0.42,-0.21,1.04,133.85,-160.22,-54.57
2026-07-27 13:07:07.940,-0.38,-0.24,0.75,78.74,-171.81,-20.2
2026-07-27 13:07:07.940,-0.38,-0.24,0.75,78.74,-171.81,-20.2
2026-07-27 13:07:07.941,-0.28,-0.27,0.46,30.82,-170.41,-14.4
2026-07-27 13:07:07.942,-0.18,-0.29,0.19,1.34,-137.82,-43.7
2026-07-27 13:07:07.942,-0.18,-0.29,0.19,1.34,-137.82,-43.7
2026-07-27 13:07:07.943,-0.2,-0.35,0.13,-20.08,-64.82,-94.91
2026-07-27 13:07:08.104,-0.2,-0.35,0.13,-20.08,-64.82,-94.91
2026-07-27 13:07:08.105,-0.22,-0.46,0.5,-48.22,0.92,-131.65
2026-07-27 13:07:08.105,-0.22,-0.46,0.5,-48.22,0.92,-131.65
2026-07-27 13:07:08.105,-0.13,-0.5,1.03,-59.88,33.26,-123.9
2026-07-27 13:07:09.185,0.01,-0.41,1.42,-54.02,66.77,-80.38
2026-07-27 13:07:09.186,0.01,-0.41,1.42,-54.02,66.77,-80.38
2026-07-27 13:07:09.187,0.14,-0.26,1.39,-29.85,95.4,-25.94
2026-07-27 13:07:09.187,0.14,-0.26,1.39,-29.85,95.4,-25.94
2026-07-27 13:07:09.187,0.21,-0.14,1.02,27.34,81.48,29.97
2026-07-27 13:07:09.243,0.21,-0.14,1.02,27.34,81.48,29.97
2026-07-27 13:07:09.244,0.21,-0.14,1.02,27.34,81.48,29.97
2026-07-27 13:07:09.244,0.21,-0.14,1.02,27.34,81.48,29.97
2026-07-27 13:07:09.244,0.15,-0.2,0.78,58.59,-9.28,80.32
2026-07-27 13:07:09.244,0.15,-0.2,0.78,58.59,-9.28,80.32
2026-07-27 13:07:09.246,0.15,-0.2,0.78,58.59,-9.28,80.32
2026-07-27 13:07:09.246,0.15,-0.2,0.78,58.59,-9.28,80.32
2026-07-27 13:07:09.247,0.01,-0.15,0.8,22.34,-8.42,37.41
2026-07-27 13:07:09.247,0.01,-0.15,0.8,25.02,-10.25,38.51
2026-07-27 13:07:09.248,-0.05,-0.07,0.61,25.02,-10.25,38.51
2026-07-27 13:07:09.248,-0.11,-0.14,0.41,0.06,-4.82,61.71
2026-07-27 13:07:09.249,-0.11,-0.14,0.41,0.06,-4.82,61.71
2026-07-27 13:07:09.250,-0.21,-0.25,0.37,-34.3,39.55,72.88
2026-07-27 13:07:09.250,-0.21,-0.25,0.37,-34.3,39.55,72.88
2026-07-27 13:07:09.250,-0.35,-0.29,0.67,-50.11,113.59,59.88
2026-07-27 13:07:09.252,-0.35,-0.29,0.67,-50.11,113.59,59.88
2026-07-27 13:07:09.252,-0.43,-0.21,1.21,-44.25,170.29,37.72
2026-07-27 13:07:09.306,-0.43,-0.21,1.21,-44.25,170.29,37.72
2026-07-27 13:07:09.307,-0.43,-0.21,1.21,-44.25,170.29,37.72
2026-07-27 13:07:09.307,-0.43,-0.21,1.21,-44.25,170.29,37.72
2026-07-27 13:07:09.307,-0.39,0.25,1.89,38.94,173.22,73.0
2026-07-27 13:07:09.307,-0.39,0.25,1.89,76.9,139.89,148.62
2026-07-27 13:07:09.308,-0.17,0.09,1.86,76.9,139.89,148.62
2026-07-27 13:07:09.484,0.01,-0.3,1.51,105.65,46.51,179.57
2026-07-27 13:07:09.484,0.01,-0.3,1.51,105.65,46.51,179.57
2026-07-27 13:07:09.484,-0.03,-0.18,1.04,106.87,-49.13,109.92
2026-07-27 13:07:09.484,-0.03,-0.18,1.04,106.87,-49.13,109.92
2026-07-27 13:07:09.485,-0.19,0.14,0.67,23.5,-84.9,33.39
2026-07-27 13:07:09.486,-0.19,0.14,0.67,23.5,-84.9,33.39
2026-07-27 13:07:09.486,-0.37,0.26,0.53,-74.65,-84.53,1.22
2026-07-27 13:07:09.487,-0.37,0.26,0.53,-84.84,-82.82,-8.36
2026-07-27 13:07:09.488,-0.41,0.25,0.61,-84.84,-82.82,-8.36
2026-07-27 13:07:09.488,-0.27,0.26,0.85,-42.66,-70.5,-9.77
2026-07-27 13:07:09.489,-0.27,0.26,0.85,-42.66,-70.5,-9.77
2026-07-27 13:07:09.489,-0.24,0.28,1.04,-13.49,-39.12,-5.25
2026-07-27 13:07:09.490,-0.24,0.28,1.04,-13.49,-39.12,-5.25
2026-07-27 13:07:09.490,-0.35,0.28,1.04,-14.16,-16.91,14.16
2026-07-27 13:07:09.491,-0.35,0.28,1.04,-14.16,-16.91,14.16
2026-07-27 13:07:09.491,-0.41,0.23,0.79,-24.23,-1.34,24.66
2026-07-27 13:07:09.492,-0.41,0.23,0.79,-24.23,-1.34,24.66
2026-07-27 13:07:09.492,-0.45,0.07,0.56,-37.78,44.8,-0.06
2026-07-27 13:07:09.493,-0.45,0.07,0.56,-68.6,114.32,-36.13
2026-07-27 13:07:09.493,-0.45,-0.06,0.66,-68.6,114.32,-36.13
2026-07-27 13:07:09.494,-0.34,-0.07,0.89,-100.95,140.26,-28.08
2026-07-27 13:07:09.494,-0.34,-0.07,0.89,-100.95,140.26,-28.08
2026-07-27 13:07:09.495,-0.24,-0.15,0.98,-142.09,99.06,-2.87
2026-07-27 13:07:09.496,-0.24,-0.15,0.98,-142.09,99.06,-2.87
2026-07-27 13:07:09.496,-0.3,-0.41,0.86,-204.83,70.62,-38.02
2026-07-27 13:07:09.497,-0.3,-0.41,0.86,-204.83,70.62,-38.02
2026-07-27 13:07:09.498,-0.4,-0.64,0.65,-221.13,61.71,-97.41
2026-07-27 13:07:09.498,-0.47,-0.65,0.53,-118.84,28.81,-108.89
2026-07-27 13:07:09.499,-0.47,-0.65,0.53,-118.84,28.81,-108.89
2026-07-27 13:07:09.499,-0.58,-0.64,0.77,31.56,-1.77,-52.73
2026-07-27 13:07:09.500,-0.58,-0.64,0.77,31.56,-1.77,-52.73
2026-07-27 13:07:09.501,-0.6,-0.67,1.19,112.18,-22.77,31.01
2026-07-27 13:07:09.501,-0.6,-0.67,1.19,112.18,-22.77,31.01
2026-07-27 13:07:09.502,-0.47,-0.65,1.26,88.2,-29.6,83.31
2026-07-27 13:07:09.505,-0.42,-0.56,0.87,-2.69,-28.99,73.67
2026-07-27 13:07:09.505,-0.42,-0.56,0.87,-2.69,-28.99,73.67
2026-07-27 13:07:09.505,-0.46,-0.5,0.5,-82.21,-35.34,29.05
2026-07-27 13:07:09.506,-0.46,-0.5,0.5,-82.21,-35.34,29.05
2026-07-27 13:07:09.785,-0.51,-0.53,0.55,-87.71,-23.07,6.59
2026-07-27 13:07:09.785,-0.51,-0.53,0.55,-87.71,-23.07,6.59
2026-07-27 13:07:09.785,-0.54,-0.51,0.78,-44.25,7.26,4.03
2026-07-27 13:07:09.786,-0.57,-0.4,0.71,-13.43,20.57,-1.71
2026-07-27 13:07:09.786,-0.57,-0.4,0.71,-13.43,20.57,-1.71
2026-07-27 13:07:09.786,-0.62,-0.25,0.45,0.85,19.35,-5.0
2026-07-27 13:07:09.787,-0.62,-0.25,0.45,0.85,19.35,-5.0
2026-07-27 13:07:09.788,-0.64,-0.24,0.36,-5.62,14.47,11.9
2026-07-27 13:07:09.788,-0.64,-0.24,0.36,-5.62,14.47,11.9
2026-07-27 13:07:09.788,-0.59,-0.39,0.48,-36.68,13.92,26.49
2026-07-27 13:07:09.789,-0.59,-0.39,0.48,-36.68,13.92,26.49
2026-07-27 13:07:09.789,-0.47,-0.49,0.57,-72.94,17.33,0.73
2026-07-27 13:07:09.969,-0.42,-0.61,0.59,-139.77,15.5,-31.19
2026-07-27 13:07:10.033,-0.42,-0.61,0.59,-139.77,15.5,-31.19
2026-07-27 13:07:10.033,-0.44,-0.79,0.59,-191.89,0.85,-13.92
2026-07-27 13:07:10.034,-0.44,-0.79,0.59,-191.89,0.85,-13.92
2026-07-27 13:07:10.155,-0.39,-0.87,0.54,-111.27,-28.81,26.86
2026-07-27 13:07:10.865,-0.39,-0.87,0.54,-111.27,-28.81,26.86
2026-07-27 13:07:10.865,-0.32,-0.88,0.47,26.61,-36.74,29.6
2026-07-27 13:07:10.866,-0.32,-0.88,0.47,77.76,-17.94,-5.98
2026-07-27 13:07:10.866,-0.26,-0.87,0.45,77.76,-17.94,-5.98
2026-07-27 13:07:10.866,-0.31,-0.81,0.52,34.79,-4.39,-42.42
2026-07-27 13:07:10.867,-0.31,-0.81,0.52,34.79,-4.39,-42.42
2026-07-27 13:07:10.867,-0.63,-0.84,0.56,-42.85,4.94,-71.29
2026-07-27 13:07:10.867,-0.63,-0.84,0.56,-42.85,4.94,-71.29
2026-07-27 13:07:10.867,-0.94,-0.94,0.4,-69.89,16.48,-84.23
2026-07-27 13:07:10.869,-0.94,-0.94,0.4,-69.89,16.48,-84.23
2026-07-27 13:07:10.871,-0.86,-0.82,0.26,-31.62,-25.02,-60.18
2026-07-27 13:07:10.871,-0.51,-0.54,0.41,12.15,-112.55,-23.68
2026-07-27 13:07:10.985,-0.51,-0.54,0.41,12.15,-112.55,-23.68
2026-07-27 13:07:10.985,-0.28,-0.39,0.61,32.23,-145.94,-0.18
2026-07-27 13:07:10.986,-0.28,-0.39,0.61,32.23,-145.94,-0.18
2026-07-27 13:07:10.986,-0.23,-0.5,0.6,28.63,-116.46,18.92
2026-07-27 13:07:10.986,-0.28,-0.73,0.53,14.53,-54.2,18.55
2026-07-27 13:07:10.986,-0.28,-0.73,0.53,14.53,-54.2,18.55
2026-07-27 13:07:10.987,-0.36,-0.85,0.53,-8.79,19.29,-15.75
2026-07-27 13:07:10.987,-0.36,-0.85,0.53,-8.79,19.29,-15.75
2026-07-27 13:07:10.987,-0.35,-0.82,0.57,-38.64,43.95,-43.82
2026-07-27 13:07:11.284,-0.35,-0.82,0.57,-38.64,43.95,-43.82
2026-07-27 13:07:11.285,-0.23,-0.78,0.51,-58.53,13.18,-34.73
2026-07-27 13:07:11.285,-0.23,-0.78,0.51,-58.53,13.18,-34.73
2026-07-27 13:07:11.286,-0.11,-0.78,0.46,-44.56,-6.47,-22.34
2026-07-27 13:07:11.286,-0.08,-0.81,0.4,17.03,35.03,-38.09
2026-07-27 13:07:11.286,-0.08,-0.81,0.4,17.03,35.03,-38.09
2026-07-27 13:07:11.286,-0.16,-0.81,0.37,87.1,87.77,-29.17
2026-07-27 13:07:11.706,-0.16,-0.81,0.37,87.1,87.77,-29.17
2026-07-27 13:07:11.707,-0.25,-0.74,0.48,117.13,95.95,21.91
2026-07-27 13:07:11.708,-0.25,-0.74,0.48,117.13,95.95,21.91
2026-07-27 13:07:11.708,-0.25,-0.73,0.6,95.34,75.5,49.74
2026-07-27 13:07:11.708,-0.25,-0.73,0.6,95.34,75.5,49.74
2026-07-27 13:07:11.708,-0.22,-0.77,0.59,39.61,48.4,44.92
2026-07-27 13:07:11.709,-0.28,-0.93,0.49,-83.5,0.73,48.46
2026-07-27 13:07:11.710,-0.28,-0.93,0.49,-83.5,0.73,48.46
2026-07-27 13:07:11.710,-0.37,-1.19,0.35,-288.64,-69.4,86.79
2026-07-27 13:07:11.711,-0.37,-1.19,0.35,-288.64,-69.4,86.79
2026-07-27 13:07:11.711,-0.38,-1.18,0.15,-378.66,-79.77,106.08
2026-07-27 13:07:11.711,-0.38,-1.18,0.15,-378.66,-79.77,106.08
2026-07-27 13:07:11.712,-0.43,-0.9,-0.0,-282.47,-23.8,57.68
2026-07-27 13:07:11.712,-0.43,-0.9,-0.0,-282.47,-23.8,57.68
2026-07-27 13:07:11.714,-0.57,-0.68,-0.2,-214.42,11.66,-11.96
2026-07-27 13:07:11.714,-0.6,-0.8,-0.33,-288.02,27.89,-55.3
2026-07-27 13:07:11.714,-0.6,-0.8,-0.33,-288.02,27.89,-55.3
2026-07-27 13:07:11.714,-0.45,-0.91,-0.32,-291.2,81.79,-64.7
2026-07-27 13:07:11.714,-0.45,-0.91,-0.32,-291.2,81.79,-64.7
2026-07-27 13:07:11.715,-0.34,-0.7,-0.33,-131.53,128.72,-45.84
2026-07-27 13:07:11.715,-0.34,-0.7,-0.33,-131.53,128.72,-45.84
2026-07-27 13:07:11.716,-0.31,-0.56,-0.35,-1.65,111.63,-14.22
2026-07-27 13:07:11.716,-0.33,-0.57,-0.37,38.7,64.51,29.11
2026-07-27 13:07:11.718,-0.33,-0.57,-0.37,38.7,64.51,29.11
2026-07-27 13:07:11.718,-0.38,-0.62,-0.38,25.82,39.49,99.85
2026-07-27 13:07:11.718,-0.38,-0.62,-0.38,25.82,39.49,99.85
2026-07-27 13:07:11.718,-0.36,-0.63,-0.49,14.47,47.73,174.87
2026-07-27 13:07:11.719,-0.36,-0.63,-0.49,14.47,47.73,174.87
2026-07-27 13:07:11.721,-0.29,-0.62,-0.73,53.59,23.25,181.34
2026-07-27 13:07:11.721,-0.29,-0.62,-0.73,53.59,23.25,181.34
2026-07-27 13:07:11.721,-0.27,-0.72,-0.89,75.87,-45.96,99.12
2026-07-27 13:07:11.722,-0.32,-0.89,-0.84,62.13,-70.86,16.11
2026-07-27 13:07:11.722,-0.32,-0.89,-0.84,62.13,-70.86,16.11
2026-07-27 13:07:11.723,-0.38,-0.93,-0.51,116.39,-12.15,22.4
2026-07-27 13:07:11.723,-0.38,-0.93,-0.51,116.39,-12.15,22.4
2026-07-27 13:07:11.724,-0.77,-0.61,-0.25,160.89,101.07,151.12
2026-07-27 13:07:11.724,-0.77,-0.61,-0.25,160.89,101.07,151.12
2026-07-27 13:07:11.724,-1.09,-0.09,-0.3,21.0,166.14,265.5
2026-07-27 13:07:11.726,-0.92,0.15,-0.41,-203.92,89.36,207.7
2026-07-27 13:07:11.727,-0.92,0.15,-0.41,-203.92,89.36,207.7
2026-07-27 13:07:11.727,-0.86,0.05,-0.42,-320.19,-46.45,69.64
2026-07-27 13:07:11.728,-0.86,0.05,-0.42,-320.19,-46.45,69.64
2026-07-27 13:07:11.729,-0.95,-0.05,-0.33,-266.97,-115.66,-10.3
2026-07-27 13:07:11.729,-0.95,-0.05,-0.33,-266.97,-115.66,-10.3
2026-07-27 13:07:11.730,-1.01,0.03,-0.29,-130.31,-106.69,-2.08
2026-07-27 13:07:11.730,-1.01,0.03,-0.29,-130.31,-106.69,-2.08
2026-07-27 13:07:11.884,-0.97,0.09,-0.45,-36.07,-78.37,68.48
2026-07-27 13:07:11.884,-0.9,0.08,-0.49,26.37,-65.25,162.23
2026-07-27 13:07:11.885,-0.9,0.08,-0.49,26.37,-65.25,162.23
2026-07-27 13:07:12.304,-0.82,0.05,-0.34,72.75,-50.96,223.14
2026-07-27 13:07:12.304,-0.82,0.05,-0.34,72.75,-50.96,223.14
2026-07-27 13:07:12.304,-0.76,0.07,-0.32,94.06,-26.55,197.33
2026-07-27 13:07:12.728,-0.76,0.07,-0.32,94.06,-26.55,197.33
2026-07-27 13:07:12.729,-0.79,0.22,-0.3,108.83,-47.36,115.6
2026-07-27 13:07:13.023,-0.83,0.36,-0.15,76.78,-131.65,47.3
2026-07-27 13:07:13.024,-0.83,0.36,-0.15,76.78,-131.65,47.3
2026-07-27 13:07:13.024,-0.96,0.32,-0.07,-6.9,-185.0,3.91
2026-07-27 13:07:13.025,-0.96,0.32,-0.07,-6.9,-185.0,3.91
2026-07-27 13:07:13.087,-1.12,0.3,-0.14,-40.16,-160.77,-18.92
2026-07-27 13:07:13.088,-1.12,0.3,-0.14,-40.16,-160.77,-18.92
2026-07-27 13:07:13.088,-1.11,0.36,-0.29,-0.73,-114.26,-16.91
2026-07-27 13:07:13.088,-1.03,0.33,-0.4,35.95,-73.12,-4.82
2026-07-27 13:07:13.756,-1.03,0.33,-0.4,35.95,-73.12,-4.82
2026-07-27 13:07:13.760,-1.02,0.21,-0.41,43.95,-16.3,4.52
2026-07-27 13:07:14.104,-1.02,0.21,-0.41,43.95,-16.3,4.52
2026-07-27 13:07:14.106,-1.12,0.23,-0.32,64.09,42.36,-0.55
2026-07-27 13:07:14.106,-1.12,0.23,-0.32,64.09,42.36,-0.55
2026-07-27 13:07:14.107,-1.32,0.37,-0.2,97.23,66.22,-13.43
2026-07-27 13:07:14.107,-1.32,0.37,-0.2,97.23,66.22,-13.43
2026-07-27 13:07:14.107,-1.36,0.43,-0.1,112.12,63.35,-15.81
2026-07-27 13:07:15.551,-1.15,0.41,-0.11,95.52,74.46,22.89
2026-07-27 13:07:15.552,-1.15,0.41,-0.11,95.52,74.46,22.89
2026-07-27 13:07:15.664,-0.87,0.42,-0.12,93.99,98.94,99.73
2026-07-27 13:07:15.665,-0.87,0.42,-0.12,93.99,98.94,99.73
2026-07-27 13:07:15.665,-0.62,0.42,-0.07,124.15,100.22,125.55
2026-07-27 13:07:16.390,-0.62,0.42,-0.07,67.93,81.54,16.66
2026-07-27 13:07:16.390,-0.61,0.31,-0.05,67.93,81.54,16.66
2026-07-27 13:07:16.390,-0.81,0.27,-0.08,-73.67,66.65,-190.43
2026-07-27 13:07:16.391,-0.81,0.27,-0.08,-73.67,66.65,-190.43
2026-07-27 13:07:16.391,-0.79,0.39,-0.17,-121.77,26.67,-273.99
2026-07-27 13:07:16.391,-0.79,0.39,-0.17,-121.77,26.67,-273.99
2026-07-27 13:07:16.391,-0.66,0.42,-0.22,-74.77,-17.7,-144.96
2026-07-27 13:07:16.391,-0.66,0.42,-0.22,-74.77,-17.7,-144.96
2026-07-27 13:07:16.391,-0.6,0.31,-0.21,-49.32,-36.62,18.86
2026-07-27 13:07:16.392,-0.6,0.31,-0.21,-56.34,-71.84,110.11
2026-07-27 13:07:16.392,-0.63,0.23,-0.27,-56.34,-71.84,110.11
2026-07-27 13:07:16.392,-0.83,0.3,-0.47,-61.22,-113.16,148.01
2026-07-27 13:07:17.234,-0.83,0.3,-0.47,-61.22,-113.16,148.01
2026-07-27 13:07:17.236,-0.98,0.36,-0.74,46.69,-54.99,113.95
2026-07-27 13:07:17.236,-0.98,0.36,-0.74,46.69,-54.99,113.95
2026-07-27 13:07:17.236,-0.74,0.22,-0.64,153.81,26.06,48.46
2026-07-27 13:07:17.237,-0.74,0.22,-0.64,153.81,26.06,48.46
2026-07-27 13:07:17.237,-0.33,0.02,-0.12,24.05,3.6,50.05
2026-07-27 13:07:17.238,-0.33,0.02,-0.12,-134.83,-41.63,38.7
2026-07-27 13:07:17.238,-0.56,0.23,-0.0,-134.83,-41.63,38.7
2026-07-27 13:07:17.238,-1.45,0.75,-0.22,34.61,-57.01,-91.8
2026-07-27 13:07:17.238,-1.45,0.75,-0.22,34.61,-57.01,-91.8
2026-07-27 13:07:17.883,-1.68,0.73,-0.12,194.09,-22.89,-162.54
2026-07-27 13:07:17.884,-1.68,0.73,-0.12,194.09,-22.89,-162.54
2026-07-27 13:07:17.884,-1.14,0.35,-0.05,32.71,14.83,-78.12
2026-07-27 13:07:17.885,-1.14,0.35,-0.05,32.71,14.83,-78.12
2026-07-27 13:07:17.885,-0.82,0.22,-0.1,-137.7,-13.73,7.26
2026-07-27 13:07:17.886,-0.82,0.3,-0.05,-129.64,-39.92,31.07
2026-07-27 13:07:17.886,-0.82,0.3,-0.05,-129.64,-39.92,31.07
2026-07-27 13:07:17.886,-0.94,0.41,-0.07,-50.96,-28.44,15.32
2026-07-27 13:07:17.887,-0.94,0.41,-0.07,-50.96,-28.44,15.32
2026-07-27 13:07:17.887,-0.99,0.41,-0.1,-18.62,-26.67,-1.28
2026-07-27 13:07:17.888,-0.99,0.41,-0.1,-18.62,-26.67,-1.28
2026-07-27 13:07:17.888,-0.95,0.32,-0.06,13.12,-24.66,-4.15
2026-07-27 13:07:17.889,-0.95,0.32,-0.06,13.12,-24.66,-4.15
2026-07-27 13:07:17.889,-0.91,0.25,-0.04,54.93,-9.7,-0.85
2026-07-27 13:07:18.007,-0.91,0.25,-0.04,54.93,-9.7,-0.85
2026-07-27 13:07:18.007,-0.89,0.22,-0.07,65.37,-6.65,3.66
2026-07-27 13:07:18.007,-0.89,0.23,-0.14,43.09,-29.3,6.84
2026-07-27 13:07:18.008,-0.89,0.23,-0.14,43.09,-29.3,6.84
2026-07-27 13:07:18.127,-0.91,0.25,-0.18,19.96,-52.61,9.46
2026-07-27 13:07:18.127,-0.91,0.25,-0.18,19.96,-52.61,9.46
2026-07-27 13:07:18.127,-0.95,0.24,-0.14,17.58,-47.49,16.11
2026-07-27 13:07:18.127,-0.95,0.24,-0.14,17.58,-47.49,16.11
2026-07-27 13:07:18.128,-1.0,0.18,-0.09,22.03,-25.39,24.41
2026-07-27 13:07:18.128,-1.0,0.18,-0.09,22.03,-25.39,24.41
2026-07-27 13:07:18.128,-1.07,0.13,-0.09,11.17,-9.58,27.71
2026-07-27 13:07:18.129,-1.09,0.18,-0.18,-19.65,-8.97,21.97
2026-07-27 13:07:18.129,-0.72,0.24,-0.09,-67.08,-20.51,6.29
2026-07-27 13:07:18.129,-0.72,0.24,-0.09,-67.08,-20.51,6.29
2026-07-27 13:07:18.130,-0.79,0.37,0.06,-96.98,37.54,5.31
2026-07-27 13:07:18.130,-0.79,0.37,0.06,-96.98,37.54,5.31
2026-07-27 13:07:18.131,-0.91,0.42,-0.1,-84.72,5.13,-3.78
2026-07-27 13:07:18.131,-1.0,0.39,-0.11,-71.66,-37.84,-11.72
2026-07-27 13:07:18.131,-1.0,0.39,-0.11,-71.66,-37.84,-11.72
2026-07-27 13:07:18.131,-1.03,0.31,-0.02,-38.15,-32.29,-11.17
2026-07-27 13:07:18.132,-1.03,0.31,-0.02,-38.15,-32.29,-11.17
2026-07-27 13:07:18.132,-0.66,0.25,0.24,12.57,42.18,4.39
2026-07-27 13:07:18.133,-0.66,0.25,0.24,12.57,42.18,4.39
2026-07-27 13:07:18.133,-1.1,0.14,-0.16,59.2,-115.3,9.89
2026-07-27 13:07:18.133,-1.1,0.14,-0.16,59.2,-115.3,9.89
2026-07-27 13:07:18.134,-0.93,0.35,0.01,42.05,85.21,6.1
2026-07-27 13:07:18.134,-0.93,0.35,0.01,42.05,85.21,6.1
2026-07-27 13:07:18.135,-0.75,0.3,-0.08,38.51,40.77,6.71
2026-07-27 13:07:18.137,-0.75,0.3,-0.08,38.51,40.77,6.71
2026-07-27 13:07:18.137,-0.68,0.28,-0.06,1.89,26.86,0.18
2026-07-27 13:07:18.138,-0.68,0.28,-0.06,1.89,26.86,0.18
2026-07-27 13:07:18.138,-0.67,0.34,-0.03,-30.4,19.41,-10.99
2026-07-27 13:07:18.139,-0.67,0.34,-0.03,-30.4,19.41,-10.99
2026-07-27 13:07:18.140,-0.73,0.4,-0.04,-39.61,7.02,-13.79
2026-07-27 13:07:18.140,-0.73,0.4,-0.04,-39.61,7.02,-13.79
2026-07-27 13:07:18.140,-0.85,0.39,-0.18,-31.8,-9.77,-7.69
2026-07-27 13:07:18.141,-0.96,0.35,-0.43,-7.57,-26.25,-4.58
2026-07-27 13:07:18.142,-1.03,0.38,-0.64,15.75,0.06,-7.45
2026-07-27 13:07:18.142,-0.98,0.28,-0.04,0.49,-31.8,-8.97
2026-07-27 13:07:18.185,-0.99,0.28,0.0,-32.84,-0.37,-0.31
2026-07-27 13:07:18.550,-0.99,0.28,0.0,-32.84,-0.37,-0.31
2026-07-27 13:07:18.551,-0.96,0.28,0.03,-27.59,10.31,1.53
2026-07-27 13:07:18.551,-0.96,0.28,0.03,-27.59,10.31,1.53
2026-07-27 13:07:18.551,-0.92,0.28,0.04,1.59,3.42,-1.65
2026-07-27 13:07:18.551,-0.92,0.28,0.04,37.78,-8.85,-2.5
2026-07-27 13:07:18.551,-0.92,0.26,0.01,37.78,-8.85,-2.5
2026-07-27 13:07:18.552,-0.94,0.22,-0.02,54.44,-20.39,-1.71
2026-07-27 13:07:18.552,-0.94,0.22,-0.02,54.44,-20.39,-1.71
2026-07-27 13:07:18.553,-0.98,0.37,-0.09,7.02,114.75,-6.04
2026-07-27 13:07:18.553,-1.04,0.4,0.06,-16.97,168.88,1.65
2026-07-27 13:07:18.553,-1.04,0.4,0.06,-16.97,168.88,1.65
2026-07-27 13:07:18.554,-1.14,0.41,0.17,-13.49,163.02,10.99
2026-07-27 13:07:18.557,-1.14,0.41,0.17,-13.49,163.02,10.99
2026-07-27 13:07:18.557,-0.98,0.4,0.11,6.35,108.58,16.24
2026-07-27 13:07:18.558,-0.98,0.4,0.11,6.35,108.58,16.24
2026-07-27 13:07:18.558,-0.77,0.32,-0.01,29.36,59.27,21.18
2026-07-27 13:07:18.558,-0.77,0.32,-0.01,29.36,59.27,21.18
2026-07-27 13:07:18.559,-0.7,0.23,-0.07,36.25,37.41,18.98
2026-07-27 13:07:18.559,-0.67,0.24,-0.06,24.78,23.68,2.44
2026-07-27 13:07:18.559,-0.67,0.24,-0.06,24.78,23.68,2.44
2026-07-27 13:07:18.559,-0.63,0.3,-0.01,7.02,5.07,-13.43
2026-07-27 13:07:18.560,-0.71,0.28,-0.09,-5.8,-20.45,-13.67
2026-07-27 13:07:18.560,-0.71,0.28,-0.09,-5.8,-20.45,-13.67
2026-07-27 13:07:18.560,-0.97,0.24,-0.5,16.3,-49.26,-5.92
2026-07-27 13:07:18.561,-0.97,0.24,-0.5,16.3,-49.26,-5.92
2026-07-27 13:07:18.561,-1.19,0.3,-0.86,57.56,-55.05,-1.4
2026-07-27 13:07:18.561,-1.19,0.3,-0.86,57.56,-55.05,-1.4
2026-07-27 13:07:18.561,-1.01,0.32,-0.69,48.34,-20.63,-3.11
2026-07-27 13:07:18.562,-1.01,0.32,-0.69,48.34,-20.63,-3.11
2026-07-27 13:07:18.562,-0.91,0.23,-0.19,-25.45,7.57,-9.28
2026-07-27 13:07:18.562,-0.91,0.23,-0.19,-25.45,7.57,-9.28
2026-07-27 13:07:18.563,-1.11,0.27,0.05,-81.24,-13.24,-17.09
2026-07-27 13:07:18.563,-1.11,0.27,0.05,-47.24,-51.88,-17.09
2026-07-27 13:07:18.563,-1.01,0.45,-0.14,-47.24,-51.88,-17.09
2026-07-27 13:07:18.563,-0.73,0.48,-0.1,5.92,-57.56,-6.04
2026-07-27 13:07:18.564,-0.73,0.48,-0.1,5.92,-57.56,-6.04
2026-07-27 13:07:18.564,-0.71,0.36,0.12,6.23,-25.82,12.02
2026-07-27 13:07:18.565,-0.71,0.36,0.12,6.23,-25.82,12.02
2026-07-27 13:07:19.267,-0.91,0.22,0.06,-7.45,-3.54,31.43
2026-07-27 13:07:19.268,-0.91,0.22,0.06,-7.45,-3.54,31.43
2026-07-27 13:07:19.269,-1.07,0.13,-0.07,11.47,-31.43,29.66
2026-07-27 13:07:19.269,-1.05,0.16,-0.07,43.09,-65.8,7.08
2026-07-27 13:07:19.269,-1.05,0.16,-0.07,43.09,-65.8,7.08
2026-07-27 13:07:20.106,-1.01,0.27,-0.06,31.49,-58.17,-10.62
2026-07-27 13:07:20.106,-1.01,0.27,-0.06,31.49,-58.17,-10.62
2026-07-27 13:07:20.107,-0.98,0.34,-0.04,-7.32,-26.67,-13.43
2026-07-27 13:07:20.107,-0.98,0.34,-0.04,-7.32,-26.67,-13.43
2026-07-27 13:07:20.108,-0.93,0.33,0.02,-25.09,5.07,-3.54
2026-07-27 13:07:20.108,-0.93,0.33,0.02,-25.09,5.07,-3.54
2026-07-27 13:07:20.109,-0.89,0.28,0.06,-13.31,22.22,9.58
2026-07-27 13:07:20.110,-0.89,0.28,0.06,11.84,18.98,15.32
2026-07-27 13:07:20.110,-0.9,0.23,0.03,11.84,18.98,15.32
2026-07-27 13:07:20.113,-0.93,0.21,-0.04,22.52,-0.73,11.54
2026-07-27 13:07:20.113,-0.93,0.21,-0.04,22.52,-0.73,11.54
2026-07-27 13:07:20.113,-0.95,0.22,-0.08,10.99,-26.0,2.87
2026-07-27 13:07:20.114,-0.95,0.22,-0.08,10.99,-26.0,2.87
2026-07-27 13:07:20.114,-0.96,0.24,-0.09,4.94,-44.92,-4.58
2026-07-27 13:07:20.114,-0.96,0.24,-0.09,4.94,-44.92,-4.58
2026-07-27 13:07:20.117,-0.97,0.25,-0.08,17.09,-51.7,-5.86
2026-07-27 13:07:20.117,-0.97,0.25,-0.08,32.1,-47.36,-0.73
2026-07-27 13:07:20.117,-0.99,0.24,-0.08,32.1,-47.36,-0.73
2026-07-27 13:07:20.117,-1.01,0.2,-0.11,36.99,-37.66,5.74
2026-07-27 13:07:20.118,-1.01,0.2,-0.11,36.99,-37.66,5.74
2026-07-27 13:07:20.119,-1.02,0.18,-0.17,28.14,-31.37,6.9
2026-07-27 13:07:20.119,-1.02,0.18,-0.17,28.14,-31.37,6.9
2026-07-27 13:07:20.119,-1.04,0.19,-0.21,13.43,-37.9,0.92
2026-07-27 13:07:20.119,-1.04,0.19,-0.21,13.43,-37.9,0.92
2026-07-27 13:07:20.120,-1.13,0.19,-0.2,11.47,-43.33,-6.53
2026-07-27 13:07:20.120,-1.13,0.19,-0.2,11.47,-43.33,-6.53
2026-07-27 13:07:20.121,-1.17,0.22,-0.19,9.28,-13.55,-6.53
2026-07-27 13:07:20.121,-1.17,0.22,-0.19,-18.13,55.6,0.85
2026-07-27 13:07:20.122,-1.01,0.3,-0.15,-18.13,55.6,0.85
2026-07-27 13:07:20.122,-0.89,0.38,-0.04,-43.58,128.6,8.67
2026-07-27 13:07:20.123,-0.89,0.38,-0.04,-43.58,128.6,8.67
2026-07-27 13:07:20.124,-1.01,0.38,0.07,-32.35,164.06,15.26
2026-07-27 13:07:20.125,-1.01,0.38,0.07,-32.35,164.06,15.26
2026-07-27 13:07:20.125,-1.09,0.3,0.15,0.92,142.64,18.37
2026-07-27 13:07:20.125,-1.09,0.3,0.15,0.92,142.64,18.37
2026-07-27 13:07:20.126,-0.93,0.24,0.07,28.08,84.29,10.8
2026-07-27 13:07:20.473,-0.93,0.24,0.07,28.08,84.29,10.8
2026-07-27 13:07:20.474,-0.8,0.19,-0.08,41.63,31.01,-9.89
2026-07-27 13:07:20.478,-0.82,0.17,-0.13,30.88,5.98,-34.3
2026-07-27 13:07:20.478,-0.82,0.17,-0.13,30.88,5.98,-34.3
2026-07-27 13:07:20.479,-0.82,0.28,-0.08,-10.07,5.0,-52.37
2026-07-27 13:07:20.479,-0.82,0.28,-0.08,-10.07,5.0,-52.37
2026-07-27 13:07:20.479,-0.78,0.39,-0.03,-48.34,9.83,-53.83
2026-07-27 13:07:20.479,-0.78,0.39,-0.03,-48.34,9.83,-53.83
2026-07-27 13:07:20.480,-0.83,0.31,-0.09,-45.23,-1.53,-39.12
2026-07-27 13:07:20.480,-0.83,0.31,-0.09,-45.23,-1.53,-39.12
2026-07-27 13:07:20.583,-0.92,0.2,-0.22,-13.79,-25.88,-25.09
2026-07-27 13:07:20.584,-0.92,0.2,-0.22,-13.79,-25.88,-25.09
2026-07-27 13:07:20.584,-0.98,0.2,-0.34,0.43,-35.52,-16.11
2026-07-27 13:07:20.585,-1.01,0.24,-0.44,-19.23,-22.77,-9.83
2026-07-27 13:07:20.585,-1.01,0.24,-0.44,-19.23,-22.77,-9.83
2026-07-27 13:07:20.585,-0.96,0.23,-0.45,-43.64,-5.13,-8.67
2026-07-27 13:07:20.586,-0.96,0.23,-0.45,-43.64,-5.13,-8.67
2026-07-27 13:07:20.587,-0.87,0.18,-0.24,-51.76,2.75,-7.39
2026-07-27 13:07:20.587,-0.87,0.18,-0.24,-51.76,2.75,-7.39
2026-07-27 13:07:20.588,-0.92,0.23,0.0,-60.91,0.43,1.04
2026-07-27 13:07:20.588,-0.92,0.23,0.0,-60.91,0.43,1.04
2026-07-27 13:07:20.589,-1.1,0.42,-0.08,-59.27,-15.44,7.39
2026-07-27 13:07:20.589,-1.1,0.42,-0.08,-59.27,-15.44,7.39
2026-07-27 13:07:20.704,-1.07,0.52,-0.28,-18.92,-40.53,6.35
2026-07-27 13:07:20.705,-1.07,0.52,-0.28,23.32,-45.41,8.3
2026-07-27 13:07:20.705,-0.84,0.4,-0.14,23.32,-45.41,8.3
2026-07-27 13:07:20.705,-0.96,0.03,0.07,-18.43,-1.04,35.64
2026-07-27 13:07:20.706,-1.03,0.07,-0.01,-43.09,-6.16,27.59
2026-07-27 13:07:20.706,-1.03,0.07,-0.01,-56.34,-23.13,-0.98
2026-07-27 13:07:20.709,-1.0,0.25,-0.07,-56.34,-23.13,-0.98
2026-07-27 13:07:20.824,-1.0,0.36,-0.09,-75.99,-24.23,-18.37
2026-07-27 13:07:21.005,-1.0,0.36,-0.09,-75.99,-24.23,-18.37
2026-07-27 13:07:21.005,-1.01,0.3,-0.04,-70.68,-5.19,-12.02
2026-07-27 13:07:21.006,-1.01,0.3,-0.04,-70.68,-5.19,-12.02
2026-07-27 13:07:21.006,-0.97,0.21,0.03,-40.28,16.54,0.06
2026-07-27 13:07:21.006,-0.97,0.21,0.03,-40.28,16.54,0.06
2026-07-27 13:07:21.007,-0.91,0.19,0.06,-20.02,20.39,1.53
2026-07-27 13:07:21.007,-0.89,0.22,0.05,-21.3,5.86,-4.39
2026-07-27 13:07:21.007,-0.89,0.22,0.05,-21.3,5.86,-4.39
2026-07-27 13:07:21.245,-0.91,0.26,0.01,-31.37,-9.58,-8.06
2026-07-27 13:07:21.246,-0.91,0.26,0.01,-31.37,-9.58,-8.06
2026-07-27 13:07:21.246,-0.94,0.29,-0.02,-29.91,-17.64,-7.45
2026-07-27 13:07:21.246,-0.94,0.29,-0.02,-29.91,-17.64,-7.45
2026-07-27 13:07:21.246,-0.94,0.29,-0.03,-17.03,-21.85,-4.46
2026-07-27 13:07:21.247,-0.94,0.29,-0.03,-17.03,-21.85,-4.46
2026-07-27 13:07:21.247,-0.93,0.28,-0.03,-4.03,-22.22,0.55
2026-07-27 13:07:21.248,-0.93,0.28,-0.03,-4.03,-22.22,0.55
2026-07-27 13:07:21.248,-0.96,0.26,-0.01,11.11,-15.93,7.81
2026-07-27 13:07:21.607,-1.01,0.22,-0.0,20.87,-1.22,15.62
2026-07-27 13:07:22.144,-1.01,0.22,-0.0,20.87,-1.22,15.62
2026-07-27 13:07:22.453,-1.04,0.18,-0.03,10.93,11.17,18.74
2026-07-27 13:07:22.455,-1.04,0.18,-0.03,10.93,11.17,18.74
2026-07-27 13:07:22.456,-1.0,0.17,-0.09,-8.06,2.08,13.12
2026-07-27 13:07:22.456,-1.0,0.17,-0.09,-8.06,2.08,13.12
2026-07-27 13:07:22.457,-0.96,0.16,-0.13,-17.58,-24.6,2.5
2026-07-27 13:07:22.457,-0.96,0.16,-0.13,-17.58,-24.6,2.5
2026-07-27 13:07:22.457,-0.98,0.13,-0.1,-10.8,-40.04,-3.36
2026-07-27 13:07:22.867,-1.08,0.12,-0.03,-6.16,-22.16,2.01
2026-07-27 13:07:23.104,-1.08,0.12,-0.03,-6.16,-22.16,2.01
2026-07-27 13:07:23.704,-1.1,0.19,-0.02,-25.15,10.93,7.08
2026-07-27 13:07:23.704,-1.1,0.19,-0.02,-25.15,10.93,7.08
2026-07-27 13:07:23.705,-0.94,0.37,-0.1,-59.45,31.25,0.43
2026-07-27 13:07:23.706,-0.94,0.37,-0.1,-59.45,31.25,0.43
2026-07-27 13:07:23.706,-0.8,0.52,-0.17,-72.08,59.69,1.95
2026-07-27 13:07:23.706,-0.8,0.52,-0.17,-72.08,59.69,1.95
2026-07-27 13:07:23.706,-0.89,0.53,-0.13,-38.09,105.59,23.25
2026-07-27 13:07:23.707,-0.89,0.53,-0.13,-38.09,105.59,23.25
2026-07-27 13:07:23.708,-0.89,0.53,-0.13,-38.09,105.59,23.25
2026-07-27 13:07:23.709,-0.89,0.53,-0.13,-38.09,105.59,23.25
2026-07-27 13:07:24.006,-1.09,0.21,0.08,34.67,113.59,40.04
2026-07-27 13:07:24.006,-1.09,0.21,0.08,34.67,113.59,40.04
2026-07-27 13:07:24.007,-1.09,0.21,0.08,34.67,113.59,40.04
2026-07-27 13:07:24.007,-1.09,0.21,0.08,34.67,113.59,40.04
2026-07-27 13:07:24.007,-0.8,0.27,-0.11,-2.5,27.95,-9.77
2026-07-27 13:07:24.010,-0.8,0.27,-0.11,-2.5,27.95,-9.77
2026-07-27 13:07:24.010,-0.8,0.35,-0.16,-2.38,5.0,-31.19
2026-07-27 13:07:24.012,-0.8,0.35,-0.16,14.34,-9.34,-46.26
2026-07-27 13:07:24.012,-0.87,0.36,-0.14,14.34,-9.34,-46.26
2026-07-27 13:07:24.305,-0.92,0.28,-0.16,18.8,-17.09,-54.02
2026-07-27 13:07:24.844,-0.92,0.28,-0.16,18.8,-17.09,-54.02
2026-07-27 13:07:24.844,-0.95,0.21,-0.21,4.33,-17.27,-57.25
2026-07-27 13:07:24.845,-0.95,0.21,-0.21,4.33,-17.27,-57.25
2026-07-27 13:07:24.846,-0.98,0.17,-0.27,-24.29,-6.35,-54.14
2026-07-27 13:07:24.846,-0.98,0.17,-0.27,-24.29,-6.35,-54.14
2026-07-27 13:07:24.847,-0.93,0.19,-0.3,-62.62,12.82,-44.62
2026-07-27 13:07:24.847,-0.93,0.19,-0.3,-62.62,12.82,-44.62
2026-07-27 13:07:24.858,-0.81,0.26,-0.31,-83.74,26.0,-32.84
2026-07-27 13:07:24.859,-0.76,0.26,-0.33,-72.69,21.3,-19.9
2026-07-27 13:07:24.859,-0.76,0.26,-0.33,-72.69,21.3,-19.9
2026-07-27 13:07:24.859,-0.8,0.21,-0.36,-46.94,3.36,-8.73
2026-07-27 13:07:24.859,-0.8,0.21,-0.36,-46.94,3.36,-8.73
2026-07-27 13:07:24.907,-0.9,0.21,-0.31,-30.03,-11.9,0.37
2026-07-27 13:07:24.908,-0.9,0.21,-0.31,-30.03,-11.9,0.37
2026-07-27 13:07:24.908,-1.06,0.27,-0.18,-35.34,-16.48,7.93
2026-07-27 13:07:24.909,-1.06,0.27,-0.18,-35.34,-16.48,7.93
2026-07-27 13:07:24.909,-1.17,0.34,-0.08,-46.45,-22.03,7.75
2026-07-27 13:07:24.909,-1.17,0.34,-0.08,-46.45,-22.03,7.75
2026-07-27 13:07:24.909,-1.04,0.39,-0.1,-31.86,-32.53,3.78
2026-07-27 13:07:24.909,-0.88,0.33,-0.1,-6.04,-32.59,10.56
2026-07-27 13:07:24.909,-0.88,0.33,-0.1,-6.04,-32.59,10.56
2026-07-27 13:07:24.910,-0.87,0.16,0.01,-6.59,-21.61,24.29
2026-07-27 13:07:24.979,-0.87,0.16,0.01,-6.59,-21.61,24.29
2026-07-27 13:07:24.979,-0.94,0.08,0.04,-41.38,-12.21,26.86
2026-07-27 13:07:24.980,-0.94,0.08,0.04,-41.38,-12.21,26.86
2026-07-27 13:07:25.084,-0.98,0.2,-0.02,-80.44,-12.57,9.58
2026-07-27 13:07:25.084,-0.98,0.2,-0.02,-80.44,-12.57,9.58
2026-07-27 13:07:25.084,-0.99,0.33,-0.04,-96.13,-11.29,-8.67
2026-07-27 13:07:25.144,-0.99,0.33,-0.04,-96.13,-11.29,-8.67
2026-07-27 13:07:25.144,-0.99,0.3,-0.02,-95.64,2.08,-8.61
2026-07-27 13:07:25.145,-1.0,0.21,0.03,-80.2,13.55,-1.34
2026-07-27 13:07:25.145,-0.99,0.2,-0.04,-32.65,-10.62,-1.83
2026-07-27 13:07:25.146,-0.99,0.19,0.01,-40.16,7.75,5.43
2026-07-27 13:07:25.146,-0.93,0.26,-0.04,-13.85,-20.14,-4.82
2026-07-27 13:07:25.205,-0.93,0.26,-0.04,-13.85,-20.14,-4.82
2026-07-27 13:07:25.206,-0.94,0.25,-0.07,-5.62,-29.36,-3.6
2026-07-27 13:07:25.206,-0.94,0.25,-0.07,-5.62,-29.36,-3.6
2026-07-27 13:07:25.206,-0.97,0.23,-0.1,10.31,-32.04,0.12
2026-07-27 13:07:25.207,-0.97,0.23,-0.1,10.31,-32.04,0.12
2026-07-27 13:07:25.207,-0.98,0.2,-0.12,24.41,-28.56,6.23
2026-07-27 13:07:25.207,-0.94,0.21,0.01,62.87,34.06,-23.5
2026-07-27 13:07:25.207,-0.82,0.02,0.01,-25.88,-21.3,-57.25
2026-07-27 13:07:25.207,-0.96,0.12,-0.01,-136.6,6.53,25.21
2026-07-27 13:07:25.207,-0.96,0.12,-0.01,-136.6,6.53,25.21
2026-07-27 13:07:25.208,-0.97,0.3,-0.07,-165.77,-10.74,-7.87
2026-07-27 13:07:25.208,-0.97,0.3,-0.07,-165.77,-10.74,-7.87
2026-07-27 13:07:25.209,-0.99,0.32,-0.05,-165.04,9.58,-13.92
2026-07-27 13:07:25.209,-1.03,0.2,0.01,-150.82,39.98,-0.12
2026-07-27 13:07:25.210,-1.03,0.2,0.01,-150.82,39.98,-0.12
2026-07-27 13:07:25.210,-1.01,0.13,0.08,-118.16,50.78,2.08
2026-07-27 13:07:25.213,-1.01,0.13,0.08,-118.16,50.78,2.08
2026-07-27 13:07:25.214,-0.92,0.27,-0.01,-103.94,-1.22,-15.56
2026-07-27 13:07:25.214,-0.95,0.25,-0.03,-103.94,-1.22,-15.56
2026-07-27 13:07:25.215,-0.96,0.22,0.0,-80.75,13.61,-0.12
2026-07-27 13:07:25.215,-0.96,0.22,0.0,-80.75,13.61,-0.12
2026-07-27 13:07:25.215,-0.95,0.22,0.01,-73.55,23.13,8.3
2026-07-27 13:07:25.215,-0.95,0.22,0.01,-73.55,23.13,8.3
2026-07-27 13:07:25.216,-0.95,0.21,-0.0,-73.0,20.75,9.03
2026-07-27 13:07:25.216,-0.95,0.21,-0.0,-73.0,20.75,9.03
2026-07-27 13:07:25.216,-0.97,0.21,-0.05,-73.97,8.42,6.59
2026-07-27 13:07:25.216,-1.0,0.21,-0.13,-80.63,-13.12,0.85
2026-07-27 13:07:25.217,-1.13,0.15,-0.12,-90.09,-14.65,8.54
2026-07-27 13:07:25.230,-1.1,0.28,-0.32,-78.19,9.64,-60.36
2026-07-27 13:07:25.230,-1.03,0.05,-0.21,-106.2,63.78,-58.53
2026-07-27 13:07:25.230,-1.03,0.05,-0.21,-106.2,63.78,-58.53
2026-07-27 13:07:25.231,-0.96,-0.18,-0.09,-143.92,86.18,-63.6
2026-07-27 13:07:25.231,-0.96,-0.18,-0.09,-178.59,77.03,-69.58
2026-07-27 13:07:25.231,-0.87,-0.14,-0.04,-178.59,77.03,-69.58
2026-07-27 13:07:25.232,-0.69,0.14,-0.08,-184.81,53.96,-69.95
2026-07-27 13:07:25.232,-0.69,0.14,-0.08,-184.81,53.96,-69.95
2026-07-27 13:07:25.232,-0.55,0.36,-0.15,-155.76,19.53,-55.97
2026-07-27 13:07:25.232,-0.55,0.36,-0.15,-155.76,19.53,-55.97
2026-07-27 13:07:25.232,-0.84,0.39,-0.14,-100.89,-27.34,-25.02
2026-07-27 13:07:25.232,-0.84,0.39,-0.14,-100.89,-27.34,-25.02
2026-07-27 13:07:25.233,-1.45,0.37,-0.25,-13.73,-74.65,5.19
2026-07-27 13:07:25.233,-1.43,0.38,-0.26,63.29,-74.83,24.66
2026-07-27 13:07:25.233,-1.43,0.38,-0.26,63.29,-74.83,24.66
2026-07-27 13:07:25.233,-0.9,0.34,0.08,25.02,-1.83,34.73
2026-07-27 13:07:25.323,-0.9,0.34,0.08,25.02,-1.83,34.73
2026-07-27 13:07:25.324,-0.76,0.32,0.24,-98.21,94.18,35.03
2026-07-27 13:07:25.324,-0.76,0.32,0.24,-98.21,94.18,35.03
2026-07-27 13:07:25.324,-0.94,0.32,0.08,-177.98,107.3,24.78
2026-07-27 13:07:25.324,-0.99,0.28,-0.08,-155.03,21.36,3.48
2026-07-27 13:07:25.864,-0.99,0.28,-0.08,-155.03,21.36,3.48
2026-07-27 13:07:25.864,-0.95,0.27,-0.12,-69.09,-52.98,-17.76
2026-07-27 13:07:25.874,-0.95,0.27,-0.12,-69.09,-52.98,-17.76
2026-07-27 13:07:26.173,-0.91,0.27,-0.11,-9.83,-71.78,-29.66
2026-07-27 13:07:26.174,-0.91,0.27,-0.11,-9.83,-71.78,-29.66
2026-07-27 13:07:26.174,-0.88,0.23,-0.07,-10.93,-55.18,-27.59
2026-07-27 13:07:26.174,-0.88,0.2,-0.01,-44.62,-15.26,-13.37
2026-07-27 13:07:26.227,-0.88,0.2,-0.01,-44.62,-15.26,-13.37
2026-07-27 13:07:26.228,-0.94,0.21,0.03,-61.65,22.16,1.22
2026-07-27 13:07:26.228,-0.94,0.21,0.03,-61.65,22.16,1.22
2026-07-27 13:07:26.228,-0.98,0.23,0.02,-58.96,31.01,6.71
2026-07-27 13:07:26.229,-0.98,0.23,0.02,-58.96,31.01,6.71
2026-07-27 13:07:26.230,-0.98,0.26,-0.02,-65.67,14.22,4.15
2026-07-27 13:07:26.230,-0.98,0.26,-0.02,-65.67,14.22,4.15
2026-07-27 13:07:26.231,-0.96,0.28,-0.05,-71.59,-8.61,-0.43
2026-07-27 13:07:26.231,-0.97,0.21,-0.09,-55.66,-27.59,-1.28
2026-07-27 13:07:26.234,-0.97,0.21,-0.09,-55.66,-27.59,-1.28
2026-07-27 13:07:26.234,-0.97,0.09,-0.12,-37.84,-38.51,1.22
2026-07-27 13:07:26.235,-0.97,0.09,-0.12,-37.84,-38.51,1.22
2026-07-27 13:07:26.235,-0.96,0.01,-0.1,-23.25,-39.73,0.37
2026-07-27 13:07:26.235,-0.96,0.01,-0.1,-23.25,-39.73,0.37
2026-07-27 13:07:26.235,-1.02,0.04,-0.01,-5.25,-34.48,-4.21
2026-07-27 13:07:26.235,-1.02,0.04,-0.01,-5.25,-34.48,-4.21
2026-07-27 13:07:26.236,-1.14,0.1,0.06,-12.63,-20.94,-6.23
2026-07-27 13:07:26.239,-1.13,0.16,0.1,-53.96,4.09,-5.31
2026-07-27 13:07:26.239,-1.13,0.16,0.1,-53.96,4.09,-5.31
2026-07-27 13:07:26.240,-0.97,0.32,0.11,-81.73,31.68,-11.23
2026-07-27 13:07:26.240,-0.97,0.32,0.11,-81.73,31.68,-11.23
2026-07-27 13:07:26.240,-0.8,0.52,0.08,-53.16,37.84,-25.33
2026-07-27 13:07:26.240,-0.8,0.52,0.08,-53.16,37.84,-25.33
2026-07-27 13:07:26.241,-0.81,0.52,-0.02,-22.16,33.02,-23.32
2026-07-27 13:07:26.241,-0.81,0.52,-0.02,-22.16,33.02,-23.32
2026-07-27 13:07:26.241,-1.02,0.41,-0.12,-11.35,62.81,6.1
2026-07-27 13:07:26.241,-1.16,0.35,-0.1,41.38,95.64,26.18
2026-07-27 13:07:26.242,-1.16,0.35,-0.1,41.38,95.64,26.18
2026-07-27 13:07:26.242,-1.08,0.28,0.0,83.98,89.42,20.69
2026-07-27 13:07:26.242,-1.08,0.28,0.0,83.98,89.42,20.69
2026-07-27 13:07:26.242,-0.95,0.13,0.04,21.61,66.96,16.54
2026-07-27 13:07:26.243,-0.95,0.13,0.04,21.61,66.96,16.54
2026-07-27 13:07:26.243,-0.89,0.03,0.0,-67.93,49.26,15.14
2026-07-27 13:07:26.243,-0.87,0.09,0.01,-82.46,38.94,-1.34
2026-07-27 13:07:26.345,-0.87,0.09,0.01,-82.46,38.94,-1.34
2026-07-27 13:07:26.346,-0.83,0.24,0.05,-61.46,28.38,-27.22
2026-07-27 13:07:26.346,-0.83,0.24,0.05,-61.46,28.38,-27.22
2026-07-27 13:07:26.346,-0.81,0.39,-0.0,-50.48,12.45,-43.21
2026-07-27 13:07:26.346,-0.81,0.39,-0.0,-50.48,12.45,-43.21
2026-07-27 13:07:26.411,-0.88,0.48,-0.22,-39.86,-4.27,-38.57
2026-07-27 13:07:27.004,-0.98,0.44,-0.51,-16.3,-5.49,-19.84
2026-07-27 13:07:27.011,-0.98,0.44,-0.51,-16.3,-5.49,-19.84
2026-07-27 13:07:27.012,-1.04,0.21,-0.57,5.55,19.47,-7.32
2026-07-27 13:07:27.012,-1.04,0.21,-0.57,5.55,19.47,-7.32
2026-07-27 13:07:27.365,-0.96,-0.07,-0.39,-7.14,44.37,-12.7
2026-07-27 13:07:27.365,-0.96,-0.07,-0.39,-7.14,44.37,-12.7
2026-07-27 13:07:27.432,-0.8,-0.17,-0.13,-51.51,37.17,-23.38
2026-07-27 13:07:27.433,-0.8,-0.17,-0.13,-51.51,37.17,-23.38
2026-07-27 13:07:27.434,-0.73,0.02,0.04,-92.53,8.73,-23.13
2026-07-27 13:07:27.435,-1.09,0.5,-0.09,-91.43,-23.44,-21.67
2026-07-27 13:07:27.435,-1.09,0.5,-0.09,-91.43,-23.44,-21.67
2026-07-27 13:07:27.435,-1.28,0.82,-0.42,-38.51,-55.3,-22.64
2026-07-27 13:07:27.435,-1.28,0.82,-0.42,-38.51,-55.3,-22.64
2026-07-27 13:07:27.436,-0.86,0.62,-0.31,10.13,-48.77,-1.95
2026-07-27 13:07:27.437,-0.86,0.62,-0.31,10.13,-48.77,-1.95
2026-07-27 13:07:27.437,-0.72,0.21,0.14,11.17,-3.3,34.42
2026-07-27 13:07:27.437,-0.72,0.21,0.14,11.17,-3.3,34.42
2026-07-27 13:07:27.438,-0.97,-0.05,0.16,-12.45,9.58,57.01
2026-07-27 13:07:27.484,-1.09,-0.02,-0.05,-15.69,-37.78,39.92
2026-07-27 13:07:27.485,-1.09,-0.02,-0.05,-15.69,-37.78,39.92
2026-07-27 13:07:27.485,-1.01,0.21,-0.09,-10.38,-75.13,-7.81
2026-07-27 13:07:27.485,-1.01,0.21,-0.09,-10.38,-75.13,-7.81
2026-07-27 13:07:27.485,-0.95,0.41,-0.09,-42.48,-55.24,-30.88
2026-07-27 13:07:27.486,-0.95,0.41,-0.09,-42.48,-55.24,-30.88
2026-07-27 13:07:27.486,-0.98,0.38,-0.06,-76.17,-12.88,-12.57
2026-07-27 13:07:27.492,-0.98,0.38,-0.06,-76.17,-12.88,-12.57
2026-07-27 13:07:27.492,-0.98,0.38,-0.06,-76.17,-12.88,-12.57
2026-07-27 13:07:27.492,-0.98,0.38,-0.06,-76.17,-12.88,-12.57
2026-07-27 13:07:27.493,-0.93,0.15,0.09,-20.32,33.39,20.94
2026-07-27 13:07:27.493,-0.93,0.15,0.09,-20.32,33.39,20.94
2026-07-27 13:07:27.493,-0.9,0.18,0.06,-3.66,20.08,11.05
2026-07-27 13:07:27.493,-0.9,0.24,0.01,-9.77,-8.79,-4.82
2026-07-27 13:07:27.494,-0.9,0.24,0.01,-9.77,-8.79,-4.82
2026-07-27 13:07:27.494,-0.92,0.29,-0.05,-4.58,-39.79,-16.97
2026-07-27 13:07:27.495,-0.92,0.29,-0.05,-4.58,-39.79,-16.97
2026-07-27 13:07:27.495,-0.93,0.3,-0.06,18.01,-59.94,-19.9
2026-07-27 13:07:27.495,-0.93,0.3,-0.06,18.01,-59.94,-19.9
2026-07-27 13:07:27.495,-0.95,0.28,-0.05,28.56,-58.11,-10.44
2026-07-27 13:07:27.496,-0.95,0.28,-0.05,28.56,-58.11,-10.44
2026-07-27 13:07:27.496,-1.0,0.25,-0.06,22.58,-38.21,8.12
2026-07-27 13:07:27.497,-1.0,0.25,-0.06,22.09,-22.09,21.36
2026-07-27 13:07:27.497,-1.05,0.21,-0.11,22.09,-22.09,21.36
2026-07-27 13:07:27.497,-1.18,0.19,-0.11,29.11,-22.16,20.02
2026-07-27 13:07:27.497,-1.18,0.19,-0.11,29.11,-22.16,20.02
2026-07-27 13:07:27.498,-1.28,0.18,-0.09,20.94,-19.65,11.72
2026-07-27 13:07:27.498,-1.28,0.18,-0.09,20.94,-19.65,11.72
2026-07-27 13:07:27.498,-1.06,0.22,-0.09,-14.95,-2.44,0.24
2026-07-27 13:07:27.500,-1.06,0.22,-0.09,-14.95,-2.44,0.24
2026-07-27 13:07:27.501,-0.74,0.37,-0.07,-52.06,31.31,-7.2
2026-07-27 13:07:27.501,-0.74,0.37,-0.07,-44.98,86.43,6.04
2026-07-27 13:07:27.501,-0.71,0.51,-0.01,-44.98,86.43,6.04
2026-07-27 13:07:27.543,-0.98,0.49,0.02,1.71,128.48,33.08
2026-07-27 13:07:27.784,-0.98,0.49,0.02,1.71,128.48,33.08
2026-07-27 13:07:27.785,-1.13,0.32,0.04,55.85,114.56,45.59
2026-07-27 13:07:27.785,-1.13,0.32,0.04,55.85,114.56,45.59
2026-07-27 13:07:27.785,-1.01,0.2,0.03,74.22,66.89,33.45
2026-07-27 13:07:27.785,-1.01,0.2,0.03,44.86,30.46,7.93
2026-07-27 13:07:27.786,-0.83,0.23,-0.04,44.86,30.46,7.93
2026-07-27 13:07:27.787,-0.73,0.31,-0.07,26.92,8.48,-19.59
2026-07-27 13:07:27.787,-0.73,0.31,-0.07,26.92,8.48,-19.59
2026-07-27 13:07:27.788,-0.76,0.31,-0.05,34.79,-7.39,-37.78
2026-07-27 13:07:27.788,-0.76,0.31,-0.05,34.79,-7.39,-37.78
2026-07-27 13:07:27.789,-0.87,0.26,-0.08,37.41,-15.08,-40.65
2026-07-27 13:07:27.847,-0.87,0.26,-0.08,37.41,-15.08,-40.65
2026-07-27 13:07:27.848,-0.97,0.22,-0.17,22.09,-15.93,-35.16
2026-07-27 13:07:27.848,-1.04,0.2,-0.27,-5.62,-12.57,-32.71
2026-07-27 13:07:28.028,-1.04,0.2,-0.27,-5.62,-12.57,-32.71
2026-07-27 13:07:28.028,-1.07,0.21,-0.35,-37.78,4.21,-35.16
2026-07-27 13:07:28.028,-1.07,0.21,-0.35,-37.78,4.21,-35.16
2026-07-27 13:07:28.028,-1.02,0.23,-0.35,-66.16,32.47,-38.94
2026-07-27 13:07:28.028,-1.02,0.23,-0.35,-66.16,32.47,-38.94
2026-07-27 13:07:28.029,-0.87,0.22,-0.32,-81.05,51.27,-41.63
2026-07-27 13:07:28.029,-0.87,0.22,-0.32,-81.05,51.27,-41.63
2026-07-27 13:07:28.030,-0.72,0.15,-0.25,-82.58,48.95,-38.02
2026-07-27 13:07:28.264,-0.66,0.06,-0.15,-78.55,26.92,-27.71
2026-07-27 13:07:28.264,-0.66,0.06,-0.15,-78.55,26.92,-27.71
2026-07-27 13:07:28.265,-0.7,0.08,-0.11,-69.7,-7.26,-16.85
2026-07-27 13:07:28.265,-0.7,0.08,-0.11,-69.7,-7.26,-16.85
2026-07-27 13:07:28.265,-1.01,0.22,-0.16,-48.28,-46.08,-11.41
2026-07-27 13:07:28.266,-1.01,0.22,-0.16,-48.28,-46.08,-11.41
2026-07-27 13:07:28.266,-1.42,0.47,-0.23,-9.4,-78.25,-12.82
2026-07-27 13:07:28.267,-1.42,0.47,-0.23,27.4,-79.47,-12.27
2026-07-27 13:07:28.267,-1.26,0.66,-0.27,27.4,-79.47,-12.27
2026-07-27 13:07:28.268,-0.72,0.55,-0.09,36.62,-49.62,-0.12
2026-07-27 13:07:28.624,-0.72,0.55,-0.09,36.62,-49.62,-0.12
2026-07-27 13:07:28.625,-0.65,0.25,0.19,26.25,-3.23,31.25
2026-07-27 13:07:28.625,-0.65,0.25,0.19,26.25,-3.23,31.25
2026-07-27 13:07:28.626,-0.96,0.03,0.15,1.83,32.23,65.67
2026-07-27 13:07:28.626,-1.16,0.04,-0.06,-27.04,6.41,59.39
2026-07-27 13:07:28.626,-1.16,0.04,-0.06,-27.04,6.41,59.39
2026-07-27 13:07:28.627,-1.11,0.25,-0.16,-29.17,-54.75,11.29
2026-07-27 13:07:28.627,-1.11,0.25,-0.16,-29.17,-54.75,11.29
2026-07-27 13:07:28.628,-0.99,0.4,-0.1,-8.12,-85.94,-31.19
2026-07-27 13:07:28.630,-0.99,0.4,-0.1,-8.12,-85.94,-31.19
2026-07-27 13:07:28.631,-0.89,0.36,0.03,15.08,-60.36,-33.26
2026-07-27 13:07:28.631,-0.89,0.36,0.03,15.08,-60.36,-33.26
2026-07-27 13:07:28.632,-0.86,0.27,0.09,20.94,5.0,-3.72
2026-07-27 13:07:28.632,-0.89,0.2,0.05,0.24,48.77,20.87
2026-07-27 13:07:28.632,-0.89,0.2,0.05,0.24,48.77,20.87
2026-07-27 13:07:28.634,-0.93,0.19,-0.01,-18.68,36.01,20.63
2026-07-27 13:07:28.634,-0.93,0.19,-0.01,-18.68,36.01,20.63
2026-07-27 13:07:28.684,-0.95,0.23,-0.04,-12.33,-11.6,5.07
2026-07-27 13:07:28.684,-0.95,0.23,-0.04,-12.33,-11.6,5.07
2026-07-27 13:07:28.746,-0.94,0.25,-0.06,19.9,-57.25,-8.42
2026-07-27 13:07:28.805,-0.97,0.23,-0.08,64.51,-81.05,-9.4
2026-07-27 13:07:28.806,-0.97,0.23,-0.08,64.51,-81.05,-9.4
2026-07-27 13:07:28.806,-1.01,0.18,-0.12,88.87,-80.44,-0.61
2026-07-27 13:07:28.806,-1.01,0.18,-0.12,88.87,-80.44,-0.61
2026-07-27 13:07:28.925,-1.06,0.16,-0.16,77.58,-65.19,5.07
2026-07-27 13:07:28.925,-1.06,0.16,-0.16,77.58,-65.19,5.07
2026-07-27 13:07:29.046,-1.19,0.19,-0.18,46.57,-46.51,2.2
2026-07-27 13:07:29.047,-1.19,0.19,-0.18,46.57,-46.51,2.2
2026-07-27 13:07:29.047,-1.25,0.27,-0.18,25.21,-24.23,-6.35
2026-07-27 13:07:29.224,-1.05,0.37,-0.13,18.74,7.93,-16.6
2026-07-27 13:07:29.224,-1.05,0.37,-0.13,18.74,7.93,-16.6
2026-07-27 13:07:29.648,-0.82,0.42,0.03,18.31,67.93,-16.85
2026-07-27 13:07:29.648,-0.82,0.42,0.03,18.31,67.93,-16.85
2026-07-27 13:07:29.649,-0.88,0.48,0.18,16.66,133.67,-3.48
2026-07-27 13:07:29.649,-0.88,0.48,0.18,16.66,133.67,-3.48
2026-07-27 13:07:29.650,-1.05,0.52,0.19,9.09,149.78,15.01
2026-07-27 13:07:29.650,-1.05,0.52,0.19,9.09,149.78,15.01
2026-07-27 13:07:29.650,-0.99,0.4,0.08,9.77,109.92,31.98
2026-07-27 13:07:29.650,-0.81,0.29,-0.05,16.24,60.06,39.06
2026-07-27 13:07:29.650,-0.81,0.29,-0.05,16.24,60.06,39.06
2026-07-27 13:07:29.651,-0.68,0.32,-0.08,19.29,36.8,29.48
2026-07-27 13:07:29.651,-0.68,0.32,-0.08,19.29,36.8,29.48
2026-07-27 13:07:29.651,-0.65,0.39,-0.07,18.19,27.53,12.33
2026-07-27 13:07:29.651,-0.65,0.39,-0.07,18.19,27.53,12.33
2026-07-27 13:07:29.651,-0.67,0.4,-0.07,15.87,11.11,2.44
2026-07-27 13:07:29.652,-0.76,0.35,-0.11,23.01,-15.44,-1.1
2026-07-27 13:07:29.652,-0.76,0.35,-0.11,23.01,-15.44,-1.1
2026-07-27 13:07:29.652,-0.89,0.29,-0.31,45.78,-43.15,-7.51
2026-07-27 13:07:29.653,-0.89,0.29,-0.31,45.78,-43.15,-7.51
2026-07-27 13:07:29.653,-1.03,0.32,-0.61,69.09,-53.77,-15.14
2026-07-27 13:07:29.654,-1.03,0.32,-0.61,69.09,-53.77,-15.14
2026-07-27 13:07:29.655,-1.04,0.35,-0.67,61.95,-32.78,-14.1
2026-07-27 13:07:29.656,-1.04,0.35,-0.67,61.95,-32.78,-14.1
2026-07-27 13:07:29.656,-1.07,0.35,-0.41,20.57,-5.49,-11.9
2026-07-27 13:07:29.763,-1.07,0.35,-0.41,-10.68,-13.98,-22.22
2026-07-27 13:07:30.133,-1.07,0.37,-0.11,-10.68,-13.98,-22.22
2026-07-27 13:07:30.133,-0.87,0.39,0.03,1.04,-36.38,-26.98
2026-07-27 13:07:30.134,-0.87,0.39,0.03,1.04,-36.38,-26.98
2026-07-27 13:07:30.134,-0.76,0.39,0.04,18.8,-36.38,-11.29
2026-07-27 13:07:30.135,-0.76,0.39,0.04,18.8,-36.38,-11.29
2026-07-27 13:07:30.135,-0.83,0.28,0.07,10.38,-33.63,8.73
2026-07-27 13:07:30.136,-0.83,0.28,0.07,10.38,-33.63,8.73
2026-07-27 13:07:30.136,-0.95,0.17,0.04,-8.67,-36.13,22.77
2026-07-27 13:07:30.136,-0.95,0.17,0.04,-8.67,-36.13,22.77
2026-07-27 13:07:30.137,-1.03,0.12,-0.03,-18.92,-37.29,24.48
2026-07-27 13:07:30.137,-1.05,0.18,-0.06,-12.39,-36.56,8.06
2026-07-27 13:07:30.137,-1.05,0.18,-0.06,-12.39,-36.56,8.06
2026-07-27 13:07:30.138,-1.02,0.27,-0.05,-2.56,-29.24,-12.7
2026-07-27 13:07:30.140,-1.02,0.27,-0.05,-2.56,-29.24,-12.7
2026-07-27 13:07:30.140,-0.97,0.29,-0.01,4.03,-18.31,-18.37
2026-07-27 13:07:30.140,-0.97,0.29,-0.01,4.03,-18.31,-18.37
2026-07-27 13:07:30.140,-0.93,0.26,0.03,15.93,-11.54,-10.99
2026-07-27 13:07:30.141,-0.93,0.26,0.03,15.93,-11.54,-10.99
2026-07-27 13:07:30.141,-0.91,0.23,0.02,35.1,-18.8,-5.37
2026-07-27 13:07:30.141,-0.92,0.21,-0.03,55.42,-37.54,-6.65
2026-07-27 13:07:30.141,-0.92,0.21,-0.03,55.42,-37.54,-6.65
2026-07-27 13:07:30.142,-0.95,0.19,-0.05,67.02,-50.23,-8.48
2026-07-27 13:07:30.142,-0.95,0.19,-0.05,67.02,-50.23,-8.48
2026-07-27 13:07:30.143,-0.98,0.18,-0.02,60.91,-42.42,-4.7
2026-07-27 13:07:30.143,-0.98,0.18,-0.02,60.91,-42.42,-4.7
2026-07-27 13:07:30.143,-0.97,0.18,0.02,30.46,-16.54,3.97
2026-07-27 13:07:30.144,-0.97,0.18,0.02,30.46,-16.54,3.97
2026-07-27 13:07:30.144,-0.96,0.22,0.02,-10.93,9.4,9.46
2026-07-27 13:07:30.145,-0.96,0.22,0.02,-29.54,19.78,6.59
2026-07-27 13:07:30.551,-0.95,0.28,0.0,-29.54,19.78,6.59
2026-07-27 13:07:30.551,-0.94,0.31,-0.01,-13.49,8.54,0.67
2026-07-27 13:07:30.551,-0.94,0.31,-0.01,-13.49,8.54,0.67
2026-07-27 13:07:30.551,-0.94,0.27,-0.05,27.83,-22.46,-2.44
2026-07-27 13:07:30.551,-0.94,0.27,-0.05,27.83,-22.46,-2.44
2026-07-27 13:07:30.552,-0.96,0.2,-0.12,75.26,-59.02,-2.93
2026-07-27 13:07:30.552,-0.99,0.16,-0.18,101.14,-83.37,-5.49
2026-07-27 13:07:30.553,-0.99,0.16,-0.18,101.14,-83.37,-5.49
2026-07-27 13:07:30.553,-1.06,0.19,-0.2,94.73,-85.02,-12.63
2026-07-27 13:07:30.553,-1.06,0.19,-0.2,94.73,-85.02,-12.63
2026-07-27 13:07:30.553,-1.19,0.21,-0.2,79.04,-56.21,-16.42
2026-07-27 13:07:30.554,-1.19,0.21,-0.2,79.04,-56.21,-16.42
2026-07-27 13:07:30.554,-1.16,0.23,-0.18,65.67,10.38,-10.07
2026-07-27 13:07:30.554,-1.16,0.23,-0.18,25.82,98.51,3.91
2026-07-27 13:07:30.554,-0.94,0.31,-0.12,25.82,98.51,3.91
2026-07-27 13:07:30.603,-0.96,0.33,-0.02,-27.22,168.33,26.79
2026-07-27 13:07:30.664,-0.96,0.33,-0.02,-27.22,168.33,26.79
2026-07-27 13:07:30.664,-1.16,0.29,0.11,-35.1,177.12,42.42
2026-07-27 13:07:30.665,-1.16,0.29,0.11,-35.1,177.12,42.42
2026-07-27 13:07:30.665,-1.07,0.26,0.12,2.75,125.73,33.33
2026-07-27 13:07:30.665,-1.07,0.26,0.12,2.75,125.73,33.33
2026-07-27 13:07:30.665,-0.84,0.24,-0.05,36.68,69.27,15.01
2026-07-27 13:07:30.666,-0.7,0.26,-0.17,52.06,39.12,-5.86
2026-07-27 13:07:30.844,-0.7,0.26,-0.17,52.06,39.12,-5.86
2026-07-27 13:07:30.844,-0.62,0.28,-0.14,49.62,27.59,-28.32
2026-07-27 13:07:30.844,-0.62,0.28,-0.14,49.62,27.59,-28.32
2026-07-27 13:07:30.845,-0.66,0.31,-0.07,23.99,19.29,-34.73
2026-07-27 13:07:30.845,-0.66,0.31,-0.07,23.99,19.29,-34.73
2026-07-27 13:07:30.845,-0.85,0.31,-0.12,-6.96,4.27,-18.62
2026-07-27 13:07:30.846,-0.85,0.31,-0.12,-10.07,-16.42,1.53
2026-07-27 13:07:30.846,-1.13,0.3,-0.41,-10.07,-16.42,1.53
2026-07-27 13:07:31.087,-1.19,0.24,-0.62,23.74,-28.99,5.37
2026-07-27 13:07:31.564,-1.19,0.24,-0.62,23.74,-28.99,5.37
2026-07-27 13:07:31.564,-0.94,0.14,-0.45,36.38,-25.7,-3.36
2026-07-27 13:07:31.565,-0.94,0.14,-0.45,36.38,-25.7,-3.36
2026-07-27 13:07:31.565,-0.8,0.15,-0.21,-4.52,-24.9,-11.29
2026-07-27 13:07:31.571,-0.8,0.15,-0.21,-4.52,-24.9,-11.29
2026-07-27 13:07:31.580,-0.93,0.3,-0.21,-47.18,-39.67,-17.64
2026-07-27 13:07:31.580,-0.93,0.3,-0.21,-45.53,-56.76,-22.71
2026-07-27 13:07:31.581,-1.0,0.5,-0.33,-45.53,-56.76,-22.71
2026-07-27 13:07:31.581,-0.89,0.59,-0.28,-16.6,-52.0,-16.3
2026-07-27 13:07:31.581,-0.89,0.59,-0.28,-16.6,-52.0,-16.3
2026-07-27 13:07:31.582,-0.84,0.49,-0.12,-5.92,-29.36,3.3
2026-07-27 13:07:31.744,-0.84,0.49,-0.12,-5.92,-29.36,3.3
2026-07-27 13:07:31.744,-0.9,0.26,-0.04,-10.19,-25.57,20.94
2026-07-27 13:07:31.745,-0.9,0.26,-0.04,-10.19,-25.57,20.94
2026-07-27 13:07:31.746,-0.97,0.12,0.01,-2.5,-41.44,23.32
2026-07-27 13:07:31.748,-0.95,0.15,0.05,13.12,-49.13,12.51
2026-07-27 13:07:31.748,-0.95,0.15,0.05,13.12,-49.13,12.51
2026-07-27 13:07:31.748,-0.88,0.26,0.08,30.94,-47.61,0.67
2026-07-27 13:07:31.749,-0.88,0.26,0.08,30.94,-47.61,0.67
2026-07-27 13:07:31.749,-0.88,0.32,0.08,52.8,-43.58,0.67
2026-07-27 13:07:31.749,-0.88,0.32,0.08,52.8,-43.58,0.67
2026-07-27 13:07:31.749,-0.92,0.28,0.08,70.62,-35.58,13.98
2026-07-27 13:07:31.749,-0.92,0.28,0.08,70.62,-35.58,13.98
2026-07-27 13:07:31.749,-0.97,0.18,0.07,74.28,-23.13,30.46
2026-07-27 13:07:31.864,-1.06,0.07,0.02,59.88,-15.08,39.98
2026-07-27 13:07:31.865,-1.06,0.07,0.02,59.88,-15.08,39.98
2026-07-27 13:07:31.867,-1.1,0.07,-0.06,28.5,-21.48,31.49
2026-07-27 13:07:31.867,-1.1,0.07,-0.06,28.5,-21.48,31.49
2026-07-27 13:07:31.867,-1.05,0.17,-0.09,-17.21,-29.91,6.29
2026-07-27 13:07:31.867,-1.05,0.17,-0.09,-17.21,-29.91,6.29
2026-07-27 13:07:31.868,-0.97,0.24,-0.05,-51.76,-19.23,-11.66
2026-07-27 13:07:31.868,-0.97,0.24,-0.05,-51.76,-19.23,-11.66
2026-07-27 13:07:31.868,-0.93,0.23,0.01,-54.32,6.59,-9.58
2026-07-27 13:07:31.868,-0.93,0.21,0.02,-41.93,21.73,-2.62
2026-07-27 13:07:31.869,-0.93,0.21,0.02,-41.93,21.73,-2.62
2026-07-27 13:07:31.870,-0.93,0.22,0.0,-29.6,9.89,-6.04
2026-07-27 13:07:31.870,-0.93,0.22,0.0,-29.6,9.89,-6.04
2026-07-27 13:07:31.871,-0.92,0.27,-0.03,-19.29,-17.52,-15.87
2026-07-27 13:07:32.164,-0.92,0.27,-0.03,-19.29,-17.52,-15.87
2026-07-27 13:07:32.164,-0.93,0.29,-0.04,-11.84,-36.13,-17.58
2026-07-27 13:07:32.165,-0.93,0.29,-0.04,-11.84,-36.13,-17.58
2026-07-27 13:07:32.165,-0.94,0.28,-0.03,-9.16,-31.56,-4.39
2026-07-27 13:07:32.165,-0.97,0.25,-0.03,-6.29,-13.06,13.73
2026-07-27 13:07:32.165,-0.97,0.25,-0.03,-6.29,-13.06,13.73
2026-07-27 13:07:32.166,-1.02,0.22,-0.05,0.12,-3.91,22.34
2026-07-27 13:07:32.167,-1.02,0.22,-0.05,0.12,-3.91,22.34
2026-07-27 13:07:32.167,-1.12,0.2,-0.08,6.41,-10.8,19.35
2026-07-27 13:07:32.168,-1.12,0.2,-0.08,6.41,-10.8,19.35
2026-07-27 13:07:32.168,-1.23,0.22,-0.09,6.77,-14.71,13.0
2026-07-27 13:07:32.168,-1.23,0.22,-0.09,6.77,-14.71,13.0
2026-07-27 13:07:32.169,-1.16,0.3,-0.09,-10.01,-1.53,4.52
2026-07-27 13:07:32.170,-0.91,0.41,-0.08,-38.7,26.49,-5.62
2026-07-27 13:07:32.170,-0.91,0.41,-0.08,-38.7,26.49,-5.62
2026-07-27 13:07:32.171,-0.75,0.47,-0.0,-41.99,73.36,-3.17
2026-07-27 13:07:32.171,-0.75,0.47,-0.0,-41.99,73.36,-3.17
2026-07-27 13:07:32.172,-0.86,0.49,0.08,-16.48,121.34,13.18
2026-07-27 13:07:32.173,-0.86,0.49,0.08,-16.48,121.34,13.18
2026-07-27 13:07:32.173,-1.04,0.44,0.1,10.8,131.47,28.87
2026-07-27 13:07:32.173,-1.04,0.44,0.1,10.8,131.47,28.87
2026-07-27 13:07:32.231,-1.03,0.3,0.04,26.73,96.56,32.65
2026-07-27 13:07:32.232,-0.9,0.25,-0.06,24.54,50.17,20.08
2026-07-27 13:07:32.344,-0.9,0.25,-0.06,24.54,50.17,20.08
2026-07-27 13:07:32.345,-0.77,0.32,-0.06,14.34,22.95,-2.2
2026-07-27 13:07:32.345,-0.77,0.32,-0.06,14.34,22.95,-2.2
2026-07-27 13:07:32.403,-0.72,0.37,-0.0,10.31,8.0,-21.0
2026-07-27 13:07:32.404,-0.75,0.38,-0.01,17.64,-5.31,-25.51
2026-07-27 13:07:32.404,-0.75,0.38,-0.01,17.64,-5.31,-25.51
2026-07-27 13:07:32.405,-0.88,0.35,-0.16,21.67,-12.7,-16.66
2026-07-27 13:07:32.405,-0.88,0.35,-0.16,21.67,-12.7,-16.66
2026-07-27 13:07:32.528,-1.03,0.34,-0.44,19.23,-14.04,-9.46
2026-07-27 13:07:32.529,-1.03,0.34,-0.44,19.23,-14.04,-9.46
2026-07-27 13:07:32.530,-1.11,0.38,-0.63,23.25,-0.12,-12.63
2026-07-27 13:07:32.530,-1.11,0.38,-0.63,23.25,-0.12,-12.63
2026-07-27 13:07:32.531,-1.05,0.34,-0.56,20.87,42.24,-15.01
2026-07-27 13:07:32.715,-0.89,0.21,-0.32,2.32,80.08,-13.12
2026-07-27 13:07:32.716,-0.89,0.21,-0.32,2.32,80.08,-13.12
2026-07-27 13:07:32.716,-0.76,0.12,-0.1,-31.8,80.81,-14.28
2026-07-27 13:07:32.716,-0.76,0.12,-0.1,-31.8,80.81,-14.28
2026-07-27 13:07:32.717,-0.71,0.1,-0.05,-66.35,58.11,-17.88
2026-07-27 13:07:32.824,-0.71,0.1,-0.05,-66.35,58.11,-17.88
2026-07-27 13:07:32.824,-0.67,0.14,-0.13,-69.4,26.73,-24.54
2026-07-27 13:07:32.825,-0.67,0.14,-0.13,-45.53,-11.23,-33.45
2026-07-27 13:07:33.183,-0.64,0.22,-0.18,-45.53,-11.23,-33.45
2026-07-27 13:07:33.184,-0.66,0.29,-0.2,-23.56,-48.83,-35.71
2026-07-27 13:07:33.185,-0.66,0.29,-0.2,-23.56,-48.83,-35.71
2026-07-27 13:07:33.185,-0.81,0.31,-0.27,-11.9,-75.74,-26.92
2026-07-27 13:07:33.186,-0.81,0.31,-0.27,-11.9,-75.74,-26.92
2026-07-27 13:07:33.186,-1.17,0.27,-0.43,2.14,-90.03,-15.5
2026-07-27 13:07:33.188,-1.17,0.27,-0.43,2.14,-90.03,-15.5
2026-07-27 13:07:33.188,-1.49,0.32,-0.57,21.61,-89.42,-16.3
2026-07-27 13:07:33.188,-1.33,0.51,-0.46,20.87,-63.29,-26.37
2026-07-27 13:07:33.188,-1.33,0.51,-0.46,20.87,-63.29,-26.37
2026-07-27 13:07:33.189,-0.84,0.55,-0.15,-4.39,-23.86,-20.87
2026-07-27 13:07:33.189,-0.84,0.55,-0.15,-4.39,-23.86,-20.87
2026-07-27 13:07:33.189,-0.63,0.31,0.11,-29.97,7.45,13.24
2026-07-27 13:07:33.190,-0.63,0.31,0.11,-29.97,7.45,13.24
2026-07-27 13:07:33.190,-0.82,0.08,0.11,-49.62,22.58,53.41
2026-07-27 13:07:33.191,-0.82,0.08,0.11,-49.62,22.58,53.41
2026-07-27 13:07:33.191,-1.04,0.04,-0.0,-48.46,5.0,54.93
2026-07-27 13:07:33.193,-1.08,0.23,-0.02,-26.67,-28.81,13.43
2026-07-27 13:07:33.193,-1.08,0.23,-0.02,-26.67,-28.81,13.43
2026-07-27 13:07:33.193,-1.04,0.47,-0.01,-3.6,-50.9,-29.72
2026-07-27 13:07:33.193,-1.04,0.47,-0.01,-3.6,-50.9,-29.72
2026-07-27 13:07:33.195,-0.99,0.52,0.02,40.34,-56.27,-40.53
2026-07-27 13:07:33.305,-0.99,0.52,0.02,40.34,-56.27,-40.53
2026-07-27 13:07:33.306,-0.93,0.38,0.06,86.18,-24.35,-13.18
2026-07-27 13:07:33.306,-0.89,0.26,0.06,74.34,28.81,23.38
2026-07-27 13:07:33.306,-0.89,0.26,0.06,74.34,28.81,23.38
2026-07-27 13:07:33.605,-0.89,0.22,0.02,22.77,42.24,37.29
2026-07-27 13:07:33.605,-0.89,0.22,0.02,22.77,42.24,37.29
2026-07-27 13:07:33.607,-0.93,0.22,-0.02,8.85,6.47,27.59
2026-07-27 13:07:33.607,-0.93,0.22,-0.02,8.85,6.47,27.59
2026-07-27 13:07:33.608,-0.97,0.24,-0.05,68.42,-41.81,10.68
2026-07-27 13:07:33.608,-0.97,0.24,-0.05,68.42,-41.81,10.68
2026-07-27 13:07:33.608,-1.0,0.26,-0.09,159.12,-81.79,-2.08
2026-07-27 13:07:33.608,-1.01,0.23,-0.12,217.29,-104.98,-6.04
2026-07-27 13:07:33.608,-1.01,0.23,-0.12,217.29,-104.98,-6.04
2026-07-27 13:07:33.609,-1.06,0.17,-0.07,211.12,-91.86,-0.49
2026-07-27 13:07:33.609,-1.06,0.17,-0.07,211.12,-91.86,-0.49
2026-07-27 13:07:33.609,-1.13,0.16,-0.03,145.39,-33.08,13.0
2026-07-27 13:07:33.610,-1.13,0.16,-0.03,145.39,-33.08,13.0
2026-07-27 13:07:33.612,-1.08,0.24,-0.07,67.26,23.56,19.59
2026-07-27 13:07:33.905,-0.94,0.37,-0.12,34.0,31.37,5.98
2026-07-27 13:07:33.906,-0.94,0.37,-0.12,34.0,31.37,5.98
2026-07-27 13:07:33.906,-0.85,0.46,-0.08,27.53,35.03,-1.65
2026-07-27 13:07:33.907,-0.85,0.46,-0.08,27.53,35.03,-1.65
2026-07-27 13:07:33.907,-0.83,0.53,-0.01,22.71,67.02,9.83
2026-07-27 13:07:33.907,-0.83,0.53,-0.01,22.71,67.02,9.83
2026-07-27 13:07:33.907,-0.86,0.62,0.04,56.03,82.52,19.17
2026-07-27 13:07:33.908,-0.86,0.62,0.04,56.03,82.52,19.17
2026-07-27 13:07:33.908,-0.86,0.55,0.04,99.85,60.06,31.01
2026-07-27 13:07:33.908,-0.78,0.37,-0.01,94.79,20.45,53.83
2026-07-27 13:07:33.910,-0.78,0.37,-0.01,94.79,20.45,53.83
2026-07-27 13:07:33.910,-0.73,0.28,-0.05,52.06,-8.54,71.47
2026-07-27 13:07:33.910,-0.73,0.28,-0.05,52.06,-8.54,71.47
2026-07-27 13:07:34.024,-0.78,0.3,-0.1,14.83,-19.96,71.29
2026-07-27 13:07:34.025,-0.78,0.3,-0.1,14.83,-19.96,71.29
2026-07-27 13:07:34.025,-0.88,0.38,-0.22,11.66,-33.14,54.57
2026-07-27 13:07:34.025,-0.88,0.38,-0.22,41.44,-59.08,33.57
2026-07-27 13:07:34.026,-0.93,0.41,-0.34,41.44,-59.08,33.57
2026-07-27 13:07:34.087,-0.93,0.37,-0.35,68.97,-80.44,22.34
2026-07-27 13:07:34.089,-0.93,0.37,-0.35,68.97,-80.44,22.34
2026-07-27 13:07:34.089,-0.88,0.33,-0.23,55.48,-74.95,19.53
2026-07-27 13:07:34.265,-0.88,0.33,-0.23,55.48,-74.95,19.53
2026-07-27 13:07:34.265,-0.83,0.38,-0.09,10.19,-49.68,14.22
2026-07-27 13:07:34.266,-0.83,0.38,-0.09,10.19,-49.68,14.22
2026-07-27 13:07:34.266,-0.82,0.53,-0.07,-19.96,-35.16,4.09
2026-07-27 13:07:34.266,-0.84,0.62,-0.09,-11.41,-40.47,-3.6
2026-07-27 13:07:34.694,-0.84,0.62,-0.09,-11.41,-40.47,-3.6
2026-07-27 13:07:34.695,-0.85,0.58,-0.06,13.79,-47.24,-5.13
2026-07-27 13:07:34.695,-0.85,0.58,-0.06,13.79,-47.24,-5.13
2026-07-27 13:07:34.695,-0.85,0.49,0.0,30.7,-46.2,-5.8
2026-07-27 13:07:34.695,-0.85,0.49,0.0,36.68,-44.49,-12.45
2026-07-27 13:07:34.696,-0.85,0.39,0.02,36.68,-44.49,-12.45
2026-07-27 13:07:34.696,-0.89,0.31,-0.03,49.19,-51.76,-26.55
2026-07-27 13:07:34.697,-0.89,0.31,-0.03,49.19,-51.76,-26.55
2026-07-27 13:07:34.697,-0.97,0.33,-0.09,86.0,-67.14,-46.33
2026-07-27 13:07:34.697,-0.97,0.33,-0.09,86.0,-67.14,-46.33
2026-07-27 13:07:34.698,-1.04,0.44,-0.18,117.49,-79.22,-67.99
2026-07-27 13:07:34.698,-1.04,0.44,-0.18,117.49,-79.22,-67.99
2026-07-27 13:07:34.698,-1.02,0.52,-0.19,111.15,-73.73,-78.25
2026-07-27 13:07:34.699,-0.92,0.48,-0.08,98.21,-47.36,-64.33
2026-07-27 13:07:34.699,-0.92,0.48,-0.08,98.21,-47.36,-64.33
2026-07-27 13:07:34.699,-0.86,0.33,0.01,94.54,-14.59,-33.2
2026-07-27 13:07:34.701,-0.86,0.33,0.01,94.54,-14.59,-33.2
2026-07-27 13:07:34.701,-0.91,0.19,0.05,99.49,12.33,-1.59
2026-07-27 13:07:34.701,-0.91,0.19,0.05,99.49,12.33,-1.59
2026-07-27 13:07:34.702,-1.05,0.12,0.04,90.88,33.2,23.99
2026-07-27 13:07:34.702,-1.05,0.12,0.04,90.88,33.2,23.99
2026-07-27 13:07:34.702,-1.1,0.06,-0.0,54.2,35.89,35.52
2026-07-27 13:07:34.744,-1.06,0.02,-0.02,38.57,17.09,25.63
2026-07-27 13:07:34.744,-1.06,0.02,-0.02,38.57,17.09,25.63
2026-07-27 13:07:35.045,-1.02,0.02,-0.01,51.88,-1.59,5.49
2026-07-27 13:07:35.046,-1.02,0.02,-0.01,51.88,-1.59,5.49
2026-07-27 13:07:35.046,-0.98,0.09,0.01,60.36,-13.24,-10.93
2026-07-27 13:07:35.047,-0.98,0.09,0.01,60.36,-13.24,-10.93
2026-07-27 13:07:35.048,-0.96,0.19,0.01,60.97,-23.44,-19.65
2026-07-27 13:07:35.048,-0.94,0.27,-0.02,64.51,-37.84,-23.13
2026-07-27 13:07:35.049,-0.94,0.27,-0.02,64.51,-37.84,-23.13
2026-07-27 13:07:35.051,-0.92,0.29,-0.05,79.59,-56.7,-24.23
2026-07-27 13:07:35.051,-0.92,0.29,-0.05,79.59,-56.7,-24.23
2026-07-27 13:07:35.052,-0.93,0.25,-0.06,110.66,-65.98,-20.26
2026-07-27 13:07:35.052,-0.93,0.25,-0.06,110.66,-65.98,-20.26
2026-07-27 13:07:35.052,-0.95,0.18,-0.03,134.09,-56.64,-10.25
2026-07-27 13:07:35.052,-0.95,0.18,-0.03,123.54,-39.06,0.24
2026-07-27 13:07:35.053,-0.97,0.12,-0.02,123.54,-39.06,0.24
2026-07-27 13:07:35.646,-0.97,0.11,-0.03,93.14,-24.48,4.94
2026-07-27 13:07:35.646,-0.97,0.11,-0.03,93.14,-24.48,4.94
2026-07-27 13:07:35.646,-0.96,0.16,-0.03,68.85,-14.65,2.38
2026-07-27 13:07:35.647,-0.96,0.16,-0.03,68.85,-14.65,2.38
2026-07-27 13:07:35.647,-0.94,0.21,-0.02,62.26,-11.72,-1.95
2026-07-27 13:07:35.648,-0.94,0.21,-0.02,62.26,-11.72,-1.95
2026-07-27 13:07:35.648,-0.94,0.21,-0.02,68.6,-15.44,-0.37
2026-07-27 13:07:35.648,-0.96,0.17,-0.05,74.65,-20.26,8.36
2026-07-27 13:07:35.649,-0.96,0.17,-0.05,74.65,-20.26,8.36
2026-07-27 13:07:35.649,-0.99,0.11,-0.07,75.13,-23.01,17.64
2026-07-27 13:07:35.649,-0.99,0.11,-0.07,75.13,-23.01,17.64
2026-07-27 13:07:35.650,-1.0,0.07,-0.08,70.92,-24.84,20.81
2026-07-27 13:07:35.650,-1.0,0.07,-0.08,70.92,-24.84,20.81
2026-07-27 13:07:35.650,-1.0,0.09,-0.09,63.48,-29.3,15.08
2026-07-27 13:07:35.651,-1.0,0.09,-0.09,63.48,-29.3,15.08
2026-07-27 13:07:35.651,-1.02,0.13,-0.09,44.07,-36.19,3.54
2026-07-27 13:07:35.652,-1.08,0.15,-0.06,17.82,-32.9,-4.03
2026-07-27 13:07:35.652,-1.08,0.15,-0.06,17.82,-32.9,-4.03
2026-07-27 13:07:35.653,-1.1,0.17,-0.05,1.65,-14.95,-5.43
2026-07-27 13:07:35.654,-1.1,0.17,-0.05,1.65,-14.95,-5.43
2026-07-27 13:07:35.655,-1.02,0.26,-0.06,-0.18,-1.16,-11.54
2026-07-27 13:07:35.656,-1.02,0.26,-0.06,-0.18,-1.16,-11.54
2026-07-27 13:07:35.657,-0.86,0.36,-0.04,5.37,3.66,-23.74
2026-07-27 13:07:35.657,-0.86,0.36,-0.04,5.37,3.66,-23.74
2026-07-27 13:07:35.658,-0.82,0.43,0.01,3.3,32.41,-19.65
2026-07-27 13:07:35.658,-0.82,0.43,0.01,2.75,87.59,8.48
2026-07-27 13:07:35.659,-1.0,0.44,0.07,2.75,87.59,8.48
2026-07-27 13:07:36.488,-1.13,0.38,0.07,29.17,109.13,30.21
2026-07-27 13:07:36.488,-1.13,0.38,0.07,29.17,109.13,30.21
2026-07-27 13:07:36.488,-1.04,0.29,-0.01,63.78,80.44,30.46
2026-07-27 13:07:36.489,-1.04,0.29,-0.01,63.78,80.44,30.46
2026-07-27 13:07:36.489,-0.87,0.27,-0.08,69.4,44.92,22.52
2026-07-27 13:07:36.489,-0.87,0.27,-0.08,69.4,44.92,22.52
2026-07-27 13:07:36.784,-0.78,0.3,-0.13,50.17,29.85,16.17
2026-07-27 13:07:36.785,-0.81,0.3,-0.17,29.66,32.47,15.26
2026-07-27 13:07:36.785,-0.81,0.3,-0.17,29.66,32.47,15.26
2026-07-27 13:07:38.051,-0.87,0.25,-0.2,14.77,37.41,18.55
2026-07-27 13:07:38.052,-0.87,0.25,-0.2,14.77,37.41,18.55
2026-07-27 13:07:38.171,-0.87,0.22,-0.22,2.99,30.88,17.27
2026-07-27 13:07:38.175,-0.87,0.22,-0.22,2.99,30.88,17.27
2026-07-27 13:07:38.176,-0.84,0.25,-0.26,-2.56,10.62,6.96
2026-07-27 13:07:38.176,-0.84,0.25,-0.26,-8.67,-6.16,-1.59
2026-07-27 13:07:38.176,-0.83,0.33,-0.36,-8.67,-6.16,-1.59
2026-07-27 13:07:38.177,-0.87,0.41,-0.51,-22.95,-4.52,-0.43
2026-07-27 13:07:38.177,-0.87,0.41,-0.51,-22.95,-4.52,-0.43
2026-07-27 13:07:38.177,-0.85,0.44,-0.54,-35.03,12.02,1.89
2026-07-27 13:07:38.177,-0.85,0.44,-0.54,-35.03,12.02,1.89
2026-07-27 13:07:38.178,-0.78,0.37,-0.4,-46.2,23.25,-3.48
2026-07-27 13:07:38.178,-0.78,0.37,-0.4,-46.2,23.25,-3.48
2026-07-27 13:07:38.178,-0.99,0.25,-0.29,-59.51,7.57,-16.48
2026-07-27 13:07:38.179,-0.99,0.25,-0.29,-59.51,7.57,-16.48
2026-07-27 13:07:38.179,-1.1,0.26,-0.15,-41.02,-21.12,-30.46
2026-07-27 13:07:38.179,-0.91,0.33,0.02,-6.77,-25.27,-32.84
2026-07-27 13:07:38.180,-0.91,0.33,0.02,-6.77,-25.27,-32.84
2026-07-27 13:07:38.180,-0.9,0.32,0.07,-14.59,-20.75,-22.16
2026-07-27 13:07:38.180,-0.9,0.32,0.07,-14.59,-20.75,-22.16
2026-07-27 13:07:38.180,-0.94,0.26,0.02,-43.27,-29.24,-11.9
2026-07-27 13:07:38.180,-0.94,0.26,0.02,-60.36,-33.08,-13.0
2026-07-27 13:07:38.183,-0.94,0.21,-0.03,-60.36,-33.08,-13.0
2026-07-27 13:07:38.183,-0.98,0.17,-0.04,-65.49,-23.68,-16.85
2026-07-27 13:07:38.184,-0.98,0.17,-0.04,-65.49,-23.68,-16.85
2026-07-27 13:07:38.184,-1.0,0.21,-0.05,-53.65,-10.5,-19.65
2026-07-27 13:07:38.184,-1.0,0.21,-0.05,-53.65,-10.5,-19.65
2026-07-27 13:07:38.185,-0.98,0.28,-0.08,-33.57,-9.22,-27.59
2026-07-27 13:07:38.185,-0.98,0.28,-0.08,-33.57,-9.22,-27.59
2026-07-27 13:07:38.185,-0.96,0.26,-0.09,-10.25,-15.75,-31.68
2026-07-27 13:07:38.185,-0.96,0.26,-0.09,9.64,-19.71,-27.1
2026-07-27 13:07:38.186,-0.95,0.2,-0.09,9.64,-19.71,-27.1
2026-07-27 13:07:38.186,-0.96,0.18,-0.09,13.43,-18.8,-20.39
2026-07-27 13:07:38.224,-0.96,0.18,-0.09,13.43,-18.8,-20.39
2026-07-27 13:07:38.225,-0.97,0.17,-0.08,12.02,-14.95,-15.5
2026-07-27 13:07:38.225,-0.97,0.17,-0.08,12.02,-14.95,-15.5
2026-07-27 13:07:38.226,-0.96,0.18,-0.06,15.14,-11.23,-11.84
2026-07-27 13:07:38.226,-0.96,0.18,-0.06,15.14,-11.23,-11.84
2026-07-27 13:07:38.226,-0.96,0.18,-0.04,19.41,-6.77,-6.77
2026-07-27 13:07:38.227,-0.96,0.18,-0.04,19.41,-6.77,-6.77
2026-07-27 13:07:38.403,-0.97,0.16,-0.02,23.13,0.85,-0.98
2026-07-27 13:07:38.404,-0.97,0.16,-0.02,27.59,8.61,1.95
2026-07-27 13:07:38.405,-0.98,0.12,-0.01,27.59,8.61,1.95
2026-07-27 13:07:38.405,-0.99,0.1,-0.01,31.86,8.61,1.83
2026-07-27 13:07:38.405,-0.99,0.1,-0.01,31.86,8.61,1.83
2026-07-27 13:07:38.407,-0.99,0.1,-0.03,32.1,-1.89,-1.46
2026-07-27 13:07:38.407,-0.99,0.1,-0.03,32.1,-1.89,-1.46
2026-07-27 13:07:38.409,-0.99,0.12,-0.06,28.38,-16.48,-7.2
2026-07-27 13:07:38.409,-0.99,0.12,-0.06,28.38,-16.48,-7.2
2026-07-27 13:07:38.409,-0.97,0.13,-0.08,25.94,-25.88,-9.52
2026-07-27 13:07:38.409,-0.97,0.13,-0.08,25.94,-25.88,-9.52
2026-07-27 13:07:38.409,-0.94,0.13,-0.08,28.93,-25.63,-5.25
2026-07-27 13:07:38.409,-0.94,0.13,-0.08,36.25,-19.47,1.71
2026-07-27 13:07:38.410,-0.94,0.13,-0.05,36.25,-19.47,1.71
2026-07-27 13:07:38.465,-0.96,0.12,-0.06,40.59,-14.53,8.0
2026-07-27 13:07:38.465,-0.96,0.12,-0.06,40.59,-14.53,8.0
2026-07-27 13:07:38.704,-0.99,0.08,-0.08,35.95,-14.04,11.96
2026-07-27 13:07:38.705,-0.99,0.08,-0.08,35.95,-14.04,11.96
2026-07-27 13:07:38.706,-1.0,0.05,-0.09,25.51,-15.2,13.49
2026-07-27 13:07:38.706,-1.0,0.05,-0.09,25.51,-15.2,13.49
2026-07-27 13:07:38.707,-1.0,0.04,-0.07,12.45,-13.98,14.16
2026-07-27 13:07:38.707,-1.0,0.04,-0.07,12.45,-13.98,14.16
2026-07-27 13:07:38.707,-0.82,0.29,-0.14,-31.92,35.52,-40.71
2026-07-27 13:07:38.710,-0.87,0.26,-0.4,-55.36,9.46,-14.53
2026-07-27 13:07:38.710,-0.87,0.26,-0.4,-55.36,9.46,-14.53
2026-07-27 13:07:38.710,-0.91,0.34,-0.52,-56.58,11.11,-9.09
2026-07-27 13:07:38.710,-0.91,0.34,-0.52,-54.2,18.43,-3.6
2026-07-27 13:07:38.711,-0.81,0.32,-0.41,-54.2,18.43,-3.6
2026-07-27 13:07:38.711,-0.82,0.2,-0.15,-62.07,7.81,-3.23
2026-07-27 13:07:38.711,-0.82,0.2,-0.15,-62.07,7.81,-3.23
2026-07-27 13:07:38.712,-1.16,0.24,-0.11,-61.22,-26.25,-13.12
2026-07-27 13:07:38.712,-1.16,0.24,-0.11,-61.22,-26.25,-13.12
2026-07-27 13:07:38.713,-1.21,0.43,-0.3,-10.8,-59.08,-24.17
2026-07-27 13:07:38.715,-1.21,0.43,-0.3,-10.8,-59.08,-24.17
2026-07-27 13:07:38.715,-0.86,0.46,-0.21,30.76,-56.21,-18.25
2026-07-27 13:07:38.715,-0.72,0.28,0.11,1.53,-23.13,6.47
2026-07-27 13:07:38.716,-0.72,0.28,0.11,1.53,-23.13,6.47
2026-07-27 13:07:38.716,-0.91,0.11,0.06,-58.78,-11.29,29.11
2026-07-27 13:07:38.717,-0.91,0.11,0.06,-58.78,-11.29,29.11
2026-07-27 13:07:38.717,-1.1,0.11,-0.15,-80.87,-32.78,25.82
2026-07-27 13:07:38.717,-1.1,0.11,-0.15,-80.87,-32.78,25.82
2026-07-27 13:07:38.718,-1.07,0.22,-0.13,-63.05,-37.05,3.17
2026-07-27 13:07:38.719,-1.07,0.22,-0.13,-34.79,-19.78,-16.3
2026-07-27 13:07:38.720,-0.97,0.31,-0.02,-34.79,-19.78,-16.3
2026-07-27 13:07:38.720,-0.95,0.27,0.02,-4.33,-16.91,-21.42
2026-07-27 13:07:38.720,-0.95,0.27,0.02,-4.33,-16.91,-21.42
2026-07-27 13:07:38.721,-0.95,0.17,0.03,5.43,-20.08,-10.68
2026-07-27 13:07:38.721,-0.95,0.17,0.03,5.43,-20.08,-10.68
2026-07-27 13:07:38.841,-0.93,0.15,0.03,-9.64,-15.01,0.92
2026-07-27 13:07:39.245,-0.93,0.15,0.03,-9.64,-15.01,0.92
2026-07-27 13:07:39.246,-0.91,0.21,0.03,-29.85,-11.05,0.31
2026-07-27 13:07:39.246,-0.91,0.28,0.0,-33.75,-15.87,-7.32
2026-07-27 13:07:39.247,-0.91,0.28,0.0,-33.75,-15.87,-7.32
2026-07-27 13:07:39.247,-0.94,0.3,-0.01,-14.47,-23.19,-11.78
2026-07-27 13:07:39.248,-0.94,0.3,-0.01,-14.47,-23.19,-11.78
2026-07-27 13:07:39.248,-0.96,0.27,-0.0,12.57,-24.41,-8.61
2026-07-27 13:07:39.248,-0.96,0.27,-0.0,12.57,-24.41,-8.61
2026-07-27 13:07:39.248,-0.97,0.21,0.0,26.18,-14.83,2.44
2026-07-27 13:07:39.249,-0.97,0.21,0.0,26.18,-14.83,2.44
2026-07-27 13:07:39.250,-0.99,0.14,-0.02,15.14,-2.5,13.18
2026-07-27 13:07:39.363,-1.0,0.13,-0.08,-4.09,-5.55,11.9
2026-07-27 13:07:39.364,-1.0,0.13,-0.08,-4.09,-5.55,11.9
2026-07-27 13:07:39.364,-1.01,0.17,-0.14,-8.73,-27.22,-0.98
2026-07-27 13:07:39.364,-1.01,0.17,-0.14,-8.73,-27.22,-0.98
2026-07-27 13:07:39.365,-1.0,0.23,-0.2,3.78,-54.14,-15.56
2026-07-27 13:07:39.367,-1.0,0.23,-0.2,3.78,-54.14,-15.56
2026-07-27 13:07:39.367,-1.06,0.25,-0.21,22.46,-64.33,-21.0
2026-07-27 13:07:39.368,-1.06,0.25,-0.21,22.46,-64.33,-21.0
2026-07-27 13:07:39.368,-1.15,0.21,-0.13,20.87,-22.71,-3.6
2026-07-27 13:07:39.368,-1.06,0.24,-0.03,-10.25,64.45,24.78
2026-07-27 13:07:39.369,-1.06,0.24,-0.03,-10.25,64.45,24.78
2026-07-27 13:07:39.373,-0.94,0.42,0.01,-45.04,144.29,38.94
2026-07-27 13:07:39.375,-0.94,0.42,0.01,-45.04,144.29,38.94
2026-07-27 13:07:39.375,-1.05,0.51,0.08,-35.03,176.27,44.98
2026-07-27 13:07:39.375,-1.05,0.51,0.08,-35.03,176.27,44.98
2026-07-27 13:07:39.375,-1.09,0.33,0.15,33.39,136.9,44.19
2026-07-27 13:07:39.376,-1.09,0.33,0.15,79.65,62.19,27.1
2026-07-27 13:07:40.928,-0.95,0.16,0.09,79.65,62.19,27.1
2026-07-27 13:07:40.928,-0.87,0.07,-0.09,60.73,22.71,3.17
2026-07-27 13:07:40.929,-0.87,0.07,-0.09,60.73,22.71,3.17
2026-07-27 13:07:40.929,-0.82,0.14,-0.16,24.54,22.03,-24.72
2026-07-27 13:07:40.929,-0.82,0.14,-0.16,24.54,22.03,-24.72
2026-07-27 13:07:40.930,-0.72,0.35,-0.11,-11.35,26.67,-46.14
2026-07-27 13:07:40.930,-0.72,0.35,-0.11,-11.35,26.67,-46.14
2026-07-27 13:07:40.930,-0.66,0.47,-0.11,-35.83,20.32,-42.05
2026-07-27 13:07:40.930,-0.72,0.38,-0.2,-26.0,-3.85,-24.78
2026-07-27 13:07:40.931,-0.72,0.38,-0.2,-26.0,-3.85,-24.78
2026-07-27 13:07:40.931,-0.89,0.23,-0.4,-0.67,-32.78,-15.56
2026-07-27 13:07:40.931,-0.89,0.23,-0.4,-0.67,-32.78,-15.56
2026-07-27 13:07:40.931,-1.06,0.23,-0.63,-1.16,-33.57,-10.93
2026-07-27 13:07:40.992,-1.06,0.23,-0.63,-1.16,-33.57,-10.93
2026-07-27 13:07:40.993,-0.95,0.27,-0.64,-21.3,-0.61,-1.28
2026-07-27 13:07:40.993,-0.95,0.27,-0.64,-21.3,-0.61,-1.28
2026-07-27 13:07:40.994,-0.93,0.22,-0.27,-29.42,13.55,2.62
2026-07-27 13:07:40.996,-1.17,0.24,0.08,-18.25,-15.44,-2.44
2026-07-27 13:07:40.996,-1.17,0.24,0.08,-18.25,-15.44,-2.44
2026-07-27 13:07:40.997,-1.1,0.36,-0.0,10.68,-45.47,-3.66
2026-07-27 13:07:40.997,-1.1,0.36,-0.0,10.68,-45.47,-3.66
2026-07-27 13:07:40.998,-0.88,0.35,-0.08,4.82,-42.85,0.12
2026-07-27 13:07:40.998,-0.88,0.35,-0.08,4.82,-42.85,0.12
2026-07-27 13:07:40.998,-0.84,0.25,0.04,-63.17,-18.43,6.96
2026-07-27 13:07:40.998,-0.84,0.25,0.04,-63.17,-18.43,6.96
2026-07-27 13:07:40.999,-0.95,0.21,-0.0,-121.58,-3.23,17.21
2026-07-27 13:07:40.999,-1.04,0.21,-0.12,-106.51,-5.37,20.45
2026-07-27 13:07:40.999,-1.04,0.21,-0.12,-106.51,-5.37,20.45
2026-07-27 13:07:40.999,-1.02,0.22,-0.1,-43.33,-10.62,10.56
2026-07-27 13:07:40.999,-1.02,0.22,-0.1,-43.33,-10.62,10.56
2026-07-27 13:07:41.000,-0.95,0.2,-0.03,-1.04,-11.47,0.43
2026-07-27 13:07:41.000,-0.95,0.2,-0.03,-1.04,-11.47,0.43
2026-07-27 13:07:41.001,-0.91,0.19,0.01,-4.15,-9.64,-2.14
2026-07-27 13:07:41.001,-0.91,0.19,0.01,-4.15,-9.64,-2.14
2026-07-27 13:07:41.001,-0.91,0.24,0.01,-21.55,-11.54,-3.78
2026-07-27 13:07:41.001,-0.91,0.24,0.01,-21.55,-11.54,-3.78
2026-07-27 13:07:41.002,-0.91,0.29,-0.02,-16.11,-21.18,-5.8
2026-07-27 13:07:41.002,-0.91,0.29,-0.02,-16.11,-21.18,-5.8
2026-07-27 13:07:41.002,-0.93,0.3,-0.08,6.41,-30.4,-2.38
2026-07-27 13:07:41.002,-0.93,0.26,-0.14,22.46,-26.73,8.06
2026-07-27 13:07:41.005,-0.93,0.26,-0.14,22.46,-26.73,8.06
2026-07-27 13:07:41.005,-1.01,0.22,-0.17,28.08,-7.39,19.53
2026-07-27 13:07:41.006,-1.01,0.22,-0.17,28.08,-7.39,19.53
2026-07-27 13:07:41.006,-1.13,0.31,-0.17,26.61,23.56,22.95
2026-07-27 13:07:41.006,-1.13,0.31,-0.17,26.61,23.56,22.95
2026-07-27 13:07:41.007,-1.09,0.54,-0.18,27.89,54.57,17.4
2026-07-27 13:07:41.007,-1.09,0.54,-0.18,49.26,71.78,17.82
2026-07-27 13:07:41.007,-0.97,0.65,-0.17,49.26,71.78,17.82
2026-07-27 13:07:41.007,-0.89,0.46,-0.09,71.11,69.4,28.02
2026-07-27 13:07:41.007,-0.89,0.46,-0.09,71.11,69.4,28.02
2026-07-27 13:07:41.007,-0.79,0.26,0.09,49.19,53.59,28.32
2026-07-27 13:07:41.008,-0.79,0.26,0.09,49.19,53.59,28.32
2026-07-27 13:07:41.008,-0.69,0.29,0.12,-2.81,32.29,14.77
2026-07-27 13:07:41.008,-0.69,0.29,0.12,-2.81,32.29,14.77
2026-07-27 13:07:41.009,-0.69,0.41,-0.01,-32.41,5.62,-1.28
2026-07-27 13:07:41.009,-0.69,0.41,-0.01,-32.41,5.62,-1.28
2026-07-27 13:07:41.009,-0.73,0.49,-0.09,-27.28,-19.41,-13.31
2026-07-27 13:07:41.009,-0.79,0.51,-0.09,-11.17,-38.76,-19.84
2026-07-27 13:07:41.010,-0.79,0.51,-0.09,-11.17,-38.76,-19.84
2026-07-27 13:07:41.010,-0.9,0.44,-0.19,-2.01,-58.11,-21.67
2026-07-27 13:07:41.010,-0.9,0.44,-0.19,-2.01,-58.11,-21.67
2026-07-27 13:07:41.012,-1.04,0.39,-0.37,3.6,-66.89,-19.35
2026-07-27 13:07:41.012,-0.88,0.36,0.02,-62.56,32.59,-5.25
2026-07-27 13:07:41.012,-0.88,0.36,0.02,-62.56,32.59,-5.25
2026-07-27 13:07:41.012,-0.89,0.53,-0.02,-45.17,6.53,-22.89
2026-07-27 13:07:41.012,-0.89,0.53,-0.02,-45.17,6.53,-22.89
2026-07-27 13:07:41.164,-0.88,0.55,-0.06,-29.36,-1.4,-18.31
2026-07-27 13:07:41.165,-0.88,0.48,-0.15,-25.51,3.78,0.67
2026-07-27 13:07:41.165,-0.88,0.48,-0.15,-25.51,3.78,0.67
2026-07-27 13:07:41.165,-0.92,0.39,-0.21,-17.4,5.74,12.57
2026-07-27 13:07:41.165,-0.92,0.39,-0.21,-17.4,5.74,12.57
2026-07-27 13:07:41.464,-0.95,0.31,-0.2,-0.37,5.68,12.7
2026-07-27 13:07:41.465,-0.95,0.31,-0.2,-0.37,5.68,12.7
2026-07-27 13:07:41.467,-0.93,0.26,-0.12,10.07,6.04,7.14
2026-07-27 13:07:41.467,-0.93,0.26,-0.12,10.07,6.04,7.14
2026-07-27 13:07:41.467,-0.91,0.28,-0.07,1.71,5.62,1.83
2026-07-27 13:07:41.467,-0.91,0.28,-0.07,1.71,5.62,1.83
2026-07-27 13:07:41.526,-0.91,0.28,-0.07,1.71,5.62,1.83
2026-07-27 13:07:41.527,-0.91,0.28,-0.07,1.71,5.62,1.83
2026-07-27 13:07:41.527,-0.88,0.47,-0.13,-17.7,0.06,-4.39
2026-07-27 13:07:41.527,-0.88,0.47,-0.13,-17.7,0.06,-4.39
2026-07-27 13:07:41.527,-0.88,0.47,-0.13,-7.87,-3.23,-2.32
2026-07-27 13:07:41.527,-0.88,0.47,-0.13,-7.87,-3.23,-2.32
2026-07-27 13:07:41.645,-0.88,0.47,-0.13,-7.87,-3.23,-2.32
2026-07-27 13:07:41.645,-0.88,0.47,-0.13,-7.87,-3.23,-2.32
2026-07-27 13:07:41.646,-0.91,0.36,-0.15,7.81,-3.3,6.77
2026-07-27 13:07:41.646,-0.91,0.36,-0.15,7.81,-3.3,6.77
2026-07-27 13:07:41.646,-0.91,0.35,-0.17,8.0,-3.36,5.8
2026-07-27 13:07:41.647,-0.9,0.37,-0.17,5.98,-3.72,2.56
2026-07-27 13:07:42.305,-0.9,0.37,-0.17,5.98,-3.72,2.56
2026-07-27 13:07:43.864,-0.89,0.4,-0.16,2.81,-2.75,0.98
2026-07-27 13:07:43.865,-0.89,0.4,-0.16,2.81,-2.75,0.98
2026-07-27 13:07:43.865,-0.89,0.41,-0.16,-0.12,-0.85,1.71
2026-07-27 13:07:43.865,-0.89,0.41,-0.16,-0.12,-0.85,1.71
2026-07-27 13:07:43.866,-0.89,0.41,-0.15,-0.98,0.49,3.05
2026-07-27 13:07:43.866,-0.89,0.41,-0.15,-0.98,0.49,3.05
2026-07-27 13:07:43.867,-0.89,0.41,-0.15,-0.49,0.73,3.54
2026-07-27 13:07:43.868,-0.89,0.41,-0.15,-0.49,0.73,3.54
2026-07-27 13:07:43.868,-0.89,0.41,-0.15,-0.92,0.37,2.75
2026-07-27 13:07:43.870,-0.89,0.41,-0.15,-2.69,-0.12,1.34
