Timestamp,AccX,AccY,AccZ,GyroX,GyroY,GyroZ
2026-07-27 13:35:40.905,-0.06,0.22,0.94,10.13,10.01,12.27
2026-07-27 13:35:40.973,-0.06,0.22,0.94,10.13,10.01,12.27
2026-07-27 13:35:41.012,-0.06,0.25,0.97,9.09,5.8,11.6
2026-07-27 13:35:41.102,-0.06,0.25,0.97,9.09,5.8,11.6
2026-07-27 13:35:41.155,-0.06,0.27,0.96,11.9,2.99,9.09
2026-07-27 13:35:41.155,-0.05,0.27,0.91,14.71,2.62,4.82
2026-07-27 13:35:41.186,-0.05,0.27,0.91,14.71,2.62,4.82
2026-07-27 13:35:41.213,-0.03,0.26,0.86,14.95,2.5,0.18
2026-07-27 13:35:41.263,-0.03,0.26,0.86,14.95,2.5,0.18
2026-07-27 13:35:41.273,-0.02,0.26,0.85,10.86,-0.12,-3.78
2026-07-27 13:35:41.274,-0.02,0.26,0.85,10.86,-0.12,-3.78
2026-07-27 13:35:41.274,-0.01,0.27,0.9,3.85,-5.0,-5.68
2026-07-27 13:35:41.274,-0.01,0.27,0.9,3.85,-5.0,-5.68
2026-07-27 13:35:41.274,-0.01,0.3,1.0,-2.44,-10.31,-4.82
2026-07-27 13:35:41.274,-0.01,0.3,1.0,-6.35,-13.49,-2.5
2026-07-27 13:35:41.274,-0.0,0.33,1.09,-6.35,-13.49,-2.5
2026-07-27 13:35:41.274,-0.0,0.33,1.08,-3.23,-10.68,-0.49
2026-07-27 13:35:41.274,-0.0,0.33,1.08,-3.23,-10.68,-0.49
2026-07-27 13:35:41.274,-0.02,0.31,1.0,5.49,-3.91,-0.49
2026-07-27 13:35:41.274,-0.02,0.31,1.0,5.49,-3.91,-0.49
2026-07-27 13:35:41.275,-0.03,0.29,0.93,10.74,0.06,-3.23
2026-07-27 13:35:41.275,-0.03,0.29,0.93,10.74,0.06,-3.23
2026-07-27 13:35:41.275,-0.03,0.28,0.93,11.96,-0.79,-7.02
2026-07-27 13:35:41.275,-0.03,0.28,0.93,10.68,-3.36,-8.54
2026-07-27 13:35:41.275,-0.02,0.29,0.97,10.68,-3.36,-8.54
2026-07-27 13:35:41.275,-0.01,0.32,1.01,6.47,-4.7,-5.49
2026-07-27 13:35:41.279,-0.01,0.32,1.01,6.47,-4.7,-5.49
2026-07-27 13:35:41.303,0.0,0.34,1.0,0.67,-3.78,-0.24
2026-07-27 13:35:41.303,0.0,0.34,1.0,0.67,-3.78,-0.24
2026-07-27 13:35:41.455,0.01,0.35,0.95,-5.8,-1.89,3.48
2026-07-27 13:35:41.507,0.01,0.35,0.95,-5.8,-1.89,3.48
2026-07-27 13:35:41.507,0.0,0.34,0.9,-9.34,-1.1,5.19
2026-07-27 13:35:41.507,0.0,0.34,0.9,-9.34,-1.1,5.19
2026-07-27 13:35:41.508,-0.01,0.34,0.89,-6.77,-1.1,5.07
2026-07-27 13:35:41.508,-0.01,0.34,0.89,-2.14,-1.4,3.54
2026-07-27 13:35:41.508,-0.02,0.35,0.9,-2.14,-1.4,3.54
2026-07-27 13:35:41.508,-0.02,0.35,0.93,-0.67,-1.89,1.53
2026-07-27 13:35:41.549,-0.02,0.35,0.93,-0.67,-1.89,1.53
2026-07-27 13:35:41.561,-0.02,0.34,0.96,-2.2,-2.38,-0.67
2026-07-27 13:35:41.562,-0.02,0.34,0.96,-2.2,-2.38,-0.67
2026-07-27 13:35:41.579,-0.01,0.33,0.97,-5.8,-3.11,-2.26
2026-07-27 13:35:41.583,-0.01,0.33,0.97,-5.8,-3.11,-2.26
2026-07-27 13:35:41.703,-0.01,0.31,0.98,-11.47,-4.03,-3.11
2026-07-27 13:35:41.737,-0.01,0.31,0.98,-11.47,-4.03,-3.11
2026-07-27 13:35:41.744,-0.0,0.29,0.97,-15.44,-4.52,-3.6
2026-07-27 13:35:41.766,-0.01,0.29,0.94,-15.44,-4.88,-3.6
2026-07-27 13:35:41.766,-0.01,0.29,0.94,-15.44,-4.88,-3.6
2026-07-27 13:35:41.767,-0.01,0.28,0.94,-14.34,-6.16,-3.6
2026-07-27 13:35:41.771,-0.01,0.28,0.94,-14.34,-6.16,-3.6
2026-07-27 13:35:41.771,-0.01,0.28,0.96,-13.12,-7.32,-4.15
2026-07-27 13:35:41.771,-0.01,0.28,0.96,-13.12,-7.32,-4.15
2026-07-27 13:35:41.903,-0.02,0.27,0.98,-11.41,-6.47,-5.37
2026-07-27 13:35:41.949,-0.02,0.27,0.98,-11.41,-6.47,-5.37
2026-07-27 13:35:41.954,-0.02,0.26,0.99,-10.86,-3.97,-7.02
2026-07-27 13:35:41.967,-0.01,0.25,1.0,-10.62,-0.98,-8.36
2026-07-27 13:35:41.968,-0.01,0.25,1.0,-10.62,-0.98,-8.36
2026-07-27 13:35:41.968,-0.02,0.25,1.0,-8.97,1.71,-9.16
2026-07-27 13:35:41.968,-0.02,0.25,1.0,-8.97,1.71,-9.16
2026-07-27 13:35:41.968,-0.05,0.27,0.97,-5.86,4.21,-10.44
2026-07-27 13:35:42.000,-0.05,0.27,0.97,-5.86,4.21,-10.44
2026-07-27 13:35:42.003,-0.14,0.38,0.93,2.87,6.65,-16.48
2026-07-27 13:35:42.005,-0.14,0.38,0.93,2.87,6.65,-16.48
2026-07-27 13:35:42.129,-0.23,0.52,0.89,15.2,7.75,-38.02
2026-07-27 13:35:42.152,-0.23,0.52,0.89,22.89,8.67,-82.28
2026-07-27 13:35:42.152,-0.27,0.59,0.83,22.89,8.67,-82.28
2026-07-27 13:35:42.153,-0.24,0.58,0.79,27.77,9.09,-145.69
2026-07-27 13:35:42.153,-0.24,0.58,0.79,27.77,9.09,-145.69
2026-07-27 13:35:42.180,-0.18,0.56,0.9,33.2,1.77,-214.29
2026-07-27 13:35:42.181,-0.18,0.56,0.9,33.2,1.77,-214.29
2026-07-27 13:35:42.249,-0.11,0.54,1.11,68.66,-42.72,-245.24
2026-07-27 13:35:42.259,-0.11,0.54,1.11,106.26,-111.82,-243.53
2026-07-27 13:35:42.263,-0.03,0.46,1.1,106.26,-111.82,-243.53
2026-07-27 13:35:42.334,-0.01,0.34,0.98,54.14,-131.35,-264.4
2026-07-27 13:35:42.334,-0.01,0.34,0.98,54.14,-131.35,-264.4
2026-07-27 13:35:42.360,-0.1,0.2,0.89,-44.86,-103.15,-282.71
2026-07-27 13:35:42.420,-0.1,0.2,0.89,-44.86,-103.15,-282.71
2026-07-27 13:35:42.422,-0.18,0.06,0.83,-100.34,-67.44,-263.12
2026-07-27 13:35:42.424,-0.17,-0.06,0.83,-76.23,-23.99,-224.85
2026-07-27 13:35:42.424,-0.17,-0.06,0.83,-76.23,-23.99,-224.85
2026-07-27 13:35:42.424,-0.09,-0.12,0.86,16.05,-4.52,-170.78
2026-07-27 13:35:42.494,-0.09,-0.12,0.86,16.05,-4.52,-170.78
2026-07-27 13:35:42.501,-0.08,-0.07,0.93,88.56,-25.88,-96.01
2026-07-27 13:35:42.546,-0.08,-0.07,0.93,88.56,-25.88,-96.01
2026-07-27 13:35:42.554,-0.18,0.02,0.98,86.36,-47.0,-30.15
2026-07-27 13:35:42.558,-0.23,0.05,1.02,35.71,-45.47,-7.26
2026-07-27 13:35:42.606,-0.23,0.05,1.02,35.71,-45.47,-7.26
2026-07-27 13:35:42.606,-0.21,0.05,1.02,-26.73,-37.6,-39.67
2026-07-27 13:35:42.612,-0.21,0.05,1.02,-26.73,-37.6,-39.67
2026-07-27 13:35:42.696,-0.27,0.2,1.09,-43.82,-11.17,-156.25
2026-07-27 13:35:42.696,-0.27,0.2,1.09,-43.82,-11.17,-156.25
2026-07-27 13:35:42.739,-0.41,0.47,1.1,11.41,31.07,-295.41
2026-07-27 13:35:42.756,-0.44,0.56,0.97,37.11,37.41,-314.64
2026-07-27 13:35:42.757,-0.44,0.56,0.97,37.11,37.41,-314.64
2026-07-27 13:35:42.779,-0.37,0.46,0.86,13.43,13.37,-242.55
2026-07-27 13:35:42.794,-0.37,0.46,0.86,13.43,13.37,-242.55
2026-07-27 13:35:42.839,-0.31,0.32,0.76,17.7,-2.99,-199.4
2026-07-27 13:35:42.848,-0.31,0.32,0.76,47.12,-5.0,-222.72
2026-07-27 13:35:42.848,-0.32,0.24,0.66,47.12,-5.0,-222.72
2026-07-27 13:35:42.923,-0.45,0.2,0.63,70.86,-6.41,-296.26
2026-07-27 13:35:42.936,-0.45,0.2,0.63,70.86,-6.41,-296.26
2026-07-27 13:35:42.972,-0.62,0.14,0.74,83.98,-18.92,-370.91
2026-07-27 13:35:42.972,-0.62,0.14,0.74,83.98,-18.92,-370.91
2026-07-27 13:35:42.978,-0.73,0.08,0.91,78.8,-31.92,-377.93
2026-07-27 13:35:43.036,-0.73,0.08,0.91,27.34,-24.41,-280.15
2026-07-27 13:35:43.036,-0.7,0.04,0.98,27.34,-24.41,-280.15
2026-07-27 13:35:43.037,-0.59,0.06,1.01,-34.97,-5.92,-145.75
2026-07-27 13:35:43.180,-0.59,0.06,1.01,-34.97,-5.92,-145.75
2026-07-27 13:35:43.202,-0.53,0.13,1.01,-29.36,-8.79,-78.06
2026-07-27 13:35:43.203,-0.53,0.13,1.01,-29.36,-8.79,-78.06
2026-07-27 13:35:43.204,-0.43,0.2,1.06,41.69,-63.17,-87.46
2026-07-27 13:35:43.204,-0.43,0.2,1.06,41.69,-63.17,-87.46
2026-07-27 13:35:43.204,-0.19,0.28,1.09,121.46,-133.73,-99.55
2026-07-27 13:35:43.208,0.04,0.42,0.95,161.07,-117.55,-63.48
2026-07-27 13:35:43.208,0.04,0.42,0.95,161.07,-117.55,-63.48
2026-07-27 13:35:43.260,0.13,0.48,0.75,124.82,-44.49,-14.47
2026-07-27 13:35:43.261,0.13,0.48,0.75,124.82,-44.49,-14.47
2026-07-27 13:35:43.321,0.26,0.46,0.7,26.12,-35.16,9.22
2026-07-27 13:35:43.325,0.26,0.46,0.7,26.12,-35.16,9.22
2026-07-27 13:35:43.329,0.4,0.46,0.8,-55.11,-68.73,5.43
2026-07-27 13:35:43.414,0.45,0.47,0.95,-72.27,-71.9,-11.35
2026-07-27 13:35:43.420,0.45,0.47,0.95,-72.27,-71.9,-11.35
2026-07-27 13:35:43.441,0.46,0.46,1.02,-70.8,-54.02,-12.94
2026-07-27 13:35:43.442,0.46,0.46,1.02,-70.8,-54.02,-12.94
2026-07-27 13:35:43.443,0.44,0.34,0.98,-92.83,-43.27,0.49
2026-07-27 13:35:43.502,0.44,0.34,0.98,-92.83,-43.27,0.49
2026-07-27 13:35:43.503,0.37,0.11,0.93,-130.68,-38.02,6.23
2026-07-27 13:35:43.504,0.37,0.11,0.93,-130.68,-38.02,6.23
2026-07-27 13:35:43.575,0.37,0.11,0.93,-130.68,-38.02,6.23
2026-07-27 13:35:43.581,0.37,0.11,0.93,-130.68,-38.02,6.23
2026-07-27 13:35:43.587,0.17,-0.23,0.75,-116.52,-14.04,2.62
2026-07-27 13:35:43.662,0.07,-0.21,0.9,-53.41,19.78,11.41
2026-07-27 13:35:43.681,0.07,-0.21,0.9,-53.41,19.78,11.41
2026-07-27 13:35:43.710,-0.11,-0.13,1.14,2.62,63.72,32.29
2026-07-27 13:35:43.710,-0.11,-0.13,1.14,2.62,63.72,32.29
2026-07-27 13:35:43.710,-0.26,-0.11,1.18,18.49,71.04,72.63
2026-07-27 13:35:43.744,-0.26,-0.11,1.18,18.49,71.04,72.63
2026-07-27 13:35:43.745,-0.28,-0.19,1.04,-3.42,38.57,119.14
2026-07-27 13:35:43.749,-0.28,-0.19,1.04,-3.42,38.57,119.14
2026-07-27 13:35:43.883,-0.23,-0.27,0.87,-15.01,-5.74,143.49
2026-07-27 13:35:43.884,-0.14,-0.22,0.74,14.16,-54.32,136.05
2026-07-27 13:35:43.889,-0.14,-0.22,0.74,14.16,-54.32,136.05
2026-07-27 13:35:43.893,-0.05,-0.13,0.7,49.8,-87.77,103.76
2026-07-27 13:35:43.893,-0.05,-0.13,0.7,49.8,-87.77,103.76
2026-07-27 13:35:43.919,-0.01,-0.15,0.75,46.33,-87.16,68.18
2026-07-27 13:35:43.920,-0.01,-0.15,0.75,46.33,-87.16,68.18
2026-07-27 13:35:43.920,-0.02,-0.25,0.79,9.95,-64.39,52.0
2026-07-27 13:35:44.041,-0.05,-0.29,0.66,-13.43,-51.33,63.11
2026-07-27 13:35:44.043,-0.05,-0.29,0.66,-13.43,-51.33,63.11
2026-07-27 13:35:44.046,-0.06,-0.28,0.56,-19.78,-38.45,85.21
2026-07-27 13:35:44.047,-0.06,-0.28,0.56,-19.78,-38.45,85.21
2026-07-27 13:35:44.048,-0.07,-0.35,0.75,-42.6,9.34,94.12
2026-07-27 13:35:44.103,-0.07,-0.35,0.75,-42.6,9.34,94.12
2026-07-27 13:35:44.111,-0.04,-0.44,1.02,-72.02,62.93,86.85
2026-07-27 13:35:44.167,0.0,-0.51,1.16,-78.49,82.09,75.13
2026-07-27 13:35:44.170,0.0,-0.51,1.16,-78.49,82.09,75.13
2026-07-27 13:35:44.282,0.07,-0.55,1.16,-57.56,74.22,68.12
2026-07-27 13:35:44.285,0.07,-0.55,1.16,-57.56,74.22,68.12
2026-07-27 13:35:44.287,0.13,-0.54,1.06,-26.92,55.42,62.5
2026-07-27 13:35:44.288,0.13,-0.54,1.06,-26.92,55.42,62.5
2026-07-27 13:35:44.288,0.15,-0.53,0.97,-7.69,38.09,49.13
2026-07-27 13:35:44.288,0.15,-0.53,0.97,-4.27,30.88,28.93
2026-07-27 13:35:44.290,0.13,-0.56,0.97,-4.27,30.88,28.93
2026-07-27 13:35:44.340,0.05,-0.7,1.05,-11.23,28.56,6.71
2026-07-27 13:35:44.340,0.05,-0.7,1.05,-11.23,28.56,6.71
2026-07-27 13:35:44.468,-0.12,-0.86,1.04,-16.36,21.48,-20.08
2026-07-27 13:35:44.469,-0.12,-0.86,1.04,-16.36,21.48,-20.08
2026-07-27 13:35:44.471,-0.32,-0.99,0.99,-17.4,21.48,-53.83
2026-07-27 13:35:44.474,-0.32,-0.99,0.99,-17.4,21.48,-53.83
2026-07-27 13:35:44.474,-0.42,-0.98,1.0,-21.79,42.97,-88.62
2026-07-27 13:35:44.519,-0.37,-0.71,0.98,-19.04,65.06,-114.14
2026-07-27 13:35:44.521,-0.37,-0.71,0.98,-19.04,65.06,-114.14
2026-07-27 13:35:44.522,-0.23,-0.32,0.9,-4.52,59.14,-113.16
2026-07-27 13:35:44.614,-0.23,-0.32,0.9,-4.52,59.14,-113.16
2026-07-27 13:35:44.652,-0.09,-0.12,0.88,1.65,32.96,-75.62
2026-07-27 13:35:44.652,-0.09,-0.12,0.88,1.65,32.96,-75.62
2026-07-27 13:35:44.652,0.01,-0.2,1.0,-6.96,6.84,-19.78
2026-07-27 13:35:44.652,0.01,-0.2,1.0,-13.61,-16.85,21.79
2026-07-27 13:35:44.652,0.05,-0.39,1.13,-13.61,-16.85,21.79
2026-07-27 13:35:44.705,0.04,-0.52,1.12,-12.45,-45.41,31.01
2026-07-27 13:35:44.706,0.04,-0.52,1.12,-12.45,-45.41,31.01
2026-07-27 13:35:44.847,0.01,-0.54,0.97,-15.2,-78.37,12.57
2026-07-27 13:35:44.847,0.01,-0.54,0.97,-15.2,-78.37,12.57
2026-07-27 13:35:44.847,0.01,-0.54,0.97,-15.2,-78.37,12.57
2026-07-27 13:35:44.847,0.01,-0.54,0.97,-15.2,-78.37,12.57
2026-07-27 13:35:44.848,-0.1,-0.48,0.58,-23.13,-101.2,-38.57
2026-07-27 13:35:44.849,-0.1,-0.48,0.58,-23.13,-101.2,-38.57
2026-07-27 13:35:44.960,-0.1,-0.48,0.58,-23.13,-101.2,-38.57
2026-07-27 13:35:45.023,-0.1,-0.48,0.58,-23.13,-101.2,-38.57
2026-07-27 13:35:45.027,-0.21,-0.55,0.47,-15.5,-45.72,-49.68
2026-07-27 13:35:45.027,-0.23,-0.57,0.47,-13.98,-17.03,-34.24
2026-07-27 13:35:45.027,-0.23,-0.57,0.47,-13.98,-17.03,-34.24
2026-07-27 13:35:45.028,-0.2,-0.6,0.45,-13.24,3.54,-3.85
2026-07-27 13:35:45.028,-0.2,-0.6,0.45,-13.24,3.54,-3.85
2026-07-27 13:35:45.028,-0.14,-0.71,0.48,-21.79,22.03,29.91
2026-07-27 13:35:45.064,-0.14,-0.71,0.48,-21.79,22.03,29.91
2026-07-27 13:35:45.149,-0.06,-0.97,0.65,-43.7,50.72,50.48
2026-07-27 13:35:45.187,-0.06,-0.97,0.65,-43.7,50.72,50.48
2026-07-27 13:35:45.188,0.03,-1.22,0.97,-68.85,96.68,39.06
2026-07-27 13:35:45.188,0.07,-1.21,1.07,-68.42,124.76,-3.91
2026-07-27 13:35:45.202,0.07,-1.21,1.07,-68.42,124.76,-3.91
2026-07-27 13:35:45.203,0.05,-1.07,0.71,-38.82,94.18,-44.31
2026-07-27 13:35:45.203,0.05,-1.07,0.71,-38.82,94.18,-44.31
2026-07-27 13:35:45.321,0.02,-0.92,0.29,-10.19,56.52,-73.55
2026-07-27 13:35:45.325,0.02,-0.92,0.29,-10.19,56.52,-73.55
2026-07-27 13:35:45.333,-0.08,-0.71,0.21,19.41,80.2,-107.91
2026-07-27 13:35:45.338,-0.18,-0.48,0.36,48.34,128.72,-133.54
2026-07-27 13:35:45.344,-0.18,-0.48,0.36,48.34,128.72,-133.54
2026-07-27 13:35:45.362,-0.18,-0.35,0.52,49.5,136.9,-128.23
2026-07-27 13:35:45.434,-0.18,-0.35,0.52,49.5,136.9,-128.23
2026-07-27 13:35:45.434,-0.1,-0.35,0.59,25.63,105.53,-95.52
2026-07-27 13:35:45.447,-0.1,-0.35,0.59,25.63,105.53,-95.52
2026-07-27 13:35:45.447,0.01,-0.42,0.6,2.38,70.13,-58.47
2026-07-27 13:35:45.498,0.07,-0.49,0.58,-6.23,51.03,-33.69
2026-07-27 13:35:45.558,0.07,-0.49,0.58,-6.23,51.03,-33.69
2026-07-27 13:35:45.576,0.1,-0.55,0.59,-6.65,48.58,-20.57
2026-07-27 13:35:45.621,0.1,-0.55,0.59,-6.65,48.58,-20.57
2026-07-27 13:35:45.621,0.08,-0.64,0.69,-11.29,55.97,-13.18
2026-07-27 13:35:45.622,0.08,-0.64,0.69,-11.29,55.97,-13.18
2026-07-27 13:35:45.622,0.04,-0.73,0.87,-23.19,64.7,-7.51
2026-07-27 13:35:45.639,0.01,-0.81,1.07,-35.95,69.21,0.79
2026-07-27 13:35:45.839,0.01,-0.81,1.07,-35.95,69.21,0.79
2026-07-27 13:35:45.842,-0.04,-0.92,1.26,-42.3,69.4,12.82
2026-07-27 13:35:45.842,-0.04,-0.92,1.26,-42.3,69.4,12.82
2026-07-27 13:35:45.842,-0.11,-1.0,1.31,-39.0,49.38,24.23
2026-07-27 13:35:45.843,-0.11,-1.0,1.31,-39.0,49.38,24.23
2026-07-27 13:35:45.843,-0.15,-0.97,1.13,-24.54,-23.19,30.52
2026-07-27 13:35:45.844,-0.15,-0.97,1.13,-8.85,-119.57,29.42
2026-07-27 13:35:45.845,-0.13,-0.89,0.93,-8.85,-119.57,29.42
2026-07-27 13:35:45.845,-0.09,-0.84,0.88,0.24,-169.74,19.1
2026-07-27 13:35:45.845,-0.09,-0.84,0.88,0.24,-169.74,19.1
2026-07-27 13:35:45.845,-0.09,-0.79,0.87,13.67,-169.86,3.05
2026-07-27 13:35:46.024,-0.09,-0.79,0.87,13.67,-169.86,3.05
2026-07-27 13:35:46.027,-0.08,-0.73,0.77,35.22,-160.16,-13.06
2026-07-27 13:35:46.028,-0.08,-0.73,0.77,35.22,-160.16,-13.06
2026-07-27 13:35:46.030,-0.07,-0.69,0.62,53.65,-153.38,-26.25
2026-07-27 13:35:46.034,-0.07,-0.69,0.5,63.11,-139.65,-35.83
2026-07-27 13:35:46.044,-0.07,-0.69,0.5,63.11,-139.65,-35.83
2026-07-27 13:35:46.044,-0.12,-0.7,0.4,64.45,-115.17,-43.33
2026-07-27 13:35:46.047,-0.12,-0.7,0.4,64.45,-115.17,-43.33
2026-07-27 13:35:46.089,-0.18,-0.68,0.3,57.86,-87.59,-46.81
2026-07-27 13:35:46.089,-0.18,-0.68,0.3,57.86,-87.59,-46.81
2026-07-27 13:35:46.149,-0.21,-0.65,0.24,42.11,-61.46,-40.65
2026-07-27 13:35:46.166,-0.18,-0.6,0.23,18.49,-25.76,-23.13
2026-07-27 13:35:46.166,-0.18,-0.6,0.23,18.49,-25.76,-23.13
2026-07-27 13:35:46.222,-0.1,-0.59,0.29,-5.37,22.77,1.04
2026-07-27 13:35:46.223,-0.1,-0.59,0.29,-5.37,22.77,1.04
2026-07-27 13:35:46.223,0.02,-0.71,0.43,-28.69,68.3,23.8
2026-07-27 13:35:46.395,0.02,-0.71,0.43,-28.69,68.3,23.8
2026-07-27 13:35:46.395,0.15,-0.87,0.69,-48.71,104.31,33.39
2026-07-27 13:35:46.402,0.23,-0.87,0.9,-52.67,118.1,24.78
2026-07-27 13:35:46.403,0.23,-0.87,0.9,-52.67,118.1,24.78
2026-07-27 13:35:46.406,0.29,-0.84,0.96,-57.37,83.8,9.22
2026-07-27 13:35:46.407,0.29,-0.84,0.96,-57.37,83.8,9.22
2026-07-27 13:35:46.408,0.36,-0.93,1.02,-80.02,20.08,-6.9
2026-07-27 13:35:47.034,0.36,-0.93,1.02,-80.02,20.08,-6.9
2026-07-27 13:35:47.053,0.42,-0.94,1.01,-83.56,-18.19,-23.8
2026-07-27 13:35:47.053,0.43,-0.75,0.83,-38.94,-8.61,-36.32
2026-07-27 13:35:47.053,0.43,-0.75,0.83,-38.94,-8.61,-36.32
2026-07-27 13:35:47.053,0.4,-0.49,0.59,19.65,23.74,-43.7
2026-07-27 13:35:47.069,0.4,-0.49,0.59,19.65,23.74,-43.7
2026-07-27 13:35:47.101,0.38,-0.32,0.46,47.85,44.37,-47.73
2026-07-27 13:35:47.102,0.38,-0.32,0.46,47.85,44.37,-47.73
2026-07-27 13:35:47.102,0.37,-0.31,0.46,40.1,43.88,-46.63
2026-07-27 13:35:47.137,0.37,-0.31,0.46,22.95,31.43,-39.0
2026-07-27 13:35:47.181,0.38,-0.39,0.51,22.95,31.43,-39.0
2026-07-27 13:35:47.182,0.37,-0.49,0.53,14.89,12.21,-25.57
2026-07-27 13:35:47.182,0.37,-0.49,0.53,14.89,12.21,-25.57
2026-07-27 13:35:47.182,0.38,-0.6,0.52,7.75,-11.17,-7.32
2026-07-27 13:35:47.182,0.38,-0.6,0.52,7.75,-11.17,-7.32
2026-07-27 13:35:47.182,0.42,-0.82,0.61,-9.95,-21.91,13.43
2026-07-27 13:35:47.182,0.46,-1.08,0.84,-29.24,-4.94,29.11
2026-07-27 13:35:47.182,0.46,-1.08,0.84,-29.24,-4.94,29.11
2026-07-27 13:35:47.182,0.47,-1.17,1.02,-29.36,18.19,31.49
2026-07-27 13:35:47.183,0.47,-1.17,1.02,-29.36,18.19,31.49
2026-07-27 13:35:47.183,0.42,-1.03,1.0,-11.17,15.87,21.97
2026-07-27 13:35:47.183,0.42,-1.03,1.0,-11.17,15.87,21.97
2026-07-27 13:35:47.183,0.34,-0.78,0.79,6.65,-22.58,8.24
2026-07-27 13:35:47.183,0.34,-0.78,0.79,6.65,-22.58,8.24
2026-07-27 13:35:47.183,0.3,-0.61,0.6,10.93,-77.27,-2.81
2026-07-27 13:35:47.183,0.35,-0.64,0.64,0.61,-102.91,-10.01
2026-07-27 13:35:47.183,0.35,-0.64,0.64,0.61,-102.91,-10.01
2026-07-27 13:35:47.210,0.38,-0.73,0.83,-7.32,-86.55,-18.43
2026-07-27 13:35:47.210,0.38,-0.73,0.83,-7.32,-86.55,-18.43
2026-07-27 13:35:47.211,0.35,-0.71,0.87,5.8,-63.84,-31.74
2026-07-27 13:35:47.211,0.35,-0.71,0.87,5.8,-63.84,-31.74
2026-07-27 13:35:47.211,0.28,-0.59,0.67,29.85,-62.26,-46.63
2026-07-27 13:35:47.212,0.22,-0.51,0.45,40.65,-68.3,-57.74
2026-07-27 13:35:47.212,0.22,-0.51,0.45,40.65,-68.3,-57.74
2026-07-27 13:35:47.212,0.14,-0.46,0.32,39.0,-58.29,-61.89
2026-07-27 13:35:47.229,0.14,-0.46,0.32,39.0,-58.29,-61.89
2026-07-27 13:35:47.229,0.07,-0.45,0.25,33.26,-35.52,-54.81
2026-07-27 13:35:47.230,0.07,-0.45,0.25,33.26,-35.52,-54.81
2026-07-27 13:35:47.299,0.05,-0.47,0.23,22.77,-9.34,-35.83
2026-07-27 13:35:47.299,0.12,-0.55,0.31,8.06,26.79,-10.5
2026-07-27 13:35:47.463,0.12,-0.55,0.31,8.06,26.79,-10.5
2026-07-27 13:35:47.474,0.27,-0.65,0.45,-5.8,72.57,11.54
2026-07-27 13:35:47.474,0.27,-0.65,0.45,-5.8,72.57,11.54
2026-07-27 13:35:47.474,0.44,-0.8,0.65,-12.63,113.28,21.67
2026-07-27 13:35:47.474,0.44,-0.8,0.65,-12.63,113.28,21.67
2026-07-27 13:35:47.474,0.56,-0.98,0.91,-8.42,141.66,14.34
2026-07-27 13:35:47.475,0.56,-0.98,0.91,-8.42,141.66,14.34
2026-07-27 13:35:47.475,0.52,-1.02,1.14,15.01,161.68,-13.79
2026-07-27 13:35:47.524,0.35,-0.87,1.25,46.26,162.48,-51.88
2026-07-27 13:35:47.524,0.35,-0.87,1.25,46.26,162.48,-51.88
2026-07-27 13:35:47.525,0.23,-0.67,1.17,52.67,124.82,-78.0
2026-07-27 13:35:47.582,0.23,-0.67,1.17,52.67,124.82,-78.0
2026-07-27 13:35:47.676,0.2,-0.45,0.93,36.25,66.41,-84.96
2026-07-27 13:35:47.699,0.2,-0.45,0.93,36.25,66.41,-84.96
2026-07-27 13:35:47.705,0.21,-0.23,0.67,22.34,27.47,-80.26
2026-07-27 13:35:47.705,0.21,-0.08,0.54,15.01,20.2,-70.98
2026-07-27 13:35:47.711,0.21,-0.08,0.54,15.01,20.2,-70.98
2026-07-27 13:35:47.711,0.2,-0.01,0.57,11.11,30.27,-58.29
2026-07-27 13:35:47.711,0.2,-0.01,0.57,11.11,30.27,-58.29
2026-07-27 13:35:47.760,0.19,0.01,0.66,12.7,39.79,-39.98
2026-07-27 13:35:47.766,0.19,0.01,0.66,12.7,39.79,-39.98
2026-07-27 13:35:47.819,0.19,-0.01,0.75,19.47,39.12,-15.08
2026-07-27 13:35:47.822,0.18,-0.08,0.86,23.13,31.86,13.06
2026-07-27 13:35:47.822,0.18,-0.08,0.86,23.13,31.86,13.06
2026-07-27 13:35:47.941,0.15,-0.2,1.02,17.46,28.44,38.39
2026-07-27 13:35:47.943,0.15,-0.2,1.02,17.46,28.44,38.39
2026-07-27 13:35:47.943,0.13,-0.32,1.2,10.38,32.35,56.82
2026-07-27 13:35:47.943,0.13,-0.32,1.2,10.38,32.35,56.82
2026-07-27 13:35:47.944,0.13,-0.38,1.33,8.73,35.52,67.75
2026-07-27 13:35:48.008,0.13,-0.38,1.33,8.85,32.84,71.04
2026-07-27 13:35:48.008,0.1,-0.38,1.4,8.85,32.84,71.04
2026-07-27 13:35:48.008,0.04,-0.32,1.3,9.03,14.89,69.52
2026-07-27 13:35:48.059,0.04,-0.32,1.3,9.03,14.89,69.52
2026-07-27 13:35:48.059,0.02,-0.27,1.03,6.53,-32.78,72.51
2026-07-27 13:35:48.059,0.02,-0.27,1.03,6.53,-32.78,72.51
2026-07-27 13:35:48.122,0.06,-0.32,0.85,-3.17,-83.62,78.0
2026-07-27 13:35:48.128,0.06,-0.32,0.85,-3.17,-83.62,78.0
2026-07-27 13:35:48.179,0.09,-0.41,0.88,-9.4,-92.16,70.92
2026-07-27 13:35:48.308,0.07,-0.45,0.95,-2.38,-65.98,49.44
2026-07-27 13:35:48.310,0.07,-0.45,0.95,-2.38,-65.98,49.44
2026-07-27 13:35:48.310,0.05,-0.41,0.92,9.64,-46.75,26.25
2026-07-27 13:35:48.310,0.05,-0.41,0.92,9.64,-46.75,26.25
2026-07-27 13:35:48.310,0.06,-0.36,0.77,14.4,-49.93,10.25
2026-07-27 13:35:48.311,0.06,-0.36,0.77,14.4,-49.93,10.25
2026-07-27 13:35:48.430,0.07,-0.34,0.63,9.52,-56.4,-1.53
2026-07-27 13:35:48.436,0.07,-0.34,0.63,9.52,-56.4,-1.53
2026-07-27 13:35:48.441,0.08,-0.32,0.57,3.42,-45.29,-14.83
2026-07-27 13:35:48.623,0.06,-0.31,0.6,-1.28,-17.03,-29.42
2026-07-27 13:35:48.659,0.06,-0.31,0.6,-1.28,-17.03,-29.42
2026-07-27 13:35:48.660,0.04,-0.28,0.73,-4.09,18.86,-41.69
2026-07-27 13:35:48.660,0.04,-0.28,0.73,-4.09,18.86,-41.69
2026-07-27 13:35:48.780,0.04,-0.24,0.89,-0.37,57.92,-51.57
2026-07-27 13:35:48.784,0.04,-0.24,0.89,-0.37,57.92,-51.57
2026-07-27 13:35:48.787,0.04,-0.25,1.13,9.52,103.15,-62.26
2026-07-27 13:35:48.789,0.04,-0.25,1.13,28.5,159.3,-75.2
2026-07-27 13:35:48.796,-0.02,-0.25,1.37,28.5,159.3,-75.2
2026-07-27 13:35:48.817,-0.08,-0.2,1.4,55.6,194.52,-79.77
2026-07-27 13:35:48.849,-0.08,-0.2,1.4,55.6,194.52,-79.77
2026-07-27 13:35:48.849,-0.08,-0.23,1.28,49.07,167.05,-65.49
2026-07-27 13:35:48.871,-0.08,-0.23,1.28,49.07,167.05,-65.49
2026-07-27 13:35:48.872,-0.09,-0.37,1.14,-8.48,98.14,-47.49
2026-07-27 13:35:48.872,-0.09,-0.37,1.14,-51.94,21.85,-36.68
2026-07-27 13:35:48.877,-0.08,-0.42,0.95,-51.94,21.85,-36.68
2026-07-27 13:35:48.878,-0.01,-0.31,0.77,-33.81,-43.64,-13.37
2026-07-27 13:35:48.878,-0.01,-0.31,0.77,-33.81,-43.64,-13.37
2026-07-27 13:35:48.878,0.06,-0.14,0.68,8.24,-71.35,33.63
2026-07-27 13:35:48.878,0.06,-0.14,0.68,8.24,-71.35,33.63
2026-07-27 13:35:48.878,0.06,-0.04,0.69,23.8,-56.95,72.51
2026-07-27 13:35:48.878,0.01,-0.04,0.75,23.62,-25.76,80.02
2026-07-27 13:35:48.900,0.01,-0.04,0.75,23.62,-25.76,80.02
2026-07-27 13:35:48.900,-0.02,-0.12,0.79,25.21,0.0,70.8
2026-07-27 13:35:48.980,-0.02,-0.12,0.79,25.21,0.0,70.8
2026-07-27 13:35:49.038,-0.05,-0.2,0.83,24.29,13.18,59.39
2026-07-27 13:35:49.053,-0.05,-0.2,0.83,24.29,13.18,59.39
2026-07-27 13:35:49.053,-0.08,-0.2,0.9,16.85,13.31,43.76
2026-07-27 13:35:49.053,-0.08,-0.15,1.02,-0.73,-6.35,22.22
2026-07-27 13:35:49.058,-0.08,-0.15,1.02,-0.73,-6.35,22.22
2026-07-27 13:35:49.086,-0.06,-0.13,1.24,-22.71,-23.56,3.78
2026-07-27 13:35:49.090,-0.06,-0.13,1.24,-22.71,-23.56,3.78
2026-07-27 13:35:49.144,-0.11,-0.16,1.51,-32.71,-4.33,-5.55
2026-07-27 13:35:49.200,-0.11,-0.16,1.51,-32.71,-4.33,-5.55
2026-07-27 13:35:49.200,-0.17,-0.22,1.53,-26.06,10.86,2.32
2026-07-27 13:35:49.263,-0.17,-0.22,1.53,-26.06,10.86,2.32
2026-07-27 13:35:49.324,-0.14,-0.31,1.23,-22.89,-24.41,26.92
2026-07-27 13:35:49.327,-0.08,-0.38,0.92,-30.03,-70.25,43.52
2026-07-27 13:35:49.327,-0.08,-0.38,0.92,-30.03,-70.25,43.52
2026-07-27 13:35:49.327,-0.04,-0.41,0.84,-36.62,-73.55,31.56
2026-07-27 13:35:49.327,-0.04,-0.41,0.84,-36.62,-73.55,31.56
2026-07-27 13:35:49.327,-0.07,-0.39,0.83,-44.62,-40.65,2.5
2026-07-27 13:35:49.708,-0.07,-0.39,0.83,-44.62,-40.65,2.5
2026-07-27 13:35:49.708,-0.12,-0.34,0.73,-64.15,-0.43,-10.13
2026-07-27 13:35:49.750,-0.17,-0.33,0.61,-95.64,31.07,9.89
2026-07-27 13:35:49.750,-0.17,-0.33,0.61,-95.64,31.07,9.89
2026-07-27 13:35:49.750,-0.25,-0.38,0.57,-108.83,53.77,30.82
2026-07-27 13:35:49.750,-0.25,-0.38,0.57,-108.83,53.77,30.82
2026-07-27 13:35:49.751,-0.36,-0.4,0.64,-79.04,66.71,27.28
2026-07-27 13:35:49.751,-0.36,-0.4,0.64,-79.04,66.71,27.28
2026-07-27 13:35:49.751,-0.48,-0.41,0.76,-26.18,78.06,7.2
2026-07-27 13:35:49.751,-0.48,-0.41,0.76,-26.18,78.06,7.2
2026-07-27 13:35:49.751,-0.61,-0.42,0.8,23.5,94.97,-13.31
2026-07-27 13:35:49.751,-0.72,-0.45,0.79,62.56,99.18,-31.74
2026-07-27 13:35:49.751,-0.72,-0.45,0.79,62.56,99.18,-31.74
2026-07-27 13:35:49.751,-0.77,-0.44,0.82,97.96,96.01,-60.18
2026-07-27 13:35:49.774,-0.77,-0.44,0.82,97.96,96.01,-60.18
2026-07-27 13:35:49.799,-0.66,-0.39,0.83,121.34,84.47,-84.47
2026-07-27 13:35:49.801,-0.66,-0.39,0.83,121.34,84.47,-84.47
2026-07-27 13:35:49.803,-0.4,-0.5,0.69,88.13,36.99,-90.64
2026-07-27 13:35:49.804,-0.16,-0.71,0.6,24.54,-5.07,-91.31
2026-07-27 13:35:49.804,-0.16,-0.71,0.6,24.54,-5.07,-91.31
2026-07-27 13:35:49.805,-0.1,-0.72,0.71,21.42,22.71,-103.21
2026-07-27 13:35:49.806,-0.1,-0.72,0.71,21.42,22.71,-103.21
2026-07-27 13:35:49.865,-0.17,-0.56,0.85,67.44,78.37,-132.32
2026-07-27 13:35:49.927,-0.17,-0.56,0.85,67.44,78.37,-132.32
2026-07-27 13:35:50.133,-0.26,-0.37,0.87,89.97,89.84,-164.92
2026-07-27 13:35:50.167,-0.33,-0.2,0.87,84.72,65.98,-179.75
2026-07-27 13:35:50.167,-0.33,-0.2,0.87,84.72,65.98,-179.75
2026-07-27 13:35:50.167,-0.41,-0.09,0.93,74.71,47.24,-172.91
2026-07-27 13:35:50.167,-0.41,-0.09,0.93,74.71,47.24,-172.91
2026-07-27 13:35:50.167,-0.5,-0.07,1.04,57.43,41.99,-151.37
2026-07-27 13:35:50.167,-0.5,-0.07,1.04,57.43,41.99,-151.37
2026-07-27 13:35:50.168,-0.58,-0.18,1.08,32.47,30.64,-121.03
2026-07-27 13:35:50.168,-0.65,-0.39,1.03,5.8,7.39,-95.64
2026-07-27 13:35:50.168,-0.65,-0.39,1.03,5.8,7.39,-95.64
2026-07-27 13:35:50.168,-0.69,-0.5,0.93,-3.97,-4.03,-90.7
2026-07-27 13:35:50.168,-0.69,-0.5,0.93,-3.97,-4.03,-90.7
2026-07-27 13:35:50.168,-0.63,-0.41,0.82,10.8,4.64,-100.1
2026-07-27 13:35:50.168,-0.63,-0.41,0.82,10.8,4.64,-100.1
2026-07-27 13:35:50.400,-0.49,-0.31,0.73,23.5,12.45,-103.88
2026-07-27 13:35:50.401,-0.49,-0.31,0.73,14.22,10.13,-99.61
2026-07-27 13:35:50.581,-0.37,-0.38,0.71,14.22,10.13,-99.61
2026-07-27 13:35:50.585,-0.34,-0.54,0.77,-2.01,6.84,-102.72
2026-07-27 13:35:50.585,-0.34,-0.54,0.77,-2.01,6.84,-102.72
2026-07-27 13:35:50.585,-0.41,-0.6,0.83,-5.19,10.44,-126.4
2026-07-27 13:35:50.585,-0.41,-0.6,0.83,-5.19,10.44,-126.4
2026-07-27 13:35:50.585,-0.52,-0.45,0.84,13.55,25.88,-165.41
2026-07-27 13:35:50.585,-0.52,-0.45,0.84,13.55,25.88,-165.41
2026-07-27 13:35:50.585,-0.59,-0.14,0.82,49.5,53.59,-196.41
2026-07-27 13:35:50.586,-0.52,0.2,0.79,74.77,76.42,-195.86
2026-07-27 13:35:50.586,-0.52,0.2,0.79,74.77,76.42,-195.86
2026-07-27 13:35:50.586,-0.3,0.39,0.74,59.08,74.95,-157.84
2026-07-27 13:35:50.586,-0.3,0.39,0.74,59.08,74.95,-157.84
2026-07-27 13:35:50.587,-0.07,0.36,0.75,11.78,60.91,-96.86
2026-07-27 13:35:50.587,-0.07,0.36,0.75,11.78,60.91,-96.86
2026-07-27 13:35:50.587,0.02,0.14,0.91,-25.27,60.12,-35.34
2026-07-27 13:35:50.587,-0.04,-0.11,1.2,-24.66,76.66,8.0
2026-07-27 13:35:50.587,-0.04,-0.11,1.2,-24.66,76.66,8.0
2026-07-27 13:35:50.649,-0.11,-0.29,1.48,5.07,87.34,27.4
2026-07-27 13:35:50.661,-0.11,-0.29,1.48,5.07,87.34,27.4
2026-07-27 13:35:50.710,-0.06,-0.41,1.5,32.35,62.99,30.21
2026-07-27 13:35:50.720,-0.06,-0.41,1.5,32.35,62.99,30.21
2026-07-27 13:35:50.723,0.06,-0.5,1.27,34.79,7.32,23.56
2026-07-27 13:35:50.827,0.1,-0.53,1.03,21.18,-42.97,10.13
2026-07-27 13:35:50.844,0.1,-0.53,1.03,21.18,-42.97,10.13
2026-07-27 13:35:50.845,0.03,-0.49,0.91,11.72,-62.93,-6.9
2026-07-27 13:35:51.306,0.03,-0.49,0.91,11.72,-62.93,-6.9
2026-07-27 13:35:51.324,-0.09,-0.39,0.92,10.74,-58.47,-21.0
2026-07-27 13:35:51.328,-0.09,-0.39,0.92,10.74,-58.47,-21.0
2026-07-27 13:35:51.328,-0.16,-0.31,0.96,12.33,-47.61,-26.0
2026-07-27 13:35:51.329,-0.14,-0.23,0.94,10.07,-38.76,-22.83
2026-07-27 13:35:51.330,-0.14,-0.23,0.94,10.07,-38.76,-22.83
2026-07-27 13:35:51.330,-0.04,-0.18,0.91,-10.25,-24.66,-14.59
2026-07-27 13:35:51.330,-0.04,-0.18,0.91,-10.25,-24.66,-14.59
2026-07-27 13:35:51.331,0.1,-0.28,0.94,-58.41,1.4,-1.16
2026-07-27 13:35:51.332,0.1,-0.28,0.94,-58.41,1.4,-1.16
2026-07-27 13:35:51.332,0.21,-0.56,0.92,-110.53,25.21,8.73
2026-07-27 13:35:51.332,0.25,-0.83,0.77,-124.94,22.22,2.38
2026-07-27 13:35:51.333,0.25,-0.83,0.77,-124.94,22.22,2.38
2026-07-27 13:35:51.427,0.18,-0.91,0.71,-78.98,-0.37,-25.39
2026-07-27 13:35:51.427,0.18,-0.91,0.71,-78.98,-0.37,-25.39
2026-07-27 13:35:51.435,-0.05,-0.77,0.84,-9.03,-11.11,-57.74
2026-07-27 13:35:51.435,-0.05,-0.77,0.84,-9.03,-11.11,-57.74
2026-07-27 13:35:51.435,-0.34,-0.53,1.0,17.94,-7.81,-62.26
2026-07-27 13:35:51.436,-0.34,-0.53,1.0,17.94,-7.81,-62.26
2026-07-27 13:35:51.436,-0.47,-0.31,1.06,9.4,-9.46,-32.53
2026-07-27 13:35:51.436,-0.41,-0.16,0.99,21.79,-19.29,-0.61
2026-07-27 13:35:51.436,-0.41,-0.16,0.99,21.79,-19.29,-0.61
2026-07-27 13:35:51.436,-0.3,-0.1,0.83,45.65,-31.74,6.35
2026-07-27 13:35:51.488,-0.3,-0.1,0.83,45.65,-31.74,6.35
2026-07-27 13:35:51.728,-0.22,-0.13,0.7,49.07,-43.33,4.27
2026-07-27 13:35:51.728,-0.22,-0.13,0.7,49.07,-43.33,4.27
2026-07-27 13:35:51.736,-0.15,-0.19,0.64,46.75,-43.03,11.6
2026-07-27 13:35:51.736,-0.15,-0.19,0.64,46.75,-43.03,11.6
2026-07-27 13:35:51.736,-0.08,-0.25,0.71,50.66,-24.9,23.86
2026-07-27 13:35:51.737,0.0,-0.28,0.84,53.77,-3.48,34.73
2026-07-27 13:35:51.737,0.0,-0.28,0.84,53.77,-3.48,34.73
2026-07-27 13:35:51.737,0.06,-0.3,0.94,47.85,5.31,41.93
2026-07-27 13:35:51.737,0.06,-0.3,0.94,47.85,5.31,41.93
2026-07-27 13:35:51.737,0.06,-0.34,0.97,36.32,0.37,45.72
2026-07-27 13:35:51.742,0.06,-0.34,0.97,36.32,0.37,45.72
2026-07-27 13:35:51.742,0.02,-0.33,0.97,30.21,-5.86,42.11
2026-07-27 13:35:51.742,0.02,-0.33,0.97,30.21,-5.86,42.11
2026-07-27 13:35:51.742,-0.02,-0.28,0.97,26.61,-10.01,31.56
2026-07-27 13:35:51.742,-0.02,-0.25,0.96,20.94,-15.56,21.18
2026-07-27 13:35:51.742,-0.02,-0.25,0.96,20.94,-15.56,21.18
2026-07-27 13:35:51.742,-0.0,-0.21,0.96,12.76,-15.14,8.48
2026-07-27 13:35:51.743,-0.0,-0.21,0.96,12.76,-15.14,8.48
2026-07-27 13:35:52.020,0.02,-0.17,0.97,4.09,-6.41,-6.04
2026-07-27 13:35:52.020,0.02,-0.17,0.97,4.09,-6.41,-6.04
2026-07-27 13:35:52.020,0.03,-0.14,0.98,0.85,3.6,-16.6
2026-07-27 13:35:52.021,0.03,-0.14,0.98,1.83,9.09,-26.06
2026-07-27 13:35:52.022,0.03,-0.11,0.98,1.83,9.09,-26.06
2026-07-27 13:35:52.022,0.0,-0.06,0.98,4.94,10.74,-36.68
2026-07-27 13:35:52.023,0.0,-0.06,0.98,4.94,10.74,-36.68
2026-07-27 13:35:52.124,-0.01,-0.0,0.96,5.43,8.0,-44.01
2026-07-27 13:35:52.163,-0.01,-0.0,0.96,5.43,8.0,-44.01
2026-07-27 13:35:52.164,0.01,0.01,0.95,-5.43,-1.59,-44.43
2026-07-27 13:35:52.164,0.01,0.01,0.95,-5.43,-1.59,-44.43
2026-07-27 13:35:52.164,0.07,-0.03,0.96,-15.44,-11.72,-36.8
2026-07-27 13:35:52.164,0.07,-0.03,0.96,-15.44,-11.72,-36.8
2026-07-27 13:35:52.164,0.14,-0.07,0.97,-9.95,-14.95,-25.88
2026-07-27 13:35:52.164,0.18,-0.09,0.96,3.3,-14.04,-16.54
2026-07-27 13:35:52.442,0.18,-0.09,0.96,3.3,-14.04,-16.54
2026-07-27 13:35:52.450,0.19,-0.11,0.97,12.33,-11.35,-9.77
2026-07-27 13:35:52.450,0.19,-0.11,0.97,12.33,-11.35,-9.77
2026-07-27 13:35:52.451,0.21,-0.15,1.03,12.82,-2.93,-5.98
2026-07-27 13:35:52.451,0.21,-0.15,1.03,12.82,-2.93,-5.98
2026-07-27 13:35:52.451,0.22,-0.31,1.12,-2.14,1.16,-7.63
2026-07-27 13:35:52.451,0.22,-0.31,1.12,-2.14,1.16,-7.63
2026-07-27 13:35:52.451,0.21,-0.45,1.09,-27.04,-9.4,-28.75
2026-07-27 13:35:52.451,0.17,-0.36,0.96,-32.59,-15.38,-65.37
2026-07-27 13:35:52.451,0.17,-0.36,0.96,-32.59,-15.38,-65.37
2026-07-27 13:35:52.451,0.15,-0.16,0.89,-19.65,-4.39,-82.89
2026-07-27 13:35:52.451,0.15,-0.16,0.89,-19.65,-4.39,-82.89
2026-07-27 13:35:52.451,0.15,-0.07,0.91,-13.61,10.99,-65.67
2026-07-27 13:35:52.452,0.15,-0.07,0.91,-13.61,10.99,-65.67
2026-07-27 13:35:52.452,0.12,-0.15,1.01,-23.56,19.53,-34.48
2026-07-27 13:35:52.452,0.12,-0.15,1.01,-23.56,19.53,-34.48
2026-07-27 13:35:52.452,0.07,-0.29,1.09,-37.66,17.03,-14.34
2026-07-27 13:35:52.539,0.05,-0.34,1.09,-33.69,8.36,-8.97
2026-07-27 13:35:52.540,0.05,-0.34,1.09,-33.69,8.36,-8.97
2026-07-27 13:35:52.540,0.07,-0.32,1.02,-11.11,0.55,-8.42
2026-07-27 13:35:52.688,0.07,-0.32,1.02,-11.11,0.55,-8.42
2026-07-27 13:35:52.707,0.12,-0.33,0.97,12.15,-4.88,-6.04
2026-07-27 13:35:52.708,0.12,-0.33,0.97,12.15,-4.88,-6.04
2026-07-27 13:35:52.709,0.15,-0.38,0.94,25.45,-5.86,-3.23
2026-07-27 13:35:52.712,0.15,-0.38,0.94,25.45,-5.86,-3.23
2026-07-27 13:35:52.712,0.16,-0.37,0.93,31.74,-1.59,-5.07
2026-07-27 13:35:52.713,0.14,-0.3,0.92,30.4,2.44,-11.6
2026-07-27 13:35:52.713,0.14,-0.3,0.92,30.4,2.44,-11.6
2026-07-27 13:35:52.804,0.12,-0.24,0.91,19.17,1.77,-15.81
2026-07-27 13:35:52.830,0.12,-0.24,0.91,19.17,1.77,-15.81
2026-07-27 13:35:52.830,0.11,-0.21,0.9,3.78,-3.17,-12.33
2026-07-27 13:35:52.830,0.11,-0.21,0.9,-7.26,-10.01,-4.21
2026-07-27 13:35:52.830,0.11,-0.22,0.9,-7.26,-10.01,-4.21
2026-07-27 13:35:52.921,0.12,-0.24,0.89,-10.31,-14.22,2.2
2026-07-27 13:35:52.921,0.12,-0.24,0.89,-10.31,-14.22,2.2
2026-07-27 13:35:52.921,0.13,-0.23,0.88,-7.08,-13.18,4.94
2026-07-27 13:35:52.921,0.13,-0.23,0.88,-7.08,-13.18,4.94
2026-07-27 13:35:54.006,0.13,-0.22,0.87,-2.69,-7.69,4.58
2026-07-27 13:35:54.012,0.13,-0.22,0.87,-2.69,-7.69,4.58
2026-07-27 13:35:54.012,0.12,-0.21,0.88,-0.12,-0.31,3.54
2026-07-27 13:35:54.013,0.12,-0.21,0.88,-0.12,-0.31,3.54
2026-07-27 13:35:54.013,0.11,-0.22,0.91,1.1,6.53,4.64
2026-07-27 13:35:54.013,0.12,-0.26,0.95,1.59,10.56,6.9
2026-07-27 13:35:54.014,0.12,-0.26,0.95,1.59,10.56,6.9
2026-07-27 13:35:54.014,0.13,-0.28,0.98,1.95,10.01,6.9
2026-07-27 13:35:54.014,0.13,-0.28,0.98,1.95,10.01,6.9
2026-07-27 13:35:54.014,0.13,-0.28,0.99,2.44,6.59,3.42
2026-07-27 13:35:54.014,0.13,-0.28,0.99,2.44,6.59,3.42
2026-07-27 13:35:54.015,0.13,-0.25,1.0,3.6,3.42,-0.73
2026-07-27 13:35:54.015,0.13,-0.25,1.0,3.6,3.42,-0.73
2026-07-27 13:35:54.015,0.12,-0.23,1.0,4.88,1.59,-2.32
2026-07-27 13:35:54.015,0.12,-0.23,1.0,4.88,1.59,-2.32
2026-07-27 13:35:54.016,0.11,-0.22,0.99,5.07,-0.31,-2.08
2026-07-27 13:35:54.016,0.1,-0.21,0.99,4.21,-3.11,-1.83
2026-07-27 13:35:54.016,0.1,-0.21,0.99,4.21,-3.11,-1.83
2026-07-27 13:35:54.018,0.1,-0.21,0.97,3.54,-6.16,-1.28
2026-07-27 13:35:54.018,0.1,-0.21,0.97,3.54,-6.16,-1.28
2026-07-27 13:35:54.018,0.1,-0.2,0.94,3.23,-8.3,0.0
2026-07-27 13:35:54.018,0.1,-0.2,0.94,3.23,-8.3,0.0
2026-07-27 13:35:54.018,0.11,-0.21,0.93,3.3,-8.79,0.92
2026-07-27 13:35:54.018,0.11,-0.21,0.93,3.3,-8.79,0.92
2026-07-27 13:35:54.076,0.13,-0.21,0.92,3.3,-7.87,0.98
2026-07-27 13:35:54.088,0.13,-0.21,0.92,3.3,-7.87,0.98
2026-07-27 13:35:54.208,0.13,-0.21,0.91,2.56,-6.47,0.24
2026-07-27 13:35:54.208,0.13,-0.21,0.91,2.56,-6.47,0.24
2026-07-27 13:35:54.208,0.13,-0.21,0.92,1.34,-4.58,-0.61
2026-07-27 13:35:54.209,0.13,-0.22,0.93,0.06,-2.56,-0.61
2026-07-27 13:35:54.225,0.13,-0.22,0.93,0.06,-2.56,-0.61
2026-07-27 13:35:54.225,0.13,-0.22,0.95,-0.43,-1.04,0.0
2026-07-27 13:35:54.225,0.13,-0.22,0.95,-0.43,-1.04,0.0
2026-07-27 13:35:54.225,0.13,-0.22,0.96,0.0,-0.06,0.12
2026-07-27 13:35:54.225,0.13,-0.22,0.96,0.0,-0.06,0.12
2026-07-27 13:35:54.225,0.13,-0.21,0.97,-0.06,-0.85,-0.73
2026-07-27 13:35:54.226,0.13,-0.21,0.97,-0.06,-0.85,-0.73
2026-07-27 13:35:54.226,0.13,-0.2,0.97,-1.04,-3.97,-2.44
2026-07-27 13:35:54.226,0.13,-0.2,0.97,-1.04,-3.97,-2.44
2026-07-27 13:35:54.226,0.13,-0.2,0.97,-1.77,-7.26,-2.87
2026-07-27 13:35:54.226,0.13,-0.2,0.97,-1.77,-7.26,-2.87
2026-07-27 13:35:54.239,0.13,-0.2,0.98,-2.93,-9.89,-0.24
2026-07-27 13:35:54.239,0.13,-0.2,0.98,-2.93,-9.89,-0.24
2026-07-27 13:35:54.244,0.14,-0.2,0.97,-5.25,-12.82,3.85
2026-07-27 13:35:54.258,0.17,-0.22,0.96,-7.02,-15.56,6.59
2026-07-27 13:35:54.258,0.17,-0.22,0.96,-7.02,-15.56,6.59
2026-07-27 13:35:54.279,0.2,-0.24,0.95,-6.84,-15.01,6.84
2026-07-27 13:35:54.279,0.2,-0.24,0.95,-6.84,-15.01,6.84
2026-07-27 13:35:54.279,0.22,-0.25,0.96,-5.68,-10.13,4.88
2026-07-27 13:35:54.279,0.22,-0.25,0.96,-5.68,-10.13,4.88
2026-07-27 13:35:54.279,0.22,-0.25,0.95,-5.13,-5.49,1.65
2026-07-27 13:35:54.280,0.22,-0.25,0.95,-5.13,-5.49,1.65
2026-07-27 13:35:54.280,0.2,-0.23,0.93,-4.7,-3.6,-1.4
2026-07-27 13:35:54.280,0.2,-0.23,0.93,-2.99,-1.89,-2.99
2026-07-27 13:35:54.280,0.17,-0.2,0.91,-2.99,-1.89,-2.99
2026-07-27 13:35:54.280,0.11,-0.09,0.89,-2.56,0.49,-1.83
2026-07-27 13:35:54.280,0.11,-0.09,0.89,-2.56,0.49,-1.83
2026-07-27 13:35:54.280,0.1,-0.03,0.88,-11.96,1.71,5.62
2026-07-27 13:35:54.280,0.1,-0.03,0.88,-11.96,1.71,5.62
2026-07-27 13:35:54.280,0.16,-0.18,0.92,-29.3,2.69,23.93
2026-07-27 13:35:54.280,0.16,-0.18,0.92,-29.3,2.69,23.93
2026-07-27 13:35:54.280,0.22,-0.37,0.96,-36.25,3.3,38.39
2026-07-27 13:35:54.362,0.22,-0.37,0.96,-23.99,1.59,35.64
2026-07-27 13:35:54.369,0.23,-0.44,0.97,-23.99,1.59,35.64
2026-07-27 13:35:54.373,0.21,-0.42,0.96,-1.22,-3.23,28.26
2026-07-27 13:35:54.374,0.21,-0.42,0.96,-1.22,-3.23,28.26
2026-07-27 13:35:54.374,0.2,-0.36,0.95,22.95,-11.17,28.32
2026-07-27 13:35:54.607,0.2,-0.36,0.95,22.95,-11.17,28.32
2026-07-27 13:35:54.607,0.21,-0.32,0.94,39.67,-15.01,32.29
2026-07-27 13:35:54.607,0.21,-0.32,0.94,39.67,-15.01,32.29
2026-07-27 13:35:54.607,0.21,-0.3,0.94,41.44,-9.03,30.82
2026-07-27 13:35:54.607,0.2,-0.3,0.95,39.43,3.36,21.3
2026-07-27 13:35:54.607,0.2,-0.3,0.95,39.43,3.36,21.3
2026-07-27 13:35:54.608,0.18,-0.27,0.97,40.41,13.79,7.69
2026-07-27 13:35:54.608,0.18,-0.27,0.97,40.41,13.79,7.69
2026-07-27 13:35:54.608,0.16,-0.22,0.98,37.41,16.85,-4.82
2026-07-27 13:35:54.608,0.16,-0.22,0.98,37.41,16.85,-4.82
2026-07-27 13:35:54.608,0.15,-0.17,0.99,33.51,15.2,-13.92
2026-07-27 13:35:54.722,0.15,-0.17,0.99,36.32,10.99,-19.71
2026-07-27 13:35:54.727,0.12,-0.12,1.01,36.32,10.99,-19.71
2026-07-27 13:35:54.727,0.1,-0.04,1.0,57.62,3.36,-23.44
2026-07-27 13:35:54.727,0.1,-0.04,1.0,57.62,3.36,-23.44
2026-07-27 13:35:54.963,0.12,0.09,0.96,100.28,-1.53,-21.12
2026-07-27 13:35:54.967,0.12,0.09,0.96,100.28,-1.53,-21.12
2026-07-27 13:35:54.971,0.15,0.2,0.94,136.11,2.5,-11.78
2026-07-27 13:35:54.971,0.15,0.2,0.94,133.12,7.75,-6.41
2026-07-27 13:35:54.972,0.15,0.25,0.97,133.12,7.75,-6.41
2026-07-27 13:35:54.972,0.13,0.25,1.01,88.26,7.81,-4.09
2026-07-27 13:35:54.972,0.13,0.25,1.01,88.26,7.81,-4.09
2026-07-27 13:35:54.972,0.14,0.24,1.01,25.09,2.99,2.93
2026-07-27 13:35:54.972,0.14,0.24,1.01,25.09,2.99,2.93
2026-07-27 13:35:54.972,0.15,0.19,1.0,-32.23,-5.19,9.28
2026-07-27 13:35:54.972,0.15,0.19,1.0,-32.23,-5.19,9.28
2026-07-27 13:35:54.972,0.15,0.13,0.99,-71.29,-11.11,11.23
2026-07-27 13:35:55.233,0.15,0.13,0.99,-71.29,-11.11,11.23
2026-07-27 13:35:55.236,0.15,0.08,1.0,-80.99,-12.45,11.11
2026-07-27 13:35:55.445,0.14,0.05,0.99,-61.22,-11.6,10.62
2026-07-27 13:35:55.457,0.14,0.05,0.99,-61.22,-11.6,10.62
2026-07-27 13:35:55.458,0.14,0.04,0.98,-32.78,-10.07,10.13
2026-07-27 13:35:55.458,0.14,0.04,0.98,-32.78,-10.07,10.13
2026-07-27 13:35:55.458,0.14,0.04,0.97,-13.67,-8.0,8.67
2026-07-27 13:35:55.458,0.14,0.04,0.97,-13.67,-8.0,8.67
2026-07-27 13:35:55.458,0.14,0.04,0.95,-4.82,-4.88,7.14
2026-07-27 13:35:55.458,0.14,0.04,0.95,-4.82,-4.88,7.14
2026-07-27 13:35:55.459,0.14,0.03,0.94,-2.62,-0.67,5.74
2026-07-27 13:35:55.459,0.13,0.02,0.93,-3.85,3.97,3.6
2026-07-27 13:35:55.459,0.13,0.02,0.93,-3.85,3.97,3.6
2026-07-27 13:35:55.459,0.11,0.0,0.95,-3.72,6.9,1.22
2026-07-27 13:35:55.464,0.11,0.0,0.95,-3.72,6.9,1.22
2026-07-27 13:35:55.464,0.08,0.01,0.99,6.53,8.54,-5.13
2026-07-27 13:35:55.465,0.08,0.01,0.99,6.53,8.54,-5.13
2026-07-27 13:35:55.466,0.06,0.07,1.03,26.79,8.36,-13.98
2026-07-27 13:35:55.631,0.06,0.07,1.03,26.79,8.36,-13.98
2026-07-27 13:35:55.631,0.1,0.11,1.03,39.61,2.87,-14.1
2026-07-27 13:35:55.632,0.1,0.11,1.03,39.61,2.87,-14.1
2026-07-27 13:35:55.632,0.15,0.11,1.0,35.1,-3.6,-5.8
2026-07-27 13:35:55.632,0.17,0.1,0.98,20.63,-5.74,2.5
2026-07-27 13:35:55.632,0.17,0.1,0.98,20.63,-5.74,2.5
2026-07-27 13:35:55.632,0.16,0.1,0.96,6.53,-5.62,7.32
2026-07-27 13:35:55.632,0.16,0.1,0.96,6.53,-5.62,7.32
2026-07-27 13:35:55.633,0.14,0.1,0.95,-1.46,-5.43,8.67
2026-07-27 13:35:55.633,0.14,0.1,0.95,-1.46,-5.43,8.67
2026-07-27 13:35:55.633,0.13,0.11,0.94,-4.09,-4.82,8.18
2026-07-27 13:35:55.636,0.13,0.11,0.94,-4.09,-4.82,8.18
2026-07-27 13:35:55.741,0.13,0.1,0.94,-4.33,-3.54,7.14
2026-07-27 13:35:55.758,0.13,0.1,0.95,-3.85,-1.83,6.04
2026-07-27 13:35:55.758,0.13,0.1,0.95,-3.85,-1.83,6.04
2026-07-27 13:35:55.758,0.14,0.1,0.96,-3.42,-0.31,4.94
2026-07-27 13:35:55.758,0.14,0.1,0.96,-3.42,-0.31,4.94
2026-07-27 13:35:56.041,0.15,0.11,0.97,-3.17,1.46,3.6
2026-07-27 13:35:56.104,0.15,0.11,0.97,-3.17,1.46,3.6
2026-07-27 13:35:56.116,0.15,0.12,0.99,-2.87,2.87,2.44
2026-07-27 13:35:56.116,0.15,0.12,0.99,-2.87,2.87,2.44
2026-07-27 13:35:56.116,0.14,0.12,1.0,-1.71,3.23,1.59
2026-07-27 13:35:56.116,0.14,0.12,1.0,-1.71,3.23,1.59
2026-07-27 13:35:56.116,0.13,0.13,1.0,1.28,2.93,2.56
2026-07-27 13:35:56.117,0.13,0.13,1.0,1.28,2.93,2.56
2026-07-27 13:35:56.117,0.13,0.14,1.0,4.39,2.2,7.08
2026-07-27 13:35:56.117,0.15,0.13,1.0,2.87,0.0,13.18
2026-07-27 13:35:56.117,0.15,0.13,1.0,2.87,0.0,13.18
2026-07-27 13:35:56.117,0.17,0.11,0.99,-3.78,-3.78,17.03
2026-07-27 13:35:56.117,0.17,0.11,0.99,-3.78,-3.78,17.03
2026-07-27 13:35:56.117,0.18,0.09,0.98,-10.56,-6.29,16.11
2026-07-27 13:35:56.117,0.18,0.09,0.98,-10.56,-6.29,16.11
2026-07-27 13:35:56.117,0.17,0.07,0.98,-13.92,-5.8,11.54
2026-07-27 13:35:56.117,0.17,0.07,0.98,-13.92,-5.8,11.54
2026-07-27 13:35:56.460,0.15,0.06,0.99,-12.88,-3.78,6.65
2026-07-27 13:35:56.460,0.15,0.06,0.98,-9.64,-3.3,5.43
2026-07-27 13:35:56.642,0.15,0.06,0.98,-9.64,-3.3,5.43
2026-07-27 13:35:56.643,0.18,0.04,0.95,-8.54,-4.46,8.48
2026-07-27 13:35:56.643,0.18,0.04,0.95,-8.54,-4.46,8.48
2026-07-27 13:35:56.655,0.22,0.0,0.95,-9.46,-3.42,11.29
2026-07-27 13:35:56.665,0.22,0.0,0.95,-9.46,-3.42,11.29
2026-07-27 13:35:56.667,0.21,-0.02,0.99,-8.73,0.55,8.24
2026-07-27 13:35:56.668,0.21,-0.02,0.99,-8.73,0.55,8.24
2026-07-27 13:35:56.668,0.18,-0.0,1.02,-4.94,2.87,0.79
2026-07-27 13:35:56.669,0.18,-0.0,1.02,-4.94,2.87,0.79
2026-07-27 13:35:56.879,0.14,0.03,1.01,-0.37,1.22,-3.48
2026-07-27 13:35:56.880,0.14,0.03,1.01,1.28,-1.89,-1.28
2026-07-27 13:35:56.880,0.14,0.04,0.98,1.28,-1.89,-1.28
2026-07-27 13:35:57.337,0.17,0.02,0.97,-0.92,-3.42,3.42
2026-07-27 13:35:57.610,0.17,0.02,0.97,-0.92,-3.42,3.42
2026-07-27 13:35:57.610,0.18,-0.01,0.98,-3.72,-2.01,5.25
2026-07-27 13:35:57.610,0.18,-0.01,0.98,-3.72,-2.01,5.25
2026-07-27 13:35:57.664,0.18,-0.01,1.0,-3.6,0.37,3.3
2026-07-27 13:35:57.682,0.18,-0.01,1.0,-3.6,0.37,3.3
2026-07-27 13:35:57.682,0.18,0.02,0.99,-1.4,0.85,0.85
2026-07-27 13:35:57.682,0.18,0.02,0.99,-1.4,0.85,0.85
2026-07-27 13:35:57.682,0.19,0.03,0.98,-0.43,0.43,-0.92
2026-07-27 13:35:57.682,0.19,0.03,0.98,-0.43,0.43,-0.92
2026-07-27 13:35:57.682,0.18,0.04,0.97,-1.1,0.92,-2.32
2026-07-27 13:35:57.682,0.17,0.05,0.98,-2.01,1.77,-2.62
2026-07-27 13:35:57.687,0.17,0.05,0.98,-2.01,1.77,-2.62
2026-07-27 13:35:57.694,0.17,0.05,0.99,-2.26,1.95,-2.26
2026-07-27 13:35:57.695,0.17,0.05,0.99,-2.26,1.95,-2.26
2026-07-27 13:35:57.698,0.16,0.06,0.98,-2.01,1.28,-1.89
2026-07-27 13:35:57.699,0.16,0.06,0.98,-2.01,1.28,-1.89
2026-07-27 13:35:57.705,0.16,0.06,0.98,-1.59,0.55,-0.85
2026-07-27 13:35:57.706,0.17,0.05,0.97,-1.46,0.79,0.67
2026-07-27 13:35:57.706,0.17,0.05,0.97,-1.46,0.79,0.67
2026-07-27 13:35:57.707,0.17,0.05,0.97,-2.08,1.65,2.56
2026-07-27 13:35:57.707,0.17,0.05,0.97,-2.08,1.65,2.56
2026-07-27 13:35:57.707,0.17,0.04,0.98,-2.69,1.95,4.33
2026-07-27 13:35:57.707,0.17,0.04,0.98,-2.69,1.95,4.33
2026-07-27 13:35:57.707,0.17,0.04,0.97,-2.38,1.83,5.13
2026-07-27 13:35:57.708,0.17,0.04,0.97,-2.38,1.83,5.13
2026-07-27 13:35:57.708,0.15,0.03,0.96,-1.46,1.83,5.31
2026-07-27 13:35:57.708,0.15,0.03,0.96,-1.46,1.83,5.31
2026-07-27 13:35:57.708,0.13,0.03,0.95,-0.06,1.83,5.92
2026-07-27 13:35:57.708,0.13,0.03,0.95,-0.06,1.83,5.92
2026-07-27 13:35:57.708,0.13,0.01,0.94,1.65,2.32,6.84
2026-07-27 13:35:57.708,0.13,0.01,0.94,3.23,3.91,7.32
2026-07-27 13:35:57.708,0.13,-0.0,0.94,3.23,3.91,7.32
2026-07-27 13:35:57.708,0.13,-0.02,0.95,4.09,6.04,6.9
2026-07-27 13:35:57.708,0.13,-0.02,0.95,4.09,6.04,6.9
2026-07-27 13:35:57.711,0.13,-0.03,0.97,3.17,7.87,5.49
2026-07-27 13:35:57.711,0.13,-0.03,0.97,3.17,7.87,5.49
2026-07-27 13:35:57.712,0.12,-0.05,0.99,-0.43,8.97,4.09
2026-07-27 13:35:57.712,0.12,-0.05,0.99,-0.43,8.97,4.09
2026-07-27 13:35:57.712,0.11,-0.09,1.0,-4.7,8.91,2.14
2026-07-27 13:35:57.713,0.11,-0.09,1.0,-4.7,8.91,2.14
2026-07-27 13:35:57.713,0.11,-0.1,1.0,-5.62,7.81,-2.14
2026-07-27 13:35:57.713,0.11,-0.1,1.0,-5.62,7.81,-2.14
2026-07-27 13:35:57.713,0.1,-0.08,1.0,-2.93,7.02,-8.12
2026-07-27 13:35:57.713,0.1,-0.04,1.0,0.49,7.51,-14.34
2026-07-27 13:35:57.713,0.1,-0.04,1.0,0.49,7.51,-14.34
2026-07-27 13:35:57.714,0.08,-0.0,1.02,3.11,9.03,-19.78
2026-07-27 13:35:57.714,0.08,-0.0,1.02,3.11,9.03,-19.78
2026-07-27 13:35:57.721,0.06,0.04,1.04,4.7,9.4,-22.64
2026-07-27 13:35:57.725,0.06,0.04,1.04,4.7,9.4,-22.64
2026-07-27 13:35:57.725,0.06,0.06,1.06,5.07,6.71,-21.91
2026-07-27 13:35:57.725,0.06,0.06,1.06,5.07,6.71,-21.91
2026-07-27 13:35:57.725,0.06,0.07,1.04,3.6,1.34,-18.43
2026-07-27 13:35:57.726,0.06,0.07,1.04,3.6,1.34,-18.43
2026-07-27 13:35:57.726,0.08,0.05,1.02,0.37,-3.85,-14.34
2026-07-27 13:35:57.726,0.09,0.06,1.01,-3.72,-7.57,-10.19
2026-07-27 13:35:57.726,0.09,0.06,1.01,-3.72,-7.57,-10.19
2026-07-27 13:35:57.726,0.1,0.08,1.0,-11.05,-16.05,-1.28
2026-07-27 13:35:57.726,0.1,0.08,1.0,-11.05,-16.05,-1.28
2026-07-27 13:35:57.803,0.14,0.05,0.95,-20.32,-27.34,12.08
2026-07-27 13:35:57.847,0.14,0.05,0.95,-20.32,-27.34,12.08
2026-07-27 13:35:57.854,0.19,0.01,0.93,-24.78,-27.34,19.47
2026-07-27 13:35:57.854,0.19,0.01,0.93,-24.78,-27.34,19.47
2026-07-27 13:35:57.854,0.22,-0.03,0.97,-23.13,-13.79,12.45
2026-07-27 13:35:57.854,0.2,-0.04,1.05,-17.82,1.53,-5.62
2026-07-27 13:35:57.901,0.2,-0.04,1.05,-17.82,1.53,-5.62
2026-07-27 13:35:57.903,0.17,-0.0,1.11,-11.11,7.69,-23.56
2026-07-27 13:35:57.904,0.17,-0.0,1.11,-11.11,7.69,-23.56
2026-07-27 13:35:58.227,0.16,0.04,1.09,-9.28,6.23,-36.13
2026-07-27 13:35:58.227,0.16,0.04,1.09,-9.28,6.23,-36.13
2026-07-27 13:35:58.227,0.15,0.05,1.04,-17.4,3.72,-41.69
2026-07-27 13:35:58.227,0.15,0.05,1.04,-17.4,3.72,-41.69
2026-07-27 13:35:58.376,0.13,0.03,1.0,-31.74,-1.34,-40.04
2026-07-27 13:35:58.377,0.13,-0.02,0.99,-47.91,-9.34,-37.35
2026-07-27 13:35:58.377,0.13,-0.02,0.99,-47.91,-9.34,-37.35
2026-07-27 13:35:58.377,0.14,-0.09,0.95,-62.32,-10.74,-45.72
2026-07-27 13:35:58.377,0.14,-0.09,0.95,-62.32,-10.74,-45.72
2026-07-27 13:35:58.377,0.15,-0.17,0.87,-68.54,-4.94,-62.26
2026-07-27 13:35:58.377,0.15,-0.17,0.87,-68.54,-4.94,-62.26
2026-07-27 13:35:58.377,0.16,-0.21,0.81,-62.62,-6.47,-66.28
2026-07-27 13:35:58.377,0.16,-0.21,0.81,-51.39,-19.04,-55.91
2026-07-27 13:35:58.377,0.21,-0.24,0.82,-51.39,-19.04,-55.91
2026-07-27 13:35:58.378,0.25,-0.28,0.84,-37.41,-24.66,-36.56
2026-07-27 13:35:58.488,0.25,-0.28,0.84,-37.41,-24.66,-36.56
2026-07-27 13:35:58.489,0.28,-0.29,0.87,-18.43,-11.96,-9.09
2026-07-27 13:35:58.490,0.28,-0.29,0.87,-18.43,-11.96,-9.09
2026-07-27 13:35:58.491,0.25,-0.28,0.89,-2.44,4.15,15.44
2026-07-27 13:35:58.492,0.25,-0.28,0.89,-2.44,4.15,15.44
2026-07-27 13:35:58.500,0.22,-0.26,0.9,8.06,11.35,30.64
2026-07-27 13:35:58.500,0.19,-0.22,0.93,12.39,9.34,37.35
2026-07-27 13:35:58.509,0.19,-0.22,0.93,12.39,9.34,37.35
2026-07-27 13:35:58.510,0.19,-0.22,0.95,2.81,-1.77,34.0
2026-07-27 13:35:58.918,0.19,-0.22,0.95,2.81,-1.77,34.0
2026-07-27 13:35:58.919,0.23,-0.25,0.93,-17.88,-19.04,19.96
2026-07-27 13:35:58.920,0.23,-0.25,0.93,-17.88,-19.04,19.96
2026-07-27 13:35:58.920,0.28,-0.34,0.89,-43.4,-44.92,-1.16
2026-07-27 13:35:58.920,0.28,-0.34,0.89,-81.12,-74.58,-10.31
2026-07-27 13:35:58.921,0.39,-0.49,0.86,-81.12,-74.58,-10.31
2026-07-27 13:35:58.922,0.5,-0.62,0.83,-105.83,-73.85,-0.55
2026-07-27 13:35:58.922,0.5,-0.62,0.83,-105.83,-73.85,-0.55
2026-07-27 13:35:58.922,0.5,-0.64,0.82,-83.62,-30.4,-2.69
2026-07-27 13:35:58.924,0.5,-0.64,0.82,-83.62,-30.4,-2.69
2026-07-27 13:35:58.924,0.41,-0.57,0.81,-40.77,12.02,-24.41
2026-07-27 13:35:58.924,0.41,-0.57,0.81,-40.77,12.02,-24.41
2026-07-27 13:35:58.926,0.34,-0.49,0.82,-14.04,25.09,-41.93
2026-07-27 13:35:58.927,0.32,-0.47,0.81,-10.74,24.41,-48.4
2026-07-27 13:35:58.927,0.32,-0.47,0.81,-10.74,24.41,-48.4
2026-07-27 13:35:58.927,0.33,-0.48,0.77,-14.34,23.8,-45.59
2026-07-27 13:35:59.164,0.33,-0.48,0.77,-14.34,23.8,-45.59
2026-07-27 13:35:59.635,0.32,-0.47,0.76,-5.92,25.33,-34.91
2026-07-27 13:35:59.653,0.32,-0.47,0.76,10.62,27.89,-21.12
2026-07-27 13:35:59.670,0.29,-0.44,0.77,10.62,27.89,-21.12
2026-07-27 13:35:59.671,0.26,-0.42,0.78,22.71,29.48,-6.77
2026-07-27 13:35:59.671,0.26,-0.42,0.78,22.71,29.48,-6.77
2026-07-27 13:35:59.671,0.25,-0.44,0.78,27.83,29.17,7.02
2026-07-27 13:35:59.671,0.25,-0.44,0.78,27.83,29.17,7.02
2026-07-27 13:35:59.671,0.2,-0.48,0.77,30.94,26.06,24.48
2026-07-27 13:35:59.671,0.2,-0.48,0.77,30.94,26.06,24.48
2026-07-27 13:35:59.671,0.09,-0.47,0.75,30.09,26.98,48.95
2026-07-27 13:35:59.671,-0.03,-0.43,0.78,21.42,37.54,74.58
2026-07-27 13:35:59.671,-0.03,-0.43,0.78,21.42,37.54,74.58
2026-07-27 13:35:59.671,-0.05,-0.36,0.76,18.19,51.88,97.9
2026-07-27 13:35:59.672,-0.05,-0.36,0.76,18.19,51.88,97.9
2026-07-27 13:35:59.672,0.04,-0.35,0.73,26.0,56.76,104.37
2026-07-27 13:35:59.672,0.04,-0.35,0.73,26.0,56.76,104.37
2026-07-27 13:35:59.672,0.13,-0.41,0.75,29.72,47.06,83.01
2026-07-27 13:35:59.672,0.15,-0.42,0.85,27.16,38.45,47.55
2026-07-27 13:35:59.672,0.15,-0.42,0.85,27.16,38.45,47.55
2026-07-27 13:35:59.672,0.12,-0.37,0.93,20.45,39.06,17.4
2026-07-27 13:35:59.673,0.12,-0.37,0.93,20.45,39.06,17.4
2026-07-27 13:35:59.685,0.06,-0.26,0.97,9.7,46.87,-0.12
2026-07-27 13:35:59.703,0.06,-0.26,0.97,9.7,46.87,-0.12
2026-07-27 13:35:59.705,-0.01,-0.17,1.02,0.43,60.0,-5.13
2026-07-27 13:35:59.705,-0.01,-0.17,1.02,0.43,60.0,-5.13
2026-07-27 13:35:59.705,-0.04,-0.17,1.08,-4.09,65.8,1.71
2026-07-27 13:35:59.712,-0.04,-0.17,1.08,-2.81,58.59,11.11
2026-07-27 13:35:59.712,-0.05,-0.23,1.12,-2.81,58.59,11.11
2026-07-27 13:35:59.712,-0.08,-0.27,1.16,6.53,47.85,13.24
2026-07-27 13:35:59.712,-0.08,-0.27,1.16,6.53,47.85,13.24
2026-07-27 13:35:59.712,-0.14,-0.28,1.2,21.36,37.66,7.63
2026-07-27 13:35:59.712,-0.14,-0.28,1.2,21.36,37.66,7.63
2026-07-27 13:35:59.713,-0.21,-0.27,1.16,33.81,22.09,1.89
2026-07-27 13:35:59.713,-0.21,-0.27,1.16,33.81,22.09,1.89
2026-07-27 13:35:59.713,-0.23,-0.27,1.05,39.37,2.38,0.73
2026-07-27 13:35:59.713,-0.23,-0.27,1.05,40.16,-7.87,-0.12
2026-07-27 13:35:59.761,-0.24,-0.28,0.98,40.16,-7.87,-0.12
2026-07-27 13:35:59.761,-0.27,-0.29,0.96,41.02,-6.1,-4.03
2026-07-27 13:35:59.761,-0.27,-0.29,0.96,41.02,-6.1,-4.03
2026-07-27 13:35:59.762,-0.25,-0.28,0.91,39.67,-5.13,-7.51
2026-07-27 13:35:59.762,-0.25,-0.28,0.91,39.67,-5.13,-7.51
2026-07-27 13:35:59.879,-0.2,-0.25,0.81,31.25,-4.03,-12.63
2026-07-27 13:35:59.881,-0.2,-0.25,0.81,31.25,-4.03,-12.63
2026-07-27 13:35:59.882,-0.19,-0.21,0.73,17.46,10.74,-24.54
2026-07-27 13:35:59.883,-0.19,-0.21,0.73,17.46,10.74,-24.54
2026-07-27 13:35:59.883,-0.24,-0.18,0.74,3.66,32.23,-32.41
2026-07-27 13:35:59.883,-0.31,-0.17,0.84,-8.85,43.52,-25.45
2026-07-27 13:36:00.775,-0.31,-0.17,0.84,-8.85,43.52,-25.45
2026-07-27 13:36:00.840,-0.39,-0.18,0.98,-19.65,41.32,-6.71
2026-07-27 13:36:00.841,-0.39,-0.18,0.98,-19.65,41.32,-6.71
2026-07-27 13:36:00.866,-0.44,-0.23,1.06,-26.61,27.53,13.85
2026-07-27 13:36:00.867,-0.44,-0.23,1.06,-26.61,27.53,13.85
2026-07-27 13:36:00.867,-0.46,-0.28,1.05,-30.27,7.14,25.63
2026-07-27 13:36:00.867,-0.46,-0.32,0.99,-27.59,-8.06,27.53
2026-07-27 13:36:00.867,-0.46,-0.32,0.99,-27.59,-8.06,27.53
2026-07-27 13:36:00.868,-0.43,-0.31,0.91,-16.91,-13.79,24.9
2026-07-27 13:36:00.868,-0.43,-0.31,0.91,-16.91,-13.79,24.9
2026-07-27 13:36:00.868,-0.39,-0.29,0.81,-6.1,-15.99,20.57
2026-07-27 13:36:00.868,-0.39,-0.29,0.81,-6.1,-15.99,20.57
2026-07-27 13:36:00.868,-0.35,-0.28,0.69,-1.95,-14.89,13.43
2026-07-27 13:36:00.868,-0.35,-0.28,0.69,-1.95,-14.89,13.43
2026-07-27 13:36:00.868,-0.33,-0.27,0.61,-13.73,-5.86,-5.92
2026-07-27 13:36:00.868,-0.38,-0.29,0.64,-48.03,13.06,-39.55
2026-07-27 13:36:00.868,-0.38,-0.29,0.64,-48.03,13.06,-39.55
2026-07-27 13:36:00.868,-0.46,-0.31,0.75,-72.69,36.19,-50.23
2026-07-27 13:36:00.869,-0.46,-0.31,0.75,-72.69,36.19,-50.23
2026-07-27 13:36:00.869,-0.53,-0.31,0.85,-60.42,50.05,-26.0
2026-07-27 13:36:00.869,-0.53,-0.31,0.85,-60.42,50.05,-26.0
2026-07-27 13:36:00.897,-0.58,-0.33,0.93,-34.3,46.57,-0.61
2026-07-27 13:36:00.897,-0.58,-0.33,0.93,-15.44,30.27,14.59
2026-07-27 13:36:00.897,-0.58,-0.39,1.0,-15.44,30.27,14.59
2026-07-27 13:36:00.898,-0.53,-0.47,1.02,-5.62,7.32,20.2
2026-07-27 13:36:00.898,-0.53,-0.47,1.02,-5.62,7.32,20.2
2026-07-27 13:36:00.898,-0.45,-0.5,0.97,0.55,-15.69,12.51
2026-07-27 13:36:00.898,-0.45,-0.5,0.97,0.55,-15.69,12.51
2026-07-27 13:36:00.968,-0.4,-0.43,0.89,7.93,-31.19,-6.04
2026-07-27 13:36:01.051,-0.4,-0.43,0.89,7.93,-31.19,-6.04
2026-07-27 13:36:01.074,-0.37,-0.33,0.81,13.61,-36.07,-27.1
2026-07-27 13:36:01.105,-0.37,-0.33,0.81,13.61,-36.07,-27.1
2026-07-27 13:36:01.147,-0.38,-0.24,0.78,14.16,-28.93,-39.61
2026-07-27 13:36:01.147,-0.42,-0.19,0.86,10.62,-11.17,-37.41
2026-07-27 13:36:01.147,-0.42,-0.19,0.86,10.62,-11.17,-37.41
2026-07-27 13:36:01.147,-0.4,-0.18,1.02,5.49,3.54,-23.25
2026-07-27 13:36:01.178,-0.4,-0.18,1.02,5.49,3.54,-23.25
2026-07-27 13:36:01.178,-0.31,-0.24,1.09,-1.71,-6.53,-4.64
2026-07-27 13:36:01.178,-0.31,-0.24,1.09,-1.71,-6.53,-4.64
2026-07-27 13:36:01.178,-0.22,-0.37,1.0,-12.08,-41.02,8.79
2026-07-27 13:36:01.178,-0.21,-0.5,0.88,-17.7,-67.99,15.26
2026-07-27 13:36:01.179,-0.21,-0.5,0.88,-17.7,-67.99,15.26
2026-07-27 13:36:01.179,-0.23,-0.62,0.83,-14.47,-70.74,17.76
2026-07-27 13:36:01.179,-0.23,-0.62,0.83,-14.47,-70.74,17.76
2026-07-27 13:36:01.179,-0.18,-0.69,0.78,-11.47,-67.2,15.75
2026-07-27 13:36:01.179,-0.18,-0.69,0.78,-11.47,-67.2,15.75
2026-07-27 13:36:01.179,-0.07,-0.7,0.69,-12.76,-68.6,11.11
2026-07-27 13:36:01.179,0.03,-0.64,0.62,-13.73,-64.09,8.18
2026-07-27 13:36:01.179,0.03,-0.64,0.62,-13.73,-64.09,8.18
2026-07-27 13:36:01.179,0.06,-0.55,0.65,-14.28,-48.16,7.14
2026-07-27 13:36:01.262,0.06,-0.55,0.65,-14.28,-48.16,7.14
2026-07-27 13:36:01.273,0.05,-0.5,0.72,-15.87,-33.26,5.19
2026-07-27 13:36:01.273,0.05,-0.5,0.72,-15.87,-33.26,5.19
2026-07-27 13:36:01.274,0.03,-0.51,0.76,-13.73,-28.32,2.75
2026-07-27 13:36:01.275,0.03,-0.51,0.76,-3.97,-26.0,3.36
2026-07-27 13:36:01.276,-0.01,-0.54,0.75,-3.97,-26.0,3.36
2026-07-27 13:36:01.276,-0.09,-0.51,0.73,6.77,-23.68,3.97
2026-07-27 13:36:01.276,-0.09,-0.51,0.73,6.77,-23.68,3.97
2026-07-27 13:36:01.276,-0.18,-0.38,0.78,-6.41,-34.73,-2.5
2026-07-27 13:36:01.276,-0.18,-0.38,0.78,-6.41,-34.73,-2.5
2026-07-27 13:36:01.276,-0.22,-0.26,0.9,-44.31,-57.07,-5.25
2026-07-27 13:36:01.500,-0.22,-0.26,0.9,-44.31,-57.07,-5.25
2026-07-27 13:36:01.501,-0.17,-0.37,1.0,-58.84,-58.04,23.13
2026-07-27 13:36:01.501,-0.17,-0.37,1.0,-58.84,-58.04,23.13
2026-07-27 13:36:01.502,-0.04,-0.63,0.91,-35.71,-45.72,71.96
2026-07-27 13:36:01.502,0.15,-0.74,0.59,-4.82,-59.45,92.71
2026-07-27 13:36:01.502,0.15,-0.74,0.59,-4.82,-59.45,92.71
2026-07-27 13:36:01.502,0.3,-0.61,0.4,25.63,-77.82,78.92
2026-07-27 13:36:01.502,0.3,-0.61,0.4,25.63,-77.82,78.92
2026-07-27 13:36:01.503,0.33,-0.41,0.53,53.47,-51.7,61.95
2026-07-27 13:36:01.503,0.33,-0.41,0.53,53.47,-51.7,61.95
2026-07-27 13:36:01.503,0.22,-0.33,0.8,65.8,10.07,52.73
2026-07-27 13:36:02.003,0.08,-0.33,0.99,59.75,55.91,45.1
2026-07-27 13:36:02.016,0.08,-0.33,0.99,59.75,55.91,45.1
2026-07-27 13:36:02.016,0.0,-0.33,1.06,44.62,60.73,35.83
2026-07-27 13:36:02.016,0.0,-0.33,1.06,44.62,60.73,35.83
2026-07-27 13:36:02.016,-0.02,-0.31,1.05,29.05,38.39,28.26
2026-07-27 13:36:02.017,-0.02,-0.31,1.05,29.05,38.39,28.26
2026-07-27 13:36:02.017,-0.07,-0.35,1.04,17.21,15.56,27.83
2026-07-27 13:36:02.017,-0.07,-0.35,1.04,12.76,7.32,33.94
2026-07-27 13:36:02.017,-0.17,-0.46,1.09,12.76,7.32,33.94
2026-07-27 13:36:02.017,-0.24,-0.57,1.1,15.26,0.18,40.71
2026-07-27 13:36:02.017,-0.24,-0.57,1.1,15.26,0.18,40.71
2026-07-27 13:36:02.017,-0.25,-0.66,1.04,15.01,-18.19,42.79
2026-07-27 13:36:02.038,-0.25,-0.66,1.04,15.01,-18.19,42.79
2026-07-27 13:36:02.039,-0.25,-0.72,1.0,8.73,-31.62,36.44
2026-07-27 13:36:02.039,-0.25,-0.72,1.0,8.73,-31.62,36.44
2026-07-27 13:36:02.039,-0.22,-0.69,0.94,4.03,-33.81,21.36
2026-07-27 13:36:02.289,-0.22,-0.69,0.94,-0.67,-42.05,0.85
2026-07-27 13:36:02.289,-0.13,-0.58,0.77,-0.67,-42.05,0.85
2026-07-27 13:36:02.291,-0.04,-0.45,0.57,-7.81,-50.72,-19.78
2026-07-27 13:36:02.414,-0.04,-0.45,0.57,-7.81,-50.72,-19.78
2026-07-27 13:36:02.433,-0.03,-0.35,0.54,-9.4,-33.14,-33.81
2026-07-27 13:36:02.450,-0.03,-0.35,0.54,-9.4,-33.14,-33.81
2026-07-27 13:36:02.456,-0.09,-0.33,0.7,-2.69,8.06,-39.25
2026-07-27 13:36:02.463,-0.09,-0.33,0.7,-2.69,8.06,-39.25
2026-07-27 13:36:02.463,-0.17,-0.35,0.91,4.82,42.24,-39.37
2026-07-27 13:36:02.467,-0.21,-0.36,1.02,8.18,51.57,-38.88
2026-07-27 13:36:02.470,-0.21,-0.36,1.02,8.18,51.57,-38.88
2026-07-27 13:36:02.474,-0.19,-0.31,1.0,5.98,40.1,-39.55
2026-07-27 13:36:02.482,-0.19,-0.31,1.0,5.98,40.1,-39.55
2026-07-27 13:36:02.482,-0.14,-0.24,0.94,0.55,26.37,-38.27
2026-07-27 13:36:02.482,-0.14,-0.24,0.94,0.55,26.37,-38.27
2026-07-27 13:36:02.482,-0.11,-0.2,0.95,-2.56,24.35,-31.8
2026-07-27 13:36:02.482,-0.11,-0.2,0.95,-2.56,24.35,-31.8
2026-07-27 13:36:02.482,-0.13,-0.24,1.02,-2.32,27.1,-22.28
2026-07-27 13:36:02.482,-0.14,-0.31,1.03,-0.92,20.02,-15.69
2026-07-27 13:36:02.483,-0.14,-0.31,1.03,-0.92,20.02,-15.69
2026-07-27 13:36:02.483,-0.12,-0.31,0.94,-0.85,2.75,-16.3
2026-07-27 13:36:02.483,-0.12,-0.31,0.94,-0.85,2.75,-16.3
2026-07-27 13:36:02.483,-0.11,-0.27,0.88,-0.55,-5.8,-20.14
2026-07-27 13:36:02.483,-0.11,-0.27,0.88,-0.55,-5.8,-20.14
2026-07-27 13:36:03.318,-0.13,-0.29,0.93,3.54,2.56,-19.96
2026-07-27 13:36:03.319,-0.13,-0.29,0.93,3.54,2.56,-19.96
2026-07-27 13:36:03.319,-0.15,-0.33,0.98,9.7,12.45,-17.15
2026-07-27 13:36:03.319,-0.16,-0.33,0.96,14.83,13.92,-15.99
2026-07-27 13:36:03.319,-0.16,-0.33,0.96,14.83,13.92,-15.99
2026-07-27 13:36:03.319,-0.15,-0.28,0.92,16.91,13.24,-13.49
2026-07-27 13:36:03.319,-0.15,-0.28,0.92,16.91,13.24,-13.49
2026-07-27 13:36:03.319,-0.14,-0.27,0.91,14.59,13.85,-4.7
2026-07-27 13:36:03.319,-0.14,-0.27,0.91,14.59,13.85,-4.7
2026-07-27 13:36:03.319,-0.12,-0.32,0.92,8.12,10.5,8.24
2026-07-27 13:36:03.319,-0.12,-0.32,0.92,8.12,10.5,8.24
2026-07-27 13:36:03.319,-0.1,-0.39,0.91,0.12,2.26,18.86
2026-07-27 13:36:03.320,-0.08,-0.44,0.89,-6.16,-4.52,23.25
2026-07-27 13:36:03.320,-0.08,-0.44,0.89,-6.16,-4.52,23.25
2026-07-27 13:36:03.320,-0.06,-0.45,0.89,-8.97,-5.37,20.87
2026-07-27 13:36:03.320,-0.06,-0.45,0.89,-8.97,-5.37,20.87
2026-07-27 13:36:03.320,-0.06,-0.43,0.91,-8.97,-2.99,14.1
2026-07-27 13:36:03.320,-0.06,-0.43,0.91,-8.97,-2.99,14.1
2026-07-27 13:36:03.320,-0.07,-0.4,0.91,-7.81,-2.26,6.77
2026-07-27 13:36:03.320,-0.09,-0.38,0.9,-6.71,-3.91,1.89
2026-07-27 13:36:03.320,-0.09,-0.38,0.9,-6.71,-3.91,1.89
2026-07-27 13:36:03.320,-0.1,-0.38,0.89,-6.41,-4.88,0.43
2026-07-27 13:36:03.320,-0.1,-0.38,0.89,-6.41,-4.88,0.43
2026-07-27 13:36:03.320,-0.08,-0.43,0.89,-7.2,-3.6,1.16
2026-07-27 13:36:03.320,-0.08,-0.43,0.89,-7.2,-3.6,1.16
2026-07-27 13:36:03.320,-0.04,-0.5,0.91,-8.73,-0.18,0.67
2026-07-27 13:36:03.321,-0.04,-0.5,0.91,-8.73,-0.18,0.67
2026-07-27 13:36:03.321,-0.01,-0.59,0.94,-10.62,2.87,-3.6
2026-07-27 13:36:03.321,-0.01,-0.59,0.94,-10.62,2.87,-3.6
2026-07-27 13:36:03.352,0.06,-0.71,0.98,-3.3,3.72,-5.92
2026-07-27 13:36:03.353,0.06,-0.71,0.98,42.42,17.88,12.21
2026-07-27 13:36:03.491,0.16,-0.81,1.08,42.42,17.88,12.21
2026-07-27 13:36:03.503,0.13,-0.86,1.23,100.04,47.55,32.53
2026-07-27 13:36:03.503,0.13,-0.86,1.23,100.04,47.55,32.53
2026-07-27 13:36:03.504,-0.05,-0.8,1.38,99.73,48.03,-3.72
2026-07-27 13:36:03.504,-0.05,-0.8,1.38,99.73,48.03,-3.72
2026-07-27 13:36:03.504,-0.22,-0.59,1.47,62.87,2.62,-82.46
2026-07-27 13:36:03.504,-0.22,-0.59,1.47,62.87,2.62,-82.46
2026-07-27 13:36:03.504,-0.3,-0.35,1.49,39.06,-55.91,-139.04
2026-07-27 13:36:03.504,-0.3,-0.35,1.49,39.06,-55.91,-139.04
2026-07-27 13:36:03.504,-0.27,-0.17,1.4,26.55,-106.2,-156.37
2026-07-27 13:36:03.504,-0.22,-0.04,1.21,18.74,-137.08,-148.07
2026-07-27 13:36:03.504,-0.22,-0.04,1.21,18.74,-137.08,-148.07
2026-07-27 13:36:03.504,-0.21,0.09,0.98,20.45,-141.48,-128.3
2026-07-27 13:36:03.505,-0.21,0.09,0.98,20.45,-141.48,-128.3
2026-07-27 13:36:03.505,-0.17,0.19,0.81,27.95,-128.11,-100.83
2026-07-27 13:36:03.505,-0.1,0.2,0.69,30.27,-111.21,-68.42
2026-07-27 13:36:03.505,-0.1,0.2,0.69,30.27,-111.21,-68.42
2026-07-27 13:36:03.662,0.01,0.13,0.63,23.68,-99.98,-39.98
2026-07-27 13:36:03.664,0.01,0.13,0.63,23.68,-99.98,-39.98
2026-07-27 13:36:03.665,0.14,0.01,0.58,14.4,-93.02,-19.84
2026-07-27 13:36:03.666,0.14,0.01,0.58,14.4,-93.02,-19.84
2026-07-27 13:36:03.666,0.25,-0.04,0.52,14.16,-82.95,-8.61
2026-07-27 13:36:03.666,0.33,-0.01,0.45,21.42,-68.73,-3.66
2026-07-27 13:36:03.671,0.33,-0.01,0.45,21.42,-68.73,-3.66
2026-07-27 13:36:03.671,0.38,0.05,0.37,24.23,-52.73,0.92
2026-07-27 13:36:03.843,0.38,0.05,0.37,24.23,-52.73,0.92
2026-07-27 13:36:03.844,0.39,0.1,0.31,17.33,-35.64,7.75
2026-07-27 13:36:03.844,0.39,0.1,0.31,17.33,-35.64,7.75
2026-07-27 13:36:03.844,0.35,0.15,0.28,4.39,-16.97,17.46
2026-07-27 13:36:03.844,0.35,0.15,0.28,4.39,-16.97,17.46
2026-07-27 13:36:03.902,0.35,0.15,0.28,4.39,-16.97,17.46
2026-07-27 13:36:03.906,0.35,0.15,0.28,4.39,-16.97,17.46
2026-07-27 13:36:03.909,0.18,0.27,0.27,-23.56,31.49,46.94
2026-07-27 13:36:03.912,0.18,0.27,0.27,-23.56,31.49,46.94
2026-07-27 13:36:03.916,0.07,0.22,0.36,-35.1,60.49,73.61
2026-07-27 13:36:03.928,-0.03,0.09,0.48,-42.36,88.01,107.12
2026-07-27 13:36:04.144,-0.03,0.09,0.48,-42.36,88.01,107.12
2026-07-27 13:36:04.166,-0.09,-0.1,0.64,-45.04,114.14,136.84
2026-07-27 13:36:04.192,-0.09,-0.1,0.64,-45.04,114.14,136.84
2026-07-27 13:36:04.198,-0.17,-0.31,0.84,-41.87,139.77,154.66
2026-07-27 13:36:04.202,-0.17,-0.31,0.84,-41.87,139.77,154.66
2026-07-27 13:36:04.203,-0.32,-0.42,1.12,-20.2,169.49,155.09
2026-07-27 13:36:04.207,-0.51,-0.42,1.43,13.92,194.7,142.27
2026-07-27 13:36:04.208,-0.51,-0.42,1.43,13.92,194.7,142.27
2026-07-27 13:36:04.208,-0.61,-0.4,1.59,32.23,187.68,125.49
2026-07-27 13:36:04.223,-0.61,-0.4,1.59,32.23,187.68,125.49
2026-07-27 13:36:04.224,-0.61,-0.4,1.55,31.01,147.89,109.99
2026-07-27 13:36:04.224,-0.61,-0.4,1.55,31.01,147.89,109.99
2026-07-27 13:36:04.224,-0.59,-0.4,1.44,29.6,105.41,98.69
2026-07-27 13:36:04.331,-0.58,-0.39,1.38,32.04,75.68,89.6
2026-07-27 13:36:04.350,-0.58,-0.39,1.38,32.04,75.68,89.6
2026-07-27 13:36:04.350,-0.55,-0.4,1.33,25.63,48.28,80.14
2026-07-27 13:36:04.350,-0.55,-0.4,1.33,25.63,48.28,80.14
2026-07-27 13:36:04.350,-0.47,-0.4,1.23,5.74,10.93,69.89
2026-07-27 13:36:04.444,-0.47,-0.4,1.23,5.74,10.93,69.89
2026-07-27 13:36:04.444,-0.37,-0.4,1.09,-22.64,-32.71,58.23
2026-07-27 13:36:04.445,-0.26,-0.37,0.96,-48.4,-70.86,43.52
2026-07-27 13:36:04.449,-0.26,-0.37,0.96,-48.4,-70.86,43.52
2026-07-27 13:36:04.449,-0.16,-0.34,0.86,-63.17,-96.13,25.76
2026-07-27 13:36:04.450,-0.16,-0.34,0.86,-63.17,-96.13,25.76
2026-07-27 13:36:04.645,-0.08,-0.3,0.79,-67.75,-101.07,7.75
2026-07-27 13:36:04.645,-0.08,-0.3,0.79,-67.75,-101.07,7.75
2026-07-27 13:36:04.648,-0.04,-0.27,0.81,-63.23,-77.94,-8.67
2026-07-27 13:36:04.648,-0.04,-0.27,0.81,-49.93,-34.42,-24.48
2026-07-27 13:36:04.648,-0.05,-0.23,0.9,-49.93,-34.42,-24.48
2026-07-27 13:36:04.648,-0.1,-0.19,1.03,-33.02,6.04,-39.61
2026-07-27 13:36:04.648,-0.1,-0.19,1.03,-33.02,6.04,-39.61
2026-07-27 13:36:04.748,-0.14,-0.14,1.11,-16.97,25.94,-51.21
2026-07-27 13:36:04.758,-0.14,-0.14,1.11,-16.97,25.94,-51.21
2026-07-27 13:36:04.806,-0.16,-0.06,1.12,-2.14,26.49,-57.8
2026-07-27 13:36:04.806,-0.16,-0.06,1.12,-2.14,26.49,-57.8
2026-07-27 13:36:04.829,-0.18,0.03,1.1,7.63,18.37,-59.2
2026-07-27 13:36:04.838,-0.22,0.11,1.1,9.7,8.85,-54.5
2026-07-27 13:36:04.842,-0.22,0.11,1.1,9.7,8.85,-54.5
2026-07-27 13:36:04.867,-0.27,0.14,1.13,5.86,-3.85,-42.54
2026-07-27 13:36:04.868,-0.27,0.14,1.13,5.86,-3.85,-42.54
2026-07-27 13:36:04.882,-0.34,0.11,1.17,0.98,-19.29,-23.93
2026-07-27 13:36:04.882,-0.34,0.11,1.17,0.98,-19.29,-23.93
2026-07-27 13:36:04.981,-0.4,0.06,1.17,2.5,-30.82,-0.55
2026-07-27 13:36:04.984,-0.42,0.03,1.02,7.75,-43.27,26.0
2026-07-27 13:36:04.998,-0.42,0.03,1.02,7.75,-43.27,26.0
2026-07-27 13:36:05.007,-0.41,-0.01,0.76,1.16,-66.04,56.58
2026-07-27 13:36:05.035,-0.41,-0.01,0.76,1.16,-66.04,56.58
2026-07-27 13:36:05.100,-0.39,-0.16,0.54,-23.07,-87.52,91.86
2026-07-27 13:36:05.100,-0.39,-0.16,0.54,-23.07,-87.52,91.86
2026-07-27 13:36:05.101,-0.38,-0.4,0.43,-48.52,-86.73,126.22
2026-07-27 13:36:05.101,-0.32,-0.67,0.47,-61.52,-57.31,150.88
2026-07-27 13:36:05.101,-0.32,-0.67,0.47,-61.52,-57.31,150.88
2026-07-27 13:36:05.392,-0.19,-0.88,0.64,-60.67,-10.5,157.78
2026-07-27 13:36:05.392,-0.19,-0.88,0.64,-60.67,-10.5,157.78
2026-07-27 13:36:05.418,-0.04,-0.97,0.8,-50.66,26.12,142.88
2026-07-27 13:36:05.545,-0.04,-0.97,0.8,-50.66,26.12,142.88
2026-07-27 13:36:06.839,0.07,-0.95,0.89,-42.79,34.91,112.3
2026-07-27 13:36:08.035,0.08,-0.87,0.94,-37.54,25.76,76.78
2026-07-27 13:36:08.054,0.08,-0.87,0.94,-37.54,25.76,76.78
2026-07-27 13:36:08.072,0.01,-0.72,0.98,-15.93,13.49,45.23
2026-07-27 13:36:08.072,0.01,-0.72,0.98,-15.93,13.49,45.23
2026-07-27 13:36:08.088,-0.07,-0.53,1.0,35.95,4.52,27.28
2026-07-27 13:36:08.088,-0.07,-0.53,1.0,35.95,4.52,27.28
2026-07-27 13:36:08.088,-0.07,-0.35,0.9,81.79,-7.63,25.94
2026-07-27 13:36:08.089,-0.07,-0.35,0.9,59.45,-26.98,24.66
2026-07-27 13:36:08.120,0.0,-0.23,0.72,59.45,-26.98,24.66
2026-07-27 13:36:08.144,0.06,-0.17,0.61,-6.9,-31.49,6.96
2026-07-27 13:36:08.172,0.06,-0.17,0.61,-6.9,-31.49,6.96
2026-07-27 13:36:08.194,0.05,-0.14,0.63,-43.58,-15.38,-11.35
2026-07-27 13:36:08.212,0.05,-0.14,0.63,-43.58,-15.38,-11.35
2026-07-27 13:36:08.215,0.04,-0.13,0.73,-41.14,-6.41,-7.45
2026-07-27 13:36:08.217,0.04,-0.13,0.73,-41.14,-6.41,-7.45
2026-07-27 13:36:08.218,0.06,-0.13,0.81,-34.24,-12.57,12.51
2026-07-27 13:36:08.219,0.06,-0.13,0.81,-53.53,-17.94,29.91
2026-07-27 13:36:08.220,0.05,-0.23,0.83,-53.53,-17.94,29.91
2026-07-27 13:36:08.221,-0.04,-0.41,0.94,-100.04,-8.3,33.39
2026-07-27 13:36:08.226,-0.04,-0.41,0.94,-100.04,-8.3,33.39
2026-07-27 13:36:08.226,-0.19,-0.6,1.05,-133.24,-3.36,30.33
2026-07-27 13:36:08.227,-0.19,-0.6,1.05,-133.24,-3.36,30.33
2026-07-27 13:36:08.227,-0.34,-0.8,1.0,-143.37,-25.15,32.71
2026-07-27 13:36:08.227,-0.34,-0.8,1.0,-143.37,-25.15,32.71
2026-07-27 13:36:08.227,-0.44,-0.99,0.83,-157.53,-56.27,34.36
2026-07-27 13:36:08.228,-0.47,-1.12,0.54,-173.4,-79.16,31.37
2026-07-27 13:36:08.228,-0.47,-1.12,0.54,-173.4,-79.16,31.37
2026-07-27 13:36:08.228,-0.49,-1.07,0.19,-176.82,-92.41,25.02
2026-07-27 13:36:08.228,-0.49,-1.07,0.19,-176.82,-92.41,25.02
2026-07-27 13:36:08.228,-0.39,-0.69,0.01,-155.09,-106.14,13.55
2026-07-27 13:36:08.232,-0.39,-0.69,0.01,-155.09,-106.14,13.55
2026-07-27 13:36:08.232,0.04,-0.1,0.02,-126.77,-120.48,5.74
2026-07-27 13:36:08.255,0.04,-0.1,0.02,-126.77,-120.48,5.74
2026-07-27 13:36:08.255,0.71,0.22,0.02,-123.6,-127.99,12.39
2026-07-27 13:36:08.258,1.08,0.14,0.03,-139.16,-142.03,10.38
2026-07-27 13:36:08.278,1.08,0.14,0.03,-139.16,-142.03,10.38
2026-07-27 13:36:08.278,0.83,-0.12,0.2,-145.94,-155.33,-16.3
2026-07-27 13:36:08.279,0.83,-0.12,0.2,-145.94,-155.33,-16.3
2026-07-27 13:36:08.280,0.2,-0.37,0.47,-139.16,-164.92,-47.79
2026-07-27 13:36:08.347,0.2,-0.37,0.47,-139.16,-164.92,-47.79
2026-07-27 13:36:08.353,-0.28,-0.81,0.57,-121.7,-192.93,-61.34
2026-07-27 13:36:08.353,-0.28,-0.81,0.57,-106.99,-226.2,-51.76
2026-07-27 13:36:08.353,-0.34,-1.54,0.63,-106.99,-226.2,-51.76
2026-07-27 13:36:08.353,-0.26,-1.93,0.61,-70.19,-255.98,-53.65
2026-07-27 13:36:08.353,-0.26,-1.93,0.61,-70.19,-255.98,-53.65
2026-07-27 13:36:08.353,-0.16,-1.91,0.33,-27.22,-292.24,-95.46
2026-07-27 13:36:08.353,-0.16,-1.91,0.33,-27.22,-292.24,-95.46
2026-07-27 13:36:08.353,-0.07,-1.68,0.25,12.76,-275.27,-169.19
2026-07-27 13:36:08.353,-0.07,-1.68,0.25,12.76,-275.27,-169.19
2026-07-27 13:36:08.353,0.2,-1.76,0.36,85.82,-221.07,-233.95
2026-07-27 13:36:08.354,0.26,-1.76,0.47,134.34,-183.84,-278.75
2026-07-27 13:36:08.462,0.26,-1.76,0.47,134.34,-183.84,-278.75
2026-07-27 13:36:08.466,0.23,-0.91,0.37,146.85,-126.16,-304.57
2026-07-27 13:36:08.466,0.23,-0.91,0.37,146.85,-126.16,-304.57
2026-07-27 13:36:08.466,0.71,-0.01,0.12,143.13,-43.82,-226.87
2026-07-27 13:36:08.466,0.71,-0.01,0.12,143.13,-43.82,-226.87
2026-07-27 13:36:08.466,1.02,0.02,-0.12,114.38,1.28,-29.79
2026-07-27 13:36:08.468,0.67,-0.67,0.12,70.92,17.52,138.55
2026-07-27 13:36:08.468,0.67,-0.67,0.12,70.92,17.52,138.55
2026-07-27 13:36:08.468,0.02,-1.37,0.65,31.07,43.82,157.71
2026-07-27 13:36:08.468,0.02,-1.37,0.65,31.07,43.82,157.71
2026-07-27 13:36:08.468,0.03,-2.09,1.79,-27.47,236.57,280.03
2026-07-27 13:36:08.468,0.17,-1.78,1.6,69.34,210.63,248.41
2026-07-27 13:36:08.468,0.17,-1.78,1.6,69.34,210.63,248.41
2026-07-27 13:36:08.468,0.36,-1.12,1.07,147.46,143.07,189.45
2026-07-27 13:36:08.469,0.36,-1.12,1.07,147.46,143.07,189.45
2026-07-27 13:36:08.470,0.61,-0.94,0.63,165.1,70.68,133.06
2026-07-27 13:36:08.470,0.61,-0.94,0.63,165.1,70.68,133.06
2026-07-27 13:36:08.470,0.77,-1.15,0.26,125.79,2.01,71.96
2026-07-27 13:36:08.470,0.61,-1.33,0.03,84.59,-56.46,4.33
2026-07-27 13:36:08.472,0.61,-1.33,0.03,84.59,-56.46,4.33
2026-07-27 13:36:08.473,0.21,-1.3,-0.17,65.49,-114.26,-49.99
2026-07-27 13:36:08.473,0.21,-1.3,-0.17,65.49,-114.26,-49.99
2026-07-27 13:36:08.474,-0.21,-1.27,-0.54,44.37,-171.51,-80.08
2026-07-27 13:36:08.474,-0.21,-1.27,-0.54,44.37,-171.51,-80.08
2026-07-27 13:36:08.475,-0.52,-1.42,-0.89,13.73,-192.02,-104.98
2026-07-27 13:36:08.486,-0.64,-1.37,-0.83,5.37,-143.49,-123.9
2026-07-27 13:36:08.486,-0.64,-1.37,-0.83,5.37,-143.49,-123.9
2026-07-27 13:36:08.486,-0.46,-0.93,-0.41,24.05,-62.87,-111.15
2026-07-27 13:36:08.486,-0.46,-0.93,-0.41,24.05,-62.87,-111.15
2026-07-27 13:36:08.487,-0.11,-0.36,-0.09,42.05,-21.91,-74.89
2026-07-27 13:36:08.487,-0.11,-0.36,-0.09,42.05,-21.91,-74.89
2026-07-27 13:36:08.487,0.09,-0.1,0.02,46.51,-26.92,-40.83
2026-07-27 13:36:08.487,-0.01,-0.31,0.08,30.4,-36.68,-9.16
2026-07-27 13:36:08.487,-0.01,-0.31,0.08,30.4,-36.68,-9.16
2026-07-27 13:36:08.487,-0.24,-0.66,0.1,3.97,-45.23,28.02
2026-07-27 13:36:08.821,-0.24,-0.66,0.1,3.97,-45.23,28.02
2026-07-27 13:36:08.858,-0.39,-0.9,0.03,-22.03,-78.25,61.46
2026-07-27 13:36:08.858,-0.39,-0.9,0.03,-22.03,-78.25,61.46
2026-07-27 13:36:08.858,-0.4,-1.09,-0.1,-45.65,-129.03,74.95
2026-07-27 13:36:08.858,-0.32,-1.26,-0.23,-57.8,-160.16,67.14
2026-07-27 13:36:08.858,-0.32,-1.26,-0.23,-57.8,-160.16,67.14
2026-07-27 13:36:08.858,-0.2,-1.43,-0.31,-55.85,-144.9,49.19
2026-07-27 13:36:08.859,-0.2,-1.43,-0.31,-55.85,-144.9,49.19
2026-07-27 13:36:08.859,-0.09,-1.48,-0.24,-34.85,-87.1,23.8
2026-07-27 13:36:08.859,-0.09,-1.48,-0.24,-34.85,-87.1,23.8
2026-07-27 13:36:08.859,0.0,-1.27,-0.05,14.1,-22.28,-11.96
2026-07-27 13:36:08.887,0.05,-0.88,0.09,66.89,11.11,-51.45
2026-07-27 13:36:08.887,0.05,-0.88,0.09,66.89,11.11,-51.45
2026-07-27 13:36:08.888,0.05,-0.42,0.16,94.91,10.07,-72.88
2026-07-27 13:36:08.889,0.05,-0.42,0.16,94.91,10.07,-72.88
2026-07-27 13:36:09.019,-0.07,-0.14,0.26,92.65,5.25,-55.42
2026-07-27 13:36:09.020,-0.07,-0.14,0.26,60.06,1.22,-4.88
2026-07-27 13:36:09.036,-0.3,-0.27,0.31,60.06,1.22,-4.88
2026-07-27 13:36:09.140,-0.55,-0.68,0.15,6.47,-30.46,50.48
2026-07-27 13:36:09.149,-0.55,-0.68,0.15,6.47,-30.46,50.48
2026-07-27 13:36:09.149,-0.69,-1.26,-0.22,-54.26,-83.07,83.92
2026-07-27 13:36:09.149,-0.69,-1.26,-0.22,-54.26,-83.07,83.92
2026-07-27 13:36:09.149,-0.6,-1.83,-0.51,-99.61,-93.99,86.43
2026-07-27 13:36:09.149,-0.6,-1.83,-0.51,-99.61,-93.99,86.43
2026-07-27 13:36:09.149,-0.31,-2.0,-0.45,-99.24,-30.82,63.42
2026-07-27 13:36:09.149,0.0,-1.64,-0.2,-54.63,68.18,21.91
2026-07-27 13:36:09.149,0.0,-1.64,-0.2,-54.63,68.18,21.91
2026-07-27 13:36:09.149,0.16,-1.01,0.11,0.55,141.05,-27.47
2026-07-27 13:36:09.250,0.16,-1.01,0.11,0.55,141.05,-27.47
2026-07-27 13:36:09.251,0.22,-0.35,0.44,41.75,153.02,-61.4
2026-07-27 13:36:09.252,0.22,-0.35,0.44,41.75,153.02,-61.4
2026-07-27 13:36:09.260,0.24,0.14,0.77,78.86,130.74,-53.47
2026-07-27 13:36:09.260,0.24,0.14,0.77,102.6,108.95,0.98
2026-07-27 13:36:09.364,0.04,0.03,1.03,102.6,108.95,0.98
2026-07-27 13:36:09.379,-0.35,-0.71,0.99,56.4,46.69,76.05
2026-07-27 13:36:09.508,-0.35,-0.71,0.99,56.4,46.69,76.05
2026-07-27 13:36:09.509,-0.55,-1.39,0.53,-81.97,-129.52,122.99
2026-07-27 13:36:09.520,-0.55,-1.39,0.53,-81.97,-129.52,122.99
2026-07-27 13:36:09.520,-0.42,-1.61,-0.07,-213.32,-347.96,113.4
2026-07-27 13:36:09.520,-0.25,-1.44,-0.38,-221.68,-434.45,60.18
2026-07-27 13:36:09.520,-0.25,-1.44,-0.38,-221.68,-434.45,60.18
2026-07-27 13:36:09.543,-0.36,-1.17,-0.23,-122.01,-327.51,-14.7
2026-07-27 13:36:09.576,-0.36,-1.17,-0.23,-122.01,-327.51,-14.7
2026-07-27 13:36:09.576,-0.66,-1.0,0.11,2.87,-135.13,-93.02
2026-07-27 13:36:09.808,-0.66,-1.0,0.11,2.87,-135.13,-93.02
2026-07-27 13:36:09.808,-0.82,-0.89,0.38,107.42,-14.53,-140.81
2026-07-27 13:36:09.825,-0.73,-0.81,0.48,188.84,-0.43,-123.6
2026-07-27 13:36:09.826,-0.73,-0.81,0.48,188.84,-0.43,-123.6
2026-07-27 13:36:09.826,-0.54,-0.89,0.39,228.39,-34.97,-63.23
2026-07-27 13:36:09.826,-0.54,-0.89,0.39,228.39,-34.97,-63.23
2026-07-27 13:36:09.826,-0.34,-1.06,0.18,208.86,-80.14,-13.79
2026-07-27 13:36:09.826,-0.34,-1.06,0.18,208.86,-80.14,-13.79
2026-07-27 13:36:09.826,-0.17,-1.14,-0.03,159.42,-101.38,4.94
2026-07-27 13:36:09.838,-0.01,-0.95,-0.19,125.12,-74.77,5.37
2026-07-27 13:36:09.838,-0.01,-0.95,-0.19,125.12,-74.77,5.37
2026-07-27 13:36:09.839,0.13,-0.55,-0.18,107.42,-31.07,5.43
2026-07-27 13:36:09.991,0.13,-0.55,-0.18,107.42,-31.07,5.43
2026-07-27 13:36:10.037,0.21,-0.26,0.0,81.91,-7.08,14.53
2026-07-27 13:36:10.092,0.21,-0.26,0.0,81.91,-7.08,14.53
2026-07-27 13:36:10.092,0.18,-0.19,0.13,46.57,-7.02,32.59
2026-07-27 13:36:10.204,0.18,-0.19,0.13,46.57,-7.02,32.59
2026-07-27 13:36:10.207,-0.02,-0.4,0.2,2.62,-4.03,53.28
2026-07-27 13:36:10.259,-0.43,-1.0,0.53,-46.63,36.07,60.97
2026-07-27 13:36:10.260,-0.43,-1.0,0.53,-46.63,36.07,60.97
2026-07-27 13:36:10.261,-1.04,-1.54,1.16,-70.31,113.83,28.93
2026-07-27 13:36:10.262,-1.04,-1.54,1.16,-70.31,113.83,28.93
2026-07-27 13:36:10.263,-1.42,-1.4,1.59,-39.0,183.29,-27.1
2026-07-27 13:36:10.264,-1.42,-1.4,1.59,-39.0,183.29,-27.1
2026-07-27 13:36:10.264,-1.08,-0.79,1.37,22.09,181.15,-46.57
2026-07-27 13:36:10.265,-0.29,-0.39,0.75,47.49,110.17,-22.64
2026-07-27 13:36:10.265,-0.29,-0.39,0.75,47.49,110.17,-22.64
2026-07-27 13:36:10.266,0.37,-0.26,0.31,30.88,55.48,-7.57
2026-07-27 13:36:10.266,0.37,-0.26,0.31,30.88,55.48,-7.57
2026-07-27 13:36:10.267,0.55,-0.05,0.34,35.46,89.54,-29.36
2026-07-27 13:36:10.268,0.55,-0.05,0.34,35.46,89.54,-29.36
2026-07-27 13:36:10.268,0.33,0.18,0.79,60.55,168.52,-48.03
2026-07-27 13:36:10.269,0.33,0.18,0.79,16.97,164.55,-8.06
2026-07-27 13:36:10.269,-0.03,-0.06,1.32,16.97,164.55,-8.06
2026-07-27 13:36:10.319,-0.37,-0.91,1.5,-113.34,32.65,78.25
2026-07-27 13:36:10.319,-0.37,-0.91,1.5,-113.34,32.65,78.25
2026-07-27 13:36:10.599,-0.58,-1.78,1.35,-213.38,-125.61,135.86
2026-07-27 13:36:10.607,-0.58,-1.78,1.35,-213.38,-125.61,135.86
2026-07-27 13:36:10.607,-0.66,-1.96,0.96,-192.57,-200.99,114.26
2026-07-27 13:36:10.607,-0.66,-1.96,0.96,-192.57,-200.99,114.26
2026-07-27 13:36:10.608,-0.66,-1.96,0.96,-192.57,-200.99,114.26
2026-07-27 13:36:10.610,-0.66,-1.96,0.96,-192.57,-200.99,114.26
2026-07-27 13:36:10.610,-0.45,-0.4,0.22,21.91,-125.43,-35.03
2026-07-27 13:36:10.610,-0.28,0.2,0.16,55.85,-64.64,-36.74
2026-07-27 13:36:10.611,-0.28,0.2,0.16,55.85,-64.64,-36.74
2026-07-27 13:36:10.611,-0.13,0.18,0.05,16.36,-62.5,22.16
2026-07-27 13:36:10.611,-0.13,0.18,0.05,16.36,-62.5,22.16
2026-07-27 13:36:11.227,-0.07,-0.21,-0.02,-40.34,-88.62,80.63
2026-07-27 13:36:11.233,-0.07,-0.21,-0.02,-40.34,-88.62,80.63
2026-07-27 13:36:11.346,-0.27,-0.67,0.04,-63.96,-87.83,93.87
2026-07-27 13:36:11.353,-0.72,-1.09,0.26,-55.97,-45.78,67.08
2026-07-27 13:36:11.902,-0.72,-1.09,0.26,-55.97,-45.78,67.08
2026-07-27 13:36:11.914,-1.05,-1.23,0.66,-31.37,26.37,31.07
2026-07-27 13:36:11.914,-1.05,-1.23,0.66,-31.37,26.37,31.07
2026-07-27 13:36:11.914,-0.86,-1.0,0.93,8.36,91.8,13.67
2026-07-27 13:36:11.914,-0.86,-1.0,0.93,8.36,91.8,13.67
2026-07-27 13:36:11.914,-0.31,-0.66,0.96,38.27,115.6,25.45
2026-07-27 13:36:11.914,-0.31,-0.66,0.96,38.27,115.6,25.45
2026-07-27 13:36:12.732,0.06,-0.4,0.84,28.63,90.09,49.99
2026-07-27 13:36:12.733,-0.05,-0.25,0.62,-14.16,12.76,67.75
2026-07-27 13:36:12.737,-0.05,-0.25,0.62,-14.16,12.76,67.75
2026-07-27 13:36:12.738,-0.41,-0.23,0.43,-64.15,-85.14,76.29
2026-07-27 13:36:12.738,-0.41,-0.23,0.43,-64.15,-85.14,76.29
2026-07-27 13:36:12.741,-0.6,-0.44,0.36,-98.14,-150.51,88.75
2026-07-27 13:36:12.741,-0.56,-0.77,0.42,-107.42,-160.83,100.83
2026-07-27 13:36:12.741,-0.56,-0.77,0.42,-107.42,-160.83,100.83
2026-07-27 13:36:12.742,-0.54,-0.9,0.5,-88.38,-124.88,82.95
2026-07-27 13:36:12.742,-0.54,-0.9,0.5,-88.38,-124.88,82.95
2026-07-27 13:36:12.742,-0.59,-0.93,0.59,-50.05,-65.12,47.73
2026-07-27 13:36:12.745,-0.59,-0.93,0.59,-50.05,-65.12,47.73
2026-07-27 13:36:12.746,-0.57,-1.05,0.51,-26.73,-31.31,35.1
2026-07-27 13:36:12.746,-0.4,-1.14,0.41,-25.76,-27.89,32.04
2026-07-27 13:36:12.858,-0.4,-1.14,0.41,-25.76,-27.89,32.04
2026-07-27 13:36:12.882,-0.27,-1.09,0.55,-19.71,-6.35,8.67
2026-07-27 13:36:12.890,-0.27,-1.09,0.55,-19.71,-6.35,8.67
2026-07-27 13:36:12.894,-0.21,-0.99,0.76,-0.43,20.57,-21.55
2026-07-27 13:36:12.897,-0.21,-0.99,0.76,-0.43,20.57,-21.55
2026-07-27 13:36:12.911,-0.24,-0.83,0.82,17.94,22.52,-42.6
2026-07-27 13:36:12.915,-0.24,-0.83,0.82,17.94,22.52,-42.6
2026-07-27 13:36:12.916,-0.3,-0.74,0.69,10.13,-6.77,-44.25
2026-07-27 13:36:12.926,-0.29,-0.76,0.53,-15.38,-40.16,-28.81
2026-07-27 13:36:12.933,-0.29,-0.76,0.53,-15.38,-40.16,-28.81
2026-07-27 13:36:12.933,-0.3,-0.74,0.37,-29.05,-42.6,-29.36
2026-07-27 13:36:12.944,-0.3,-0.74,0.37,-29.05,-42.6,-29.36
2026-07-27 13:36:12.944,-0.35,-0.68,0.27,-50.9,-13.43,-64.09
2026-07-27 13:36:12.944,-0.35,-0.68,0.27,-50.9,-13.43,-64.09
2026-07-27 13:36:12.945,-0.28,-0.73,0.28,-76.48,36.01,-101.5
2026-07-27 13:36:12.945,-0.28,-0.73,0.28,-76.48,36.01,-101.5
2026-07-27 13:36:12.945,-0.14,-0.85,0.27,-54.32,65.67,-101.68
2026-07-27 13:36:12.945,-0.07,-0.88,0.26,10.99,65.43,-76.48
2026-07-27 13:36:12.945,-0.07,-0.88,0.26,10.99,65.43,-76.48
2026-07-27 13:36:12.945,-0.02,-0.87,0.34,63.23,67.57,-51.94
2026-07-27 13:36:12.945,-0.02,-0.87,0.34,63.23,67.57,-51.94
2026-07-27 13:36:12.945,0.1,-0.93,0.48,77.76,72.14,-37.66
2026-07-27 13:36:12.947,0.1,-0.93,0.48,77.76,72.14,-37.66
2026-07-27 13:36:12.947,0.05,-0.93,0.61,76.29,65.55,-43.58
2026-07-27 13:36:12.952,0.05,-0.93,0.61,76.29,65.55,-43.58
2026-07-27 13:36:12.953,-0.15,-0.97,0.66,70.19,38.94,-60.24
2026-07-27 13:36:12.953,-0.21,-1.1,0.68,57.43,3.05,-66.65
2026-07-27 13:36:12.953,-0.21,-1.1,0.68,57.43,3.05,-66.65
2026-07-27 13:36:12.953,-0.16,-1.07,0.61,46.81,-21.42,-71.53
2026-07-27 13:36:12.962,-0.16,-1.07,0.61,46.81,-21.42,-71.53
2026-07-27 13:36:12.963,-0.14,-0.86,0.51,37.54,-33.39,-83.8
2026-07-27 13:36:12.963,-0.14,-0.86,0.51,37.54,-33.39,-83.8
2026-07-27 13:36:12.963,-0.17,-0.68,0.45,25.39,-32.71,-89.29
2026-07-27 13:36:12.963,-0.17,-0.68,0.45,25.39,-32.71,-89.29
2026-07-27 13:36:12.963,-0.2,-0.63,0.51,12.33,-13.92,-80.51
2026-07-27 13:36:12.963,-0.2,-0.65,0.68,3.42,17.94,-62.81
2026-07-27 13:36:12.963,-0.2,-0.65,0.68,3.42,17.94,-62.81
2026-07-27 13:36:12.963,-0.16,-0.68,0.83,2.87,42.42,-44.98
2026-07-27 13:36:12.963,-0.16,-0.68,0.83,2.87,42.42,-44.98
2026-07-27 13:36:12.963,-0.09,-0.67,0.84,6.47,34.79,-34.06
2026-07-27 13:36:12.963,-0.09,-0.67,0.84,6.47,34.79,-34.06
2026-07-27 13:36:12.963,-0.04,-0.63,0.76,10.25,6.53,-32.04
2026-07-27 13:36:12.963,-0.04,-0.63,0.76,10.25,6.53,-32.04
2026-07-27 13:36:12.964,-0.03,-0.59,0.69,14.65,-8.91,-34.36
2026-07-27 13:36:12.964,-0.03,-0.59,0.69,14.65,-8.91,-34.36
2026-07-27 13:36:12.964,-0.03,-0.58,0.67,18.49,-3.97,-36.62
2026-07-27 13:36:12.964,-0.02,-0.59,0.7,21.0,9.95,-36.38
2026-07-27 13:36:12.964,-0.02,-0.59,0.7,21.0,9.95,-36.38
2026-07-27 13:36:12.964,0.29,-0.47,0.7,20.57,32.35,2.69
2026-07-27 13:36:12.965,0.29,-0.47,0.7,20.57,32.35,2.69
2026-07-27 13:36:12.965,0.26,-0.43,0.75,29.11,35.77,18.01
2026-07-27 13:36:12.965,0.26,-0.43,0.75,29.11,35.77,18.01
2026-07-27 13:36:12.966,0.28,-0.41,0.82,37.78,31.56,35.22
2026-07-27 13:36:12.966,0.34,-0.41,0.9,49.99,26.49,54.63
2026-07-27 13:36:12.967,0.34,-0.41,0.9,49.99,26.49,54.63
2026-07-27 13:36:12.968,0.42,-0.41,1.0,59.75,23.38,63.66
2026-07-27 13:36:13.329,0.42,-0.41,1.0,59.75,23.38,63.66
2026-07-27 13:36:13.330,0.43,-0.37,1.13,58.23,17.03,52.49
2026-07-27 13:36:13.331,0.33,-0.34,1.2,48.77,3.72,34.61
2026-07-27 13:36:13.427,0.33,-0.34,1.2,48.77,3.72,34.61
2026-07-27 13:36:13.427,0.16,-0.37,1.19,30.82,-17.58,22.34
2026-07-27 13:36:13.453,0.16,-0.37,1.19,30.82,-17.58,22.34
2026-07-27 13:36:13.453,-0.01,-0.46,1.17,11.05,-34.85,17.21
2026-07-27 13:36:13.453,-0.01,-0.46,1.17,11.05,-34.85,17.21
2026-07-27 13:36:13.453,-0.1,-0.5,1.12,7.57,-49.19,13.06
2026-07-27 13:36:13.453,-0.1,-0.5,1.12,14.59,-67.57,6.77
2026-07-27 13:36:13.453,-0.1,-0.44,1.06,14.59,-67.57,6.77
2026-07-27 13:36:13.453,-0.09,-0.37,1.11,20.14,-69.52,5.07
2026-07-27 13:36:13.453,-0.09,-0.37,1.11,20.14,-69.52,5.07
2026-07-27 13:36:13.453,-0.1,-0.38,1.14,21.42,-60.79,10.62
2026-07-27 13:36:13.454,-0.1,-0.38,1.14,21.42,-60.79,10.62
2026-07-27 13:36:13.454,-0.16,-0.38,1.13,14.59,-59.45,11.05
2026-07-27 13:36:13.454,-0.16,-0.38,1.13,14.59,-59.45,11.05
2026-07-27 13:36:13.454,-0.22,-0.34,1.1,6.16,-57.43,3.54
2026-07-27 13:36:13.585,-0.22,-0.34,1.1,6.16,-57.43,3.54
2026-07-27 13:36:13.595,-0.22,-0.35,0.96,2.14,-52.43,-0.37
2026-07-27 13:36:13.595,-0.14,-0.38,0.82,4.09,-41.63,-1.95
2026-07-27 13:36:13.595,-0.14,-0.38,0.82,4.09,-41.63,-1.95
2026-07-27 13:36:13.595,-0.03,-0.39,0.69,19.35,-26.25,-4.27
2026-07-27 13:36:13.595,-0.03,-0.39,0.69,19.35,-26.25,-4.27
2026-07-27 13:36:13.595,0.08,-0.36,0.61,40.1,-18.92,-6.41
2026-07-27 13:36:13.595,0.08,-0.36,0.61,40.1,-18.92,-6.41
2026-07-27 13:36:13.595,0.17,-0.32,0.55,49.93,-23.32,-8.06
2026-07-27 13:36:13.595,0.24,-0.3,0.55,46.45,-27.59,-8.79
2026-07-27 13:36:13.595,0.24,-0.3,0.55,46.45,-27.59,-8.79
2026-07-27 13:36:13.619,0.33,-0.29,0.61,28.2,-23.99,-12.57
2026-07-27 13:36:13.628,0.33,-0.29,0.61,28.2,-23.99,-12.57
2026-07-27 13:36:13.628,0.4,-0.24,0.73,2.38,-15.99,-17.58
2026-07-27 13:36:13.681,0.4,-0.24,0.73,2.38,-15.99,-17.58
2026-07-27 13:36:13.681,0.39,-0.16,0.9,-14.71,-0.06,-17.15
2026-07-27 13:36:13.682,0.39,-0.16,0.9,-14.71,-0.06,-17.15
2026-07-27 13:36:13.891,0.3,-0.13,1.05,-27.4,16.42,-14.89
2026-07-27 13:36:13.908,0.16,-0.18,1.08,-48.03,12.51,-23.99
2026-07-27 13:36:13.908,0.16,-0.18,1.08,-48.03,12.51,-23.99
2026-07-27 13:36:13.908,0.11,-0.28,1.04,-70.68,-12.57,-43.64
2026-07-27 13:36:13.909,0.11,-0.28,1.04,-70.68,-12.57,-43.64
2026-07-27 13:36:13.909,0.28,-0.45,0.95,-88.07,-34.55,-64.88
2026-07-27 13:36:13.909,0.28,-0.45,0.95,-88.07,-34.55,-64.88
2026-07-27 13:36:13.931,0.56,-0.58,0.75,-127.5,-28.44,-97.6
2026-07-27 13:36:14.241,0.68,-0.62,0.6,-193.18,17.82,-141.91
2026-07-27 13:36:14.242,0.68,-0.62,0.6,-193.18,17.82,-141.91
2026-07-27 13:36:14.255,0.6,-0.61,0.69,-222.29,92.41,-174.26
2026-07-27 13:36:14.256,0.6,-0.61,0.69,-222.29,92.41,-174.26
2026-07-27 13:36:14.256,0.49,-0.56,0.79,-176.27,126.71,-182.92
2026-07-27 13:36:14.256,0.49,-0.56,0.79,-176.27,126.71,-182.92
2026-07-27 13:36:14.256,0.41,-0.57,0.75,-106.87,99.67,-173.28
2026-07-27 13:36:14.256,0.33,-0.62,0.65,-59.63,67.57,-147.09
2026-07-27 13:36:14.256,0.33,-0.62,0.65,-59.63,67.57,-147.09
2026-07-27 13:36:14.256,0.28,-0.58,0.57,-23.32,54.26,-103.88
2026-07-27 13:36:14.258,0.28,-0.58,0.57,-23.32,54.26,-103.88
2026-07-27 13:36:14.259,0.25,-0.45,0.58,11.78,53.04,-52.19
2026-07-27 13:36:14.260,0.25,-0.45,0.58,11.78,53.04,-52.19
2026-07-27 13:36:14.260,0.24,-0.31,0.61,36.13,48.4,-8.06
2026-07-27 13:36:14.260,0.22,-0.27,0.64,38.88,32.71,21.0
2026-07-27 13:36:14.588,0.22,-0.27,0.64,38.88,32.71,21.0
2026-07-27 13:36:14.591,0.22,-0.31,0.7,39.55,12.08,44.49
2026-07-27 13:36:14.591,0.22,-0.31,0.7,39.55,12.08,44.49
2026-07-27 13:36:14.591,0.26,-0.34,0.79,63.05,-4.39,76.35
2026-07-27 13:36:14.591,0.26,-0.34,0.79,63.05,-4.39,76.35
2026-07-27 13:36:14.591,0.31,-0.33,0.88,91.61,-11.05,101.26
2026-07-27 13:36:14.592,0.31,-0.33,0.88,97.47,-6.96,104.06
2026-07-27 13:36:14.592,0.32,-0.32,0.95,97.47,-6.96,104.06
2026-07-27 13:36:14.592,0.28,-0.35,0.95,93.44,-1.22,102.23
2026-07-27 13:36:14.592,0.28,-0.35,0.95,93.44,-1.22,102.23
2026-07-27 13:36:14.592,0.18,-0.39,0.94,84.72,0.73,96.86
2026-07-27 13:36:14.592,0.18,-0.39,0.94,84.72,0.73,96.86
2026-07-27 13:36:14.592,0.03,-0.42,1.03,71.96,5.13,77.7
2026-07-27 13:36:14.592,0.03,-0.42,1.03,71.96,5.13,77.7
2026-07-27 13:36:14.592,-0.11,-0.4,1.19,77.51,7.02,56.46
2026-07-27 13:36:14.592,-0.15,-0.4,1.27,82.76,4.15,45.9
2026-07-27 13:36:15.082,-0.15,-0.4,1.27,82.76,4.15,45.9
2026-07-27 13:36:15.089,-0.16,-0.38,1.24,63.66,8.3,39.0
2026-07-27 13:36:15.094,-0.16,-0.38,1.24,63.66,8.3,39.0
2026-07-27 13:36:15.135,-0.1,-0.28,1.1,43.46,-2.38,37.78
2026-07-27 13:36:15.135,-0.1,-0.28,1.1,43.46,-2.38,37.78
2026-07-27 13:36:15.139,0.08,-0.22,0.85,36.8,-40.28,53.65
2026-07-27 13:36:15.142,0.08,-0.22,0.85,36.8,-40.28,53.65
2026-07-27 13:36:15.145,0.24,-0.2,0.64,35.34,-66.47,68.24
2026-07-27 13:36:15.145,0.25,-0.19,0.48,28.08,-52.8,64.45
2026-07-27 13:36:15.145,0.25,-0.19,0.48,28.08,-52.8,64.45
2026-07-27 13:36:15.146,0.13,-0.24,0.38,7.93,-1.34,50.29
2026-07-27 13:36:15.146,0.13,-0.24,0.38,7.93,-1.34,50.29
2026-07-27 13:36:15.146,-0.08,-0.41,0.44,-20.51,79.16,26.98
2026-07-27 13:36:15.791,-0.19,-0.52,1.03,-56.88,149.9,1.34
2026-07-27 13:36:15.791,-0.19,-0.52,1.03,-56.88,149.9,1.34
2026-07-27 13:36:15.808,0.03,-0.71,1.16,-87.71,128.54,-6.71
2026-07-27 13:36:15.808,0.03,-0.71,1.16,-87.71,128.54,-6.71
2026-07-27 13:36:15.808,0.25,-1.16,0.38,-114.01,28.02,-11.29
2026-07-27 13:36:15.809,0.25,-1.16,0.38,-114.01,28.02,-11.29
2026-07-27 13:36:15.809,0.07,-1.29,0.06,-125.98,-12.08,-42.05
2026-07-27 13:36:15.810,0.07,-1.29,0.06,-125.98,-12.08,-42.05
2026-07-27 13:36:15.810,-0.24,-1.07,0.39,-121.95,46.45,-86.3
2026-07-27 13:36:15.810,-0.35,-0.89,0.79,-144.47,116.52,-114.26
2026-07-27 13:36:16.090,-0.35,-0.89,0.79,-144.47,116.52,-114.26
2026-07-27 13:36:16.094,-0.4,-0.83,1.04,-136.17,174.68,-117.55
2026-07-27 13:36:16.154,-0.4,-0.83,1.04,-136.17,174.68,-117.55
2026-07-27 13:36:16.154,-0.5,-0.71,1.06,-69.15,256.1,-123.66
2026-07-27 13:36:16.154,-0.5,-0.71,1.06,-11.17,301.15,-152.34
2026-07-27 13:36:16.154,-0.53,-0.53,0.64,-11.17,301.15,-152.34
2026-07-27 13:36:16.154,-0.63,-0.57,0.48,-20.26,271.97,-176.7
2026-07-27 13:36:16.154,-0.63,-0.57,0.48,-20.26,271.97,-176.7
2026-07-27 13:36:16.155,-0.78,-0.72,1.06,-105.04,236.08,-170.96
2026-07-27 13:36:16.155,-0.78,-0.72,1.06,-105.04,236.08,-170.96
2026-07-27 13:36:16.155,-0.64,-0.81,1.58,-162.78,195.13,-132.26
2026-07-27 13:36:16.155,-0.34,-0.92,1.61,-103.88,124.45,-79.65
2026-07-27 13:36:16.155,-0.34,-0.92,1.61,-103.88,124.45,-79.65
2026-07-27 13:36:16.302,-0.18,-1.04,1.29,28.44,39.98,-36.44
2026-07-27 13:36:16.302,-0.18,-1.04,1.29,28.44,39.98,-36.44
2026-07-27 13:36:16.305,-0.14,-1.09,1.0,149.84,-25.15,-2.38
2026-07-27 13:36:16.305,-0.14,-1.09,1.0,149.84,-25.15,-2.38
2026-07-27 13:36:16.379,-0.12,-0.96,0.85,259.16,-46.63,32.29
2026-07-27 13:36:16.715,-0.12,-0.96,0.85,259.16,-46.63,32.29
2026-07-27 13:36:16.716,-0.1,-0.65,0.78,338.13,-40.22,55.6
2026-07-27 13:36:16.716,-0.08,-0.33,0.81,318.24,-26.67,47.36
2026-07-27 13:36:16.716,-0.08,-0.33,0.81,318.24,-26.67,47.36
2026-07-27 13:36:16.736,-0.09,-0.11,0.89,237.24,-13.67,14.47
2026-07-27 13:36:16.774,-0.09,-0.11,0.89,237.24,-13.67,14.47
2026-07-27 13:36:16.774,-0.14,0.07,0.91,159.24,-6.84,-27.71
2026-07-27 13:36:16.775,-0.14,0.07,0.91,159.24,-6.84,-27.71
2026-07-27 13:36:16.775,-0.22,0.24,0.85,105.59,-2.14,-64.64
2026-07-27 13:36:16.775,-0.22,0.24,0.85,105.59,-2.14,-64.64
2026-07-27 13:36:16.775,-0.27,0.35,0.8,87.77,4.58,-76.17
2026-07-27 13:36:16.775,-0.29,0.36,0.87,78.55,5.68,-60.67
2026-07-27 13:36:16.775,-0.29,0.36,0.87,78.55,5.68,-60.67
2026-07-27 13:36:16.775,-0.32,0.3,1.01,65.19,1.16,-35.16
2026-07-27 13:36:16.775,-0.32,0.3,1.01,65.19,1.16,-35.16
2026-07-27 13:36:16.775,-0.32,0.23,1.07,58.17,-4.52,-13.06
2026-07-27 13:36:16.775,-0.32,0.23,1.07,58.17,-4.52,-13.06
2026-07-27 13:36:16.776,-0.29,0.22,1.02,60.91,-12.02,1.65
2026-07-27 13:36:16.776,-0.29,0.22,1.02,60.91,-12.02,1.65
2026-07-27 13:36:16.776,-0.25,0.26,0.96,66.53,-16.42,8.36
2026-07-27 13:36:16.776,-0.25,0.26,0.96,66.53,-16.42,8.36
2026-07-27 13:36:16.776,-0.25,0.26,0.96,66.53,-16.42,8.36
2026-07-27 13:36:16.783,-0.25,0.26,0.96,66.53,-16.42,8.36
2026-07-27 13:36:16.784,-0.26,0.36,0.93,61.58,-12.27,13.73
2026-07-27 13:36:16.784,-0.26,0.36,0.93,61.58,-12.27,13.73
2026-07-27 13:36:16.784,-0.28,0.41,0.97,47.55,-10.5,25.51
2026-07-27 13:36:16.784,-0.26,0.43,0.97,31.37,-12.7,44.49
2026-07-27 13:36:16.784,-0.26,0.43,0.97,31.37,-12.7,44.49
2026-07-27 13:36:16.784,-0.2,0.36,0.92,11.17,-18.49,68.42
2026-07-27 13:36:16.784,-0.2,0.36,0.92,11.17,-18.49,68.42
2026-07-27 13:36:16.784,-0.12,0.26,0.86,-3.85,-23.62,90.33
2026-07-27 13:36:16.784,-0.12,0.26,0.86,-3.85,-23.62,90.33
2026-07-27 13:36:16.785,-0.06,0.23,0.82,2.81,-21.55,100.34
2026-07-27 13:36:16.795,-0.06,0.23,0.82,2.81,-21.55,100.34
2026-07-27 13:36:16.796,0.0,0.3,0.82,22.16,-13.98,98.33
2026-07-27 13:36:16.796,0.05,0.33,0.83,18.19,-5.13,93.32
2026-07-27 13:36:16.807,0.05,0.33,0.83,18.19,-5.13,93.32
2026-07-27 13:36:16.807,0.05,0.24,0.83,-24.05,2.81,87.46
2026-07-27 13:36:16.808,0.05,0.24,0.83,-24.05,2.81,87.46
2026-07-27 13:36:16.809,0.02,0.18,0.78,-60.79,9.09,77.51
2026-07-27 13:36:16.809,0.02,0.18,0.78,-60.79,9.09,77.51
2026-07-27 13:36:16.812,0.03,0.15,0.77,-75.32,25.7,73.43
2026-07-27 13:36:16.814,0.03,0.15,0.77,-75.32,25.7,73.43
2026-07-27 13:36:16.814,0.06,0.06,0.86,-91.55,52.67,83.5
2026-07-27 13:36:16.815,0.1,-0.03,0.95,-87.95,61.89,101.81
2026-07-27 13:36:16.817,0.1,-0.03,0.95,-87.95,61.89,101.81
2026-07-27 13:36:16.817,0.17,-0.05,0.97,-62.32,51.57,107.24
2026-07-27 13:36:16.817,0.17,-0.05,0.97,-62.32,51.57,107.24
2026-07-27 13:36:16.817,0.2,-0.04,1.01,-49.13,49.74,81.48
2026-07-27 13:36:16.818,0.2,-0.04,1.01,-49.13,49.74,81.48
2026-07-27 13:36:16.818,0.17,0.0,1.07,-43.27,60.67,39.79
2026-07-27 13:36:16.818,0.17,0.0,1.07,-43.27,60.67,39.79
2026-07-27 13:36:16.818,0.09,0.07,1.1,-23.68,61.16,15.62
2026-07-27 13:36:16.818,0.04,0.11,1.09,8.97,39.31,22.28
2026-07-27 13:36:16.819,0.04,0.11,1.09,8.97,39.31,22.28
2026-07-27 13:36:16.819,0.02,0.11,1.1,36.32,14.65,35.64
2026-07-27 13:36:16.819,0.02,0.11,1.1,36.32,14.65,35.64
2026-07-27 13:36:16.819,0.01,0.13,1.1,45.47,3.54,29.79
2026-07-27 13:36:17.055,0.01,0.13,1.1,45.47,3.54,29.79
2026-07-27 13:36:17.083,0.02,0.22,1.04,57.01,-2.2,15.2
2026-07-27 13:36:17.084,0.02,0.36,0.93,79.77,-10.44,16.42
2026-07-27 13:36:17.084,0.02,0.36,0.93,79.77,-10.44,16.42
2026-07-27 13:36:17.084,0.03,0.4,0.9,80.2,-15.2,34.67
2026-07-27 13:36:17.084,0.03,0.4,0.9,80.2,-15.2,34.67
2026-07-27 13:36:17.084,0.03,0.35,0.99,52.55,-16.78,52.25
2026-07-27 13:36:17.085,0.02,0.25,1.08,25.27,-24.23,57.92
2026-07-27 13:36:17.085,0.02,0.25,1.08,25.27,-24.23,57.92
2026-07-27 13:36:17.346,0.02,0.15,1.08,10.25,-35.83,57.19
2026-07-27 13:36:17.463,0.02,0.15,1.08,10.25,-35.83,57.19
2026-07-27 13:36:17.572,0.06,0.1,1.02,7.39,-40.89,54.2
2026-07-27 13:36:17.572,0.06,0.1,1.02,7.39,-40.89,54.2
2026-07-27 13:36:17.572,0.13,0.1,0.96,7.14,-37.05,38.15
2026-07-27 13:36:17.573,0.13,0.1,0.96,7.14,-37.05,38.15
2026-07-27 13:36:17.573,0.15,0.13,0.92,-8.12,-31.86,5.74
2026-07-27 13:36:17.574,0.13,0.14,0.85,-34.3,-31.92,-23.56
2026-07-27 13:36:17.574,0.13,0.14,0.85,-34.3,-31.92,-23.56
2026-07-27 13:36:17.574,0.12,0.14,0.79,-50.66,-31.31,-38.33
2026-07-27 13:36:17.574,0.12,0.14,0.79,-50.66,-31.31,-38.33
2026-07-27 13:36:17.577,0.14,0.13,0.83,-53.96,-21.24,-46.33
2026-07-27 13:36:17.577,0.14,0.13,0.83,-53.96,-21.24,-46.33
2026-07-27 13:36:17.577,0.19,0.11,0.97,-51.82,-7.08,-52.92
2026-07-27 13:36:17.579,0.19,0.11,0.97,-42.18,0.12,-60.73
2026-07-27 13:36:17.579,0.24,0.14,1.08,-42.18,0.12,-60.73
2026-07-27 13:36:17.579,0.26,0.23,1.07,-25.76,-4.58,-64.88
2026-07-27 13:36:17.579,0.26,0.23,1.07,-25.76,-4.58,-64.88
2026-07-27 13:36:17.579,0.25,0.35,1.02,-10.38,-12.82,-63.42
2026-07-27 13:36:17.580,0.25,0.35,1.02,-10.38,-12.82,-63.42
2026-07-27 13:36:17.580,0.23,0.45,1.03,-3.54,-15.75,-60.36
2026-07-27 13:36:17.580,0.23,0.45,1.03,-3.54,-15.75,-60.36
2026-07-27 13:36:17.580,0.18,0.51,0.97,-3.72,-14.34,-47.61
2026-07-27 13:36:18.365,0.12,0.51,0.82,0.43,-8.48,-16.36
2026-07-27 13:36:18.674,0.12,0.51,0.82,0.43,-8.48,-16.36
2026-07-27 13:36:18.674,0.08,0.45,0.7,6.16,-5.62,24.84
2026-07-27 13:36:19.251,0.08,0.45,0.7,6.16,-5.62,24.84
2026-07-27 13:36:19.266,0.1,0.33,0.71,2.69,-10.62,54.69
2026-07-27 13:36:19.413,0.1,0.33,0.71,2.69,-10.62,54.69
2026-07-27 13:36:19.474,0.11,0.22,0.88,-10.13,-8.73,57.31
2026-07-27 13:36:19.484,0.11,0.22,0.88,-10.13,-8.73,57.31
2026-07-27 13:36:19.501,0.13,0.19,1.01,-14.47,3.91,40.53
2026-07-27 13:36:19.502,0.15,0.23,1.02,-2.62,16.72,24.54
2026-07-27 13:36:19.502,0.15,0.23,1.02,-2.62,16.72,24.54
2026-07-27 13:36:19.506,0.17,0.23,1.03,-1.1,20.51,18.49
2026-07-27 13:36:19.507,0.17,0.23,1.03,-1.1,20.51,18.49
2026-07-27 13:36:19.507,0.18,0.16,1.05,-17.7,10.62,18.92
2026-07-27 13:36:19.507,0.18,0.16,1.05,-17.7,10.62,18.92
2026-07-27 13:36:19.508,0.19,0.04,0.97,-38.27,-9.4,20.45
2026-07-27 13:36:19.514,0.19,0.04,0.97,-38.27,-9.4,20.45
2026-07-27 13:36:19.514,0.2,-0.05,0.85,-52.0,-23.86,19.35
2026-07-27 13:36:19.515,0.21,-0.04,0.82,-45.47,-14.65,10.56
2026-07-27 13:36:19.519,0.21,-0.04,0.82,-45.47,-14.65,10.56
2026-07-27 13:36:19.527,0.2,0.04,0.92,-27.53,12.08,-2.44
2026-07-27 13:36:19.529,0.2,0.04,0.92,-27.53,12.08,-2.44
2026-07-27 13:36:19.529,0.17,0.09,1.1,-23.62,31.92,-9.16
2026-07-27 13:36:19.529,0.17,0.09,1.1,-23.62,31.92,-9.16
2026-07-27 13:36:19.529,0.16,0.03,1.23,-35.1,30.09,-4.21
2026-07-27 13:36:19.530,0.16,0.03,1.23,-35.1,30.09,-4.21
2026-07-27 13:36:19.530,0.16,-0.07,1.18,-42.3,12.76,7.08
2026-07-27 13:36:19.530,0.17,-0.12,1.05,-37.96,-0.67,13.12
2026-07-27 13:36:19.530,0.17,-0.12,1.05,-37.96,-0.67,13.12
2026-07-27 13:36:19.563,0.18,-0.1,0.95,-24.9,-1.53,10.13
2026-07-27 13:36:19.563,0.18,-0.1,0.95,-24.9,-1.53,10.13
2026-07-27 13:36:19.572,0.16,-0.1,0.86,-11.54,-1.04,6.84
2026-07-27 13:36:19.572,0.16,-0.1,0.86,-11.54,-1.04,6.84
2026-07-27 13:36:19.573,0.12,-0.12,0.86,-10.31,-0.61,6.04
2026-07-27 13:36:19.573,0.12,-0.12,0.86,-10.31,-0.61,6.04
2026-07-27 13:36:19.573,0.1,-0.14,0.99,-13.61,10.62,1.1
2026-07-27 13:36:19.575,0.1,-0.14,0.99,-13.61,10.62,1.1
2026-07-27 13:36:19.575,0.11,-0.13,1.1,1.46,27.16,-3.23
2026-07-27 13:36:19.575,0.11,-0.13,1.1,1.46,27.16,-3.23
2026-07-27 13:36:19.575,0.15,-0.15,1.05,15.87,24.23,4.33
2026-07-27 13:36:19.575,0.22,-0.18,0.95,12.45,3.36,14.71
2026-07-27 13:36:19.577,0.22,-0.18,0.95,12.45,3.36,14.71
2026-07-27 13:36:19.577,0.26,-0.15,0.89,14.71,-8.24,14.59
2026-07-27 13:36:19.577,0.26,-0.15,0.89,14.71,-8.24,14.59
2026-07-27 13:36:19.577,0.25,-0.04,0.88,25.7,-6.53,8.97
2026-07-27 13:36:19.578,0.25,-0.04,0.88,25.7,-6.53,8.97
2026-07-27 13:36:19.578,0.23,0.06,0.91,34.91,-3.72,9.16
2026-07-27 13:36:19.578,0.23,0.06,0.91,34.91,-3.72,9.16
2026-07-27 13:36:19.578,0.22,0.1,0.95,38.88,-7.51,18.86
2026-07-27 13:36:19.578,0.22,0.1,0.95,40.41,-14.34,30.52
2026-07-27 13:36:19.578,0.19,0.08,1.05,40.41,-14.34,30.52
2026-07-27 13:36:19.578,0.11,0.06,1.32,37.48,-10.01,34.79
2026-07-27 13:36:19.578,0.11,0.06,1.32,37.48,-10.01,34.79
2026-07-27 13:36:19.578,0.02,0.06,1.5,30.64,-3.6,36.32
2026-07-27 13:36:19.715,0.02,0.06,1.5,30.64,-3.6,36.32
2026-07-27 13:36:19.715,0.01,-0.01,1.31,19.29,-28.02,47.42
2026-07-27 13:36:19.715,0.01,-0.01,1.31,19.29,-28.02,47.42
2026-07-27 13:36:19.715,0.02,-0.11,1.08,-0.43,-64.09,53.96
2026-07-27 13:36:19.715,0.02,-0.11,1.08,-0.43,-64.09,53.96
2026-07-27 13:36:19.741,0.01,-0.12,1.01,-4.88,-62.81,36.19
2026-07-27 13:36:19.742,-0.02,-0.07,0.93,9.7,-38.82,12.02
2026-07-27 13:36:19.742,-0.02,-0.07,0.93,9.7,-38.82,12.02
2026-07-27 13:36:19.742,-0.02,-0.04,0.75,14.65,-32.1,5.13
2026-07-27 13:36:19.757,-0.02,-0.04,0.75,14.65,-32.1,5.13
2026-07-27 13:36:19.757,-0.03,0.09,1.12,-24.54,71.29,-48.58
2026-07-27 13:36:19.757,-0.03,0.09,1.12,-24.54,71.29,-48.58
2026-07-27 13:36:19.757,0.14,0.07,1.23,-10.74,12.27,-26.06
2026-07-27 13:36:19.789,0.05,-0.01,1.03,-10.44,-14.71,-11.96
2026-07-27 13:36:19.789,-0.01,-0.18,0.78,-26.06,-51.82,15.69
2026-07-27 13:36:19.790,-0.01,-0.18,0.78,-26.06,-51.82,15.69
2026-07-27 13:36:19.790,-0.06,-0.37,0.65,-35.34,-61.58,31.43
2026-07-27 13:36:19.790,-0.06,-0.37,0.65,-35.34,-61.58,31.43
2026-07-27 13:36:19.790,-0.08,-0.44,0.75,-29.3,-30.15,21.67
2026-07-27 13:36:19.790,-0.05,-0.36,0.87,-13.37,13.24,2.32
2026-07-27 13:36:19.790,-0.05,-0.36,0.87,-13.37,13.24,2.32
2026-07-27 13:36:19.790,0.04,-0.25,0.85,-2.69,32.04,-2.99
2026-07-27 13:36:19.790,0.04,-0.25,0.85,-2.69,32.04,-2.99
2026-07-27 13:36:19.790,0.1,-0.17,0.82,-3.48,31.92,2.08
2026-07-27 13:36:19.798,0.1,-0.17,0.82,-3.48,31.92,2.08
2026-07-27 13:36:19.857,0.11,-0.1,0.88,-3.72,34.0,5.19
2026-07-27 13:36:19.871,0.11,-0.1,0.88,-3.72,34.0,5.19
2026-07-27 13:36:19.872,0.07,-0.06,1.03,1.28,39.61,8.42
2026-07-27 13:36:19.872,0.0,-0.08,1.21,8.12,41.26,17.64
2026-07-27 13:36:19.928,0.0,-0.08,1.21,8.12,41.26,17.64
2026-07-27 13:36:19.953,-0.05,-0.16,1.24,10.44,27.59,34.3
2026-07-27 13:36:19.954,-0.05,-0.16,1.24,10.44,27.59,34.3
2026-07-27 13:36:19.954,-0.05,-0.23,1.11,3.78,-1.16,50.72
2026-07-27 13:36:19.954,-0.05,-0.23,1.11,3.78,-1.16,50.72
2026-07-27 13:36:20.057,-0.03,-0.29,0.93,-5.62,-26.43,55.24
2026-07-27 13:36:20.068,-0.03,-0.29,0.93,-5.62,-26.43,55.24
2026-07-27 13:36:20.068,-0.03,-0.31,0.85,-8.54,-32.41,43.46
2026-07-27 13:36:20.068,-0.06,-0.28,0.87,-2.75,-21.73,21.55
2026-07-27 13:36:20.068,-0.06,-0.28,0.87,-2.75,-21.73,21.55
2026-07-27 13:36:20.068,-0.09,-0.23,0.91,5.37,-7.02,1.04
2026-07-27 13:36:20.103,-0.09,-0.23,0.91,5.37,-7.02,1.04
2026-07-27 13:36:20.110,-0.11,-0.18,0.95,10.99,5.37,-10.74
2026-07-27 13:36:20.110,-0.11,-0.18,0.95,10.99,5.37,-10.74
2026-07-27 13:36:20.228,-0.11,-0.16,0.97,11.78,13.67,-13.0
2026-07-27 13:36:20.237,-0.11,-0.16,0.97,8.3,16.85,-9.28
2026-07-27 13:36:20.238,-0.09,-0.14,0.97,8.3,16.85,-9.28
2026-07-27 13:36:20.240,-0.05,-0.14,0.96,3.97,16.42,-4.46
2026-07-27 13:36:20.243,-0.05,-0.14,0.96,3.97,16.42,-4.46
2026-07-27 13:36:20.412,-0.04,-0.14,0.96,0.61,16.54,-2.32
2026-07-27 13:36:20.413,-0.04,-0.14,0.96,0.61,16.54,-2.32
2026-07-27 13:36:20.413,-0.05,-0.13,1.0,-0.79,18.37,-3.48
2026-07-27 13:36:20.413,-0.05,-0.13,1.0,-0.79,18.37,-3.48
2026-07-27 13:36:20.460,-0.06,-0.09,1.02,0.55,19.04,-5.0
2026-07-27 13:36:20.463,-0.06,-0.09,1.02,0.55,19.04,-5.0
2026-07-27 13:36:20.464,-0.06,-0.06,1.01,3.42,16.36,-3.36
2026-07-27 13:36:20.464,-0.05,-0.04,0.97,5.07,9.95,2.81
2026-07-27 13:36:20.464,-0.05,-0.04,0.97,5.07,9.95,2.81
2026-07-27 13:36:20.464,-0.07,-0.04,0.92,6.35,3.97,11.35
2026-07-27 13:36:20.464,-0.07,-0.04,0.92,6.35,3.97,11.35
2026-07-27 13:36:20.539,-0.1,-0.04,0.87,9.03,6.65,19.35
2026-07-27 13:36:20.558,-0.1,-0.04,0.87,9.03,6.65,19.35
2026-07-27 13:36:20.766,-0.13,0.0,0.86,10.62,20.39,26.98
2026-07-27 13:36:20.778,-0.13,0.0,0.86,10.62,20.39,26.98
2026-07-27 13:36:20.778,-0.15,0.05,0.94,7.69,36.93,38.21
2026-07-27 13:36:20.778,-0.15,0.05,1.12,1.53,47.18,54.32
2026-07-27 13:36:20.778,-0.15,0.05,1.12,1.53,47.18,54.32
2026-07-27 13:36:20.778,-0.15,0.0,1.29,-3.66,43.64,71.59
2026-07-27 13:36:20.779,-0.15,0.0,1.29,-3.66,43.64,71.59
2026-07-27 13:36:20.779,-0.13,-0.07,1.29,-8.91,17.46,86.12
2026-07-27 13:36:20.779,-0.13,-0.07,1.29,-8.91,17.46,86.12
2026-07-27 13:36:20.779,-0.11,-0.12,1.16,-17.33,-22.34,90.76
2026-07-27 13:36:20.779,-0.11,-0.12,1.16,-17.33,-22.34,90.76
2026-07-27 13:36:20.829,-0.09,-0.13,1.04,-21.73,-52.37,80.02
2026-07-27 13:36:20.851,-0.08,-0.09,1.02,-15.32,-62.5,58.29
2026-07-27 13:36:20.851,-0.08,-0.09,1.02,-15.32,-62.5,58.29
2026-07-27 13:36:20.886,-0.09,-0.0,1.13,0.18,-58.11,35.71
2026-07-27 13:36:20.889,-0.09,-0.0,1.13,0.18,-58.11,35.71
2026-07-27 13:36:21.456,-0.11,0.11,1.26,19.96,-51.27,21.79
2026-07-27 13:36:21.487,-0.17,0.28,1.31,40.41,-48.65,21.24
2026-07-27 13:36:21.487,-0.17,0.28,1.31,40.41,-48.65,21.24
2026-07-27 13:36:21.487,-0.3,0.53,1.25,63.78,-47.3,36.44
2026-07-27 13:36:21.848,-0.3,0.53,1.25,63.78,-47.3,36.44
2026-07-27 13:36:21.848,-0.49,0.75,1.09,83.98,-47.3,75.44
2026-07-27 13:36:21.852,-0.49,0.75,1.09,83.98,-47.3,75.44
2026-07-27 13:36:22.199,-0.59,0.63,0.88,85.02,-48.4,142.76
2026-07-27 13:36:22.864,-0.59,0.63,0.88,85.02,-48.4,142.76
2026-07-27 13:36:22.868,-0.59,0.63,0.88,85.02,-48.4,142.76
2026-07-27 13:36:22.871,-0.59,0.63,0.88,85.02,-48.4,142.76
2026-07-27 13:36:22.874,-0.07,-0.21,0.83,94.85,-20.57,256.47
2026-07-27 13:36:22.887,0.28,-0.24,1.03,124.76,0.85,247.19
2026-07-27 13:36:22.892,0.28,-0.24,1.03,124.76,0.85,247.19
2026-07-27 13:36:22.892,0.45,-0.01,1.17,140.38,9.34,202.15
2026-07-27 13:36:22.892,0.45,-0.01,1.17,140.38,9.34,202.15
2026-07-27 13:36:22.895,0.41,0.25,1.14,123.35,-1.71,150.15
2026-07-27 13:36:22.896,0.41,0.25,1.14,123.35,-1.71,150.15
2026-07-27 13:36:22.896,0.26,0.38,0.99,88.2,-19.59,108.64
2026-07-27 13:36:22.896,0.26,0.38,0.99,52.25,-33.57,81.54
2026-07-27 13:36:22.899,0.08,0.34,0.8,52.25,-33.57,81.54
2026-07-27 13:36:22.900,-0.07,0.17,0.64,9.95,-43.27,64.09
2026-07-27 13:36:22.900,-0.07,0.17,0.64,9.95,-43.27,64.09
2026-07-27 13:36:22.900,-0.16,-0.05,0.55,-34.85,-47.49,43.46
2026-07-27 13:36:22.901,-0.16,-0.05,0.55,-34.85,-47.49,43.46
2026-07-27 13:36:22.910,-0.18,-0.21,0.49,-60.79,-43.09,6.96
2026-07-27 13:36:22.910,-0.18,-0.21,0.49,-60.79,-43.09,6.96
2026-07-27 13:36:22.910,-0.17,-0.22,0.45,-47.24,-23.25,-51.27
2026-07-27 13:36:22.910,-0.13,-0.13,0.48,-18.98,5.8,-118.71
2026-07-27 13:36:22.911,-0.13,-0.13,0.48,-18.98,5.8,-118.71
2026-07-27 13:36:22.911,-0.07,-0.02,0.65,-22.09,30.33,-177.92
2026-07-27 13:36:22.911,-0.07,-0.02,0.65,-22.09,30.33,-177.92
2026-07-27 13:36:22.911,-0.04,0.22,0.93,-27.59,50.72,-235.29
2026-07-27 13:36:22.911,-0.04,0.22,0.93,-27.59,50.72,-235.29
2026-07-27 13:36:22.911,-0.14,0.56,1.28,-25.09,56.03,-290.04
2026-07-27 13:36:22.911,-0.14,0.56,1.28,-25.09,56.03,-290.04
2026-07-27 13:36:22.913,-0.38,0.87,1.54,-44.92,31.92,-317.75
2026-07-27 13:36:22.913,-0.66,1.1,1.36,-34.06,-3.78,-303.22
2026-07-27 13:36:22.913,-0.66,1.1,1.36,-34.06,-3.78,-303.22
2026-07-27 13:36:22.913,-0.79,1.19,0.9,11.23,-25.51,-243.29
2026-07-27 13:36:22.913,-0.79,1.19,0.9,11.23,-25.51,-243.29
2026-07-27 13:36:22.918,-0.71,1.07,0.59,5.43,-23.5,-152.34
2026-07-27 13:36:22.918,-0.71,1.07,0.59,5.43,-23.5,-152.34
2026-07-27 13:36:22.918,-0.53,0.77,0.61,-67.02,-0.61,-65.67
2026-07-27 13:36:22.918,-0.53,0.77,0.61,-67.02,-0.61,-65.67
2026-07-27 13:36:22.918,-0.37,0.47,0.85,-141.11,30.33,-14.71
2026-07-27 13:36:22.918,-0.25,0.28,1.06,-152.95,54.75,-2.81
2026-07-27 13:36:22.918,-0.25,0.28,1.06,-152.95,54.75,-2.81
2026-07-27 13:36:22.918,-0.14,0.16,1.14,-105.04,59.88,-5.62
2026-07-27 13:36:22.918,-0.14,0.16,1.14,-105.04,59.88,-5.62
2026-07-27 13:36:22.918,-0.06,0.09,1.14,-44.43,49.01,-14.47
2026-07-27 13:36:22.919,-0.06,0.09,1.14,-44.43,49.01,-14.47
2026-07-27 13:36:22.924,-0.03,0.08,1.12,-4.03,33.51,-30.64
2026-07-27 13:36:22.924,-0.03,0.08,1.12,-4.03,33.51,-30.64
2026-07-27 13:36:22.924,-0.05,0.08,1.1,6.9,16.78,-43.58
2026-07-27 13:36:22.924,-0.05,0.08,1.1,-1.77,1.22,-48.03
2026-07-27 13:36:22.925,-0.12,0.08,1.08,-1.77,1.22,-48.03
2026-07-27 13:36:22.925,-0.2,0.07,1.04,-18.07,-12.08,-41.08
2026-07-27 13:36:22.925,-0.2,0.07,1.04,-18.07,-12.08,-41.08
2026-07-27 13:36:22.925,-0.25,0.03,0.99,-32.17,-20.63,-25.02
2026-07-27 13:36:22.925,-0.25,0.03,0.99,-32.17,-20.63,-25.02
2026-07-27 13:36:22.925,-0.26,-0.01,0.92,-36.38,-22.09,-7.63
2026-07-27 13:36:22.925,-0.26,-0.01,0.92,-36.38,-22.09,-7.63
2026-07-27 13:36:22.925,-0.26,-0.05,0.88,-36.56,-19.84,6.53
2026-07-27 13:36:22.925,-0.26,-0.05,0.88,-36.56,-19.84,6.53
2026-07-27 13:36:22.925,-0.26,-0.08,0.87,-37.66,-16.17,14.16
2026-07-27 13:36:22.929,-0.27,-0.1,0.89,-37.54,-13.37,17.03
2026-07-27 13:36:22.929,-0.27,-0.1,0.89,-37.54,-13.37,17.03
2026-07-27 13:36:22.981,-0.31,-0.12,0.9,-31.31,-10.99,19.59
2026-07-27 13:36:22.985,-0.41,-0.23,0.85,-15.62,55.73,53.71
2026-07-27 13:36:23.290,-0.43,-0.24,0.8,-12.7,48.16,46.69
2026-07-27 13:36:23.341,-0.46,-0.22,0.74,-12.63,40.04,35.4
2026-07-27 13:36:23.349,-0.46,-0.22,0.74,-12.63,40.04,35.4
2026-07-27 13:36:23.349,-0.5,-0.22,0.73,-16.66,34.61,26.67
2026-07-27 13:36:23.349,-0.5,-0.22,0.73,-16.66,34.61,26.67
2026-07-27 13:36:23.349,-0.55,-0.19,0.75,-15.38,33.87,19.04
2026-07-27 13:36:23.349,-0.55,-0.19,0.75,-15.38,33.87,19.04
2026-07-27 13:36:23.349,-0.6,-0.13,0.77,-4.09,33.69,12.27
2026-07-27 13:36:23.349,-0.63,-0.11,0.78,8.36,26.25,14.16
2026-07-27 13:36:23.350,-0.63,-0.11,0.78,8.36,26.25,14.16
2026-07-27 13:36:23.350,-0.66,-0.13,0.8,15.62,14.83,21.48
2026-07-27 13:36:23.350,-0.66,-0.13,0.8,15.62,14.83,21.48
2026-07-27 13:36:23.350,-0.69,-0.14,0.84,20.75,8.12,22.46
2026-07-27 13:36:23.350,-0.69,-0.14,0.84,20.75,8.12,22.46
2026-07-27 13:36:23.350,-0.71,-0.12,0.88,23.44,5.62,16.85
2026-07-27 13:36:23.350,-0.71,-0.12,0.88,20.08,0.37,13.92
2026-07-27 13:36:23.353,-0.73,-0.1,0.88,20.08,0.37,13.92
2026-07-27 13:36:23.353,-0.73,-0.1,0.85,10.62,-9.4,16.97
2026-07-27 13:36:23.353,-0.73,-0.1,0.85,10.62,-9.4,16.97
2026-07-27 13:36:23.354,-0.71,-0.08,0.78,2.01,-19.17,20.75
2026-07-27 13:36:23.354,-0.71,-0.08,0.78,2.01,-19.17,20.75
2026-07-27 13:36:23.580,-0.66,-0.05,0.68,-0.06,-24.23,21.55
2026-07-27 13:36:23.589,-0.66,-0.05,0.68,-0.06,-24.23,21.55
2026-07-27 13:36:23.589,-0.62,-0.01,0.63,0.85,-20.51,19.23
2026-07-27 13:36:23.589,-0.61,0.03,0.66,0.43,-8.36,14.22
2026-07-27 13:36:23.589,-0.61,0.03,0.66,0.43,-8.36,14.22
2026-07-27 13:36:23.589,-0.62,0.05,0.73,-5.0,2.32,10.07
2026-07-27 13:36:23.589,-0.62,0.05,0.73,-5.0,2.32,10.07
2026-07-27 13:36:23.590,-0.63,0.05,0.8,-12.63,4.27,9.34
2026-07-27 13:36:23.590,-0.63,0.05,0.8,-12.63,4.27,9.34
2026-07-27 13:36:23.590,-0.65,0.05,0.83,-13.67,1.4,9.46
2026-07-27 13:36:23.660,-0.65,0.05,0.83,-13.67,1.4,9.46
2026-07-27 13:36:23.715,-0.65,0.05,0.82,-9.03,-1.59,9.34
2026-07-27 13:36:23.824,-0.65,0.05,0.8,-4.64,-3.85,9.64
2026-07-27 13:36:23.825,-0.65,0.05,0.8,-4.64,-3.85,9.64
2026-07-27 13:36:23.825,-0.63,0.05,0.8,-1.89,-4.58,9.22
2026-07-27 13:36:24.117,-0.63,0.05,0.8,-1.89,-4.58,9.22
2026-07-27 13:36:24.117,-0.62,0.05,0.83,-0.55,-2.56,6.23
2026-07-27 13:36:24.118,-0.62,0.05,0.83,-0.55,-2.56,6.23
2026-07-27 13:36:24.118,-0.63,0.06,0.87,0.61,-0.92,2.5
2026-07-27 13:36:24.118,-0.63,0.06,0.87,0.61,-0.92,2.5
2026-07-27 13:36:24.118,-0.65,0.05,0.84,2.81,-6.53,3.23
2026-07-27 13:36:24.119,-0.66,0.04,0.74,5.74,-15.81,7.2
2026-07-27 13:36:24.122,-0.66,0.04,0.74,5.74,-15.81,7.2
2026-07-27 13:36:24.122,-0.65,0.04,0.69,8.42,-15.87,8.18
2026-07-27 13:36:24.123,-0.65,0.04,0.69,8.42,-15.87,8.18
2026-07-27 13:36:24.123,-0.63,0.04,0.79,8.61,-4.15,4.76
2026-07-27 13:36:24.123,-0.63,0.04,0.79,8.61,-4.15,4.76
2026-07-27 13:36:24.123,-0.62,0.03,0.93,6.71,6.65,1.28
2026-07-27 13:36:24.123,-0.62,0.03,0.93,6.71,6.65,1.28
2026-07-27 13:36:24.125,-0.6,0.01,0.97,4.94,2.87,2.2
2026-07-27 13:36:24.125,-0.6,0.01,0.97,5.07,-13.79,5.43
2026-07-27 13:36:24.125,-0.57,0.0,0.89,5.07,-13.79,5.43
2026-07-27 13:36:24.299,-0.56,0.03,0.76,8.85,-28.99,5.68
2026-07-27 13:36:24.300,-0.56,0.03,0.76,8.85,-28.99,5.68
2026-07-27 13:36:24.305,-0.56,0.08,0.69,13.67,-31.86,2.01
2026-07-27 13:36:24.306,-0.56,0.08,0.69,13.67,-31.86,2.01
2026-07-27 13:36:24.306,-0.58,0.13,0.7,15.38,-24.6,-1.16
2026-07-27 13:36:24.306,-0.58,0.13,0.7,15.38,-24.6,-1.16
2026-07-27 13:36:24.306,-0.61,0.14,0.73,14.1,-16.66,0.06
2026-07-27 13:36:24.307,-0.62,0.13,0.73,11.05,-13.67,4.94
2026-07-27 13:36:24.308,-0.62,0.13,0.73,11.05,-13.67,4.94
2026-07-27 13:36:24.308,-0.62,0.12,0.69,8.12,-14.16,9.89
2026-07-27 13:36:24.373,-0.62,0.12,0.69,8.12,-14.16,9.89
2026-07-27 13:36:24.373,-0.62,0.12,0.64,8.42,-10.93,10.74
2026-07-27 13:36:24.373,-0.62,0.12,0.64,8.42,-10.93,10.74
2026-07-27 13:36:24.447,-0.62,0.13,0.66,9.46,-1.59,9.03
2026-07-27 13:36:24.451,-0.62,0.13,0.66,9.46,-1.59,9.03
2026-07-27 13:36:24.643,-0.61,0.11,0.74,7.75,8.18,8.06
2026-07-27 13:36:24.677,-0.61,0.11,0.74,3.54,12.39,7.51
2026-07-27 13:36:24.677,-0.63,0.06,0.82,3.54,12.39,7.51
2026-07-27 13:36:24.677,-0.66,-0.01,0.85,-1.1,9.89,5.49
2026-07-27 13:36:24.677,-0.66,-0.01,0.85,-1.1,9.89,5.49
2026-07-27 13:36:24.677,-0.66,-0.02,0.81,0.12,5.25,0.43
2026-07-27 13:36:24.678,-0.66,-0.02,0.81,0.12,5.25,0.43
2026-07-27 13:36:24.678,-0.6,0.03,0.74,5.98,-0.18,-5.43
2026-07-27 13:36:24.678,-0.6,0.03,0.74,5.98,-0.18,-5.43
2026-07-27 13:36:24.690,-0.51,0.11,0.77,12.21,-4.58,-13.67
2026-07-27 13:36:24.690,-0.51,0.11,0.77,12.21,-4.58,-13.67
2026-07-27 13:36:25.146,-0.47,0.17,0.85,17.64,-7.51,-24.35
2026-07-27 13:36:25.146,-0.52,0.17,0.92,15.38,-16.05,-30.76
2026-07-27 13:36:25.146,-0.52,0.17,0.92,15.38,-16.05,-30.76
2026-07-27 13:36:25.147,-0.63,0.19,0.99,0.85,-28.08,-33.51
2026-07-27 13:36:25.360,-0.63,0.19,0.99,0.85,-28.08,-33.51
2026-07-27 13:36:25.367,-0.63,0.2,1.06,-24.23,-32.9,-20.94
2026-07-27 13:36:25.367,-0.63,0.2,1.06,-24.23,-32.9,-20.94
2026-07-27 13:36:25.367,-0.51,0.11,1.02,-41.5,-25.76,15.14
2026-07-27 13:36:25.367,-0.51,0.11,1.02,-41.5,-25.76,15.14
2026-07-27 13:36:25.367,-0.51,0.11,1.02,-41.5,-25.76,15.14
2026-07-27 13:36:25.367,-0.51,0.11,1.02,-41.5,-25.76,15.14
2026-07-27 13:36:25.368,-0.38,-0.04,0.59,-12.27,7.45,72.02
2026-07-27 13:36:25.368,-0.38,-0.08,0.47,-4.7,27.28,71.53
2026-07-27 13:36:25.369,-0.38,-0.08,0.47,-4.7,27.28,71.53
2026-07-27 13:36:25.370,-0.36,-0.13,0.68,-32.23,46.81,58.72
2026-07-27 13:36:25.619,-0.36,-0.13,0.68,-32.23,46.81,58.72
2026-07-27 13:36:25.619,-0.36,-0.13,1.01,-59.57,55.42,38.02
2026-07-27 13:36:25.620,-0.36,-0.13,1.01,-59.57,55.42,38.02
2026-07-27 13:36:25.620,-0.45,-0.12,1.22,-52.37,44.98,18.92
2026-07-27 13:36:25.620,-0.54,-0.09,1.25,-33.08,21.3,7.39
2026-07-27 13:36:25.621,-0.54,-0.09,1.25,-33.08,21.3,7.39
2026-07-27 13:36:25.621,-0.51,-0.03,1.13,-16.24,1.16,-0.24
2026-07-27 13:36:25.623,-0.51,-0.03,1.13,-16.24,1.16,-0.24
2026-07-27 13:36:25.623,-0.42,0.08,1.03,-8.3,-7.75,-6.16
2026-07-27 13:36:25.623,-0.42,0.08,1.03,-8.3,-7.75,-6.16
2026-07-27 13:36:25.624,-0.43,0.16,1.02,-18.31,-20.2,-7.45
2026-07-27 13:36:25.624,-0.43,0.16,1.02,-18.31,-20.2,-7.45
2026-07-27 13:36:25.627,-0.52,0.15,1.02,-28.75,-39.67,-3.23
2026-07-27 13:36:25.628,-0.52,0.15,1.02,-27.71,-52.67,2.32
2026-07-27 13:36:25.629,-0.58,0.12,1.02,-27.71,-52.67,2.32
2026-07-27 13:36:25.629,-0.57,0.1,1.02,-22.4,-55.36,6.35
2026-07-27 13:36:25.630,-0.57,0.1,1.02,-22.4,-55.36,6.35
2026-07-27 13:36:25.632,-0.52,0.07,1.01,-18.62,-54.99,10.44
2026-07-27 13:36:25.884,-0.52,0.07,1.01,-18.62,-54.99,10.44
2026-07-27 13:36:26.159,-0.45,0.04,0.96,-16.97,-56.88,13.0
2026-07-27 13:36:26.159,-0.45,0.04,0.96,-16.97,-56.88,13.0
2026-07-27 13:36:26.165,-0.39,0.03,0.86,-13.55,-61.16,13.12
2026-07-27 13:36:26.165,-0.36,0.04,0.75,-9.22,-64.27,13.24
2026-07-27 13:36:26.167,-0.36,0.04,0.75,-9.22,-64.27,13.24
2026-07-27 13:36:26.169,-0.35,0.04,0.65,-7.51,-63.29,15.26
2026-07-27 13:36:26.169,-0.35,0.04,0.65,-7.51,-63.29,15.26
2026-07-27 13:36:26.169,-0.35,0.03,0.56,-9.4,-58.41,18.62
2026-07-27 13:36:26.170,-0.35,0.03,0.56,-9.4,-58.41,18.62
2026-07-27 13:36:26.170,-0.35,0.01,0.52,-13.79,-47.12,20.2
2026-07-27 13:36:26.170,-0.35,0.01,0.52,-17.09,-25.57,16.91
2026-07-27 13:36:26.170,-0.35,-0.01,0.56,-17.09,-25.57,16.91
2026-07-27 13:36:26.170,-0.35,-0.04,0.67,-17.09,4.94,8.67
2026-07-27 13:36:26.172,-0.35,-0.04,0.67,-17.09,4.94,8.67
2026-07-27 13:36:26.172,-0.33,-0.04,0.85,-16.72,36.62,-0.61
2026-07-27 13:36:26.173,-0.33,-0.04,0.85,-16.72,36.62,-0.61
2026-07-27 13:36:26.173,-0.31,-0.02,1.03,-17.64,58.72,-5.07
2026-07-27 13:36:26.173,-0.31,-0.02,1.03,-17.64,58.72,-5.07
2026-07-27 13:36:26.173,-0.3,-0.01,1.15,-18.55,62.01,-0.24
2026-07-27 13:36:26.173,-0.3,-0.01,1.15,-19.23,47.73,13.18
2026-07-27 13:36:26.173,-0.29,-0.0,1.18,-19.23,47.73,13.18
2026-07-27 13:36:26.173,-0.28,-0.01,1.16,-18.43,28.2,28.26
2026-07-27 13:36:26.174,-0.28,-0.01,1.16,-18.43,28.2,28.26
2026-07-27 13:36:26.174,-0.26,-0.02,1.17,-15.32,14.04,38.39
2026-07-27 13:36:26.174,-0.26,-0.02,1.17,-15.32,14.04,38.39
2026-07-27 13:36:26.174,-0.24,-0.02,1.21,-11.35,4.03,43.09
2026-07-27 13:36:26.174,-0.24,-0.02,1.21,-11.35,4.03,43.09
2026-07-27 13:36:26.175,-0.24,-0.05,1.21,-9.52,-10.31,45.53
2026-07-27 13:36:26.175,-0.24,-0.05,1.21,-11.05,-32.53,46.87
2026-07-27 13:36:26.175,-0.26,-0.09,1.14,-11.05,-32.53,46.87
2026-07-27 13:36:26.176,-0.3,-0.14,0.97,-13.73,-57.01,45.1
2026-07-27 13:36:26.177,-0.3,-0.14,0.97,-13.73,-57.01,45.1
2026-07-27 13:36:26.177,-0.35,-0.17,0.79,-17.82,-72.02,38.45
2026-07-27 13:36:26.177,-0.35,-0.17,0.79,-17.82,-72.02,38.45
2026-07-27 13:36:26.418,-0.38,-0.16,0.71,-19.84,-66.16,25.27
2026-07-27 13:36:26.451,-0.38,-0.16,0.71,-19.84,-66.16,25.27
2026-07-27 13:36:26.452,-0.37,-0.12,0.76,-16.54,-42.05,9.22
2026-07-27 13:36:26.452,-0.34,-0.07,0.87,-12.39,-15.56,-2.08
2026-07-27 13:36:26.452,-0.34,-0.07,0.87,-12.39,-15.56,-2.08
2026-07-27 13:36:26.452,-0.29,-0.03,0.98,-9.28,0.79,-5.49
2026-07-27 13:36:26.453,-0.29,-0.03,0.98,-9.28,0.79,-5.49
2026-07-27 13:36:26.461,-0.25,-0.0,1.0,-5.68,3.91,-2.08
2026-07-27 13:36:26.464,-0.25,-0.0,1.0,-5.68,3.91,-2.08
2026-07-27 13:36:26.466,-0.23,0.01,1.0,-4.21,0.61,3.91
2026-07-27 13:36:26.469,-0.23,0.01,1.0,-4.21,0.61,3.91
2026-07-27 13:36:26.471,-0.23,0.04,1.03,-3.91,-0.61,8.54
2026-07-27 13:36:26.472,-0.24,0.09,1.08,0.24,1.83,13.24
2026-07-27 13:36:26.793,-0.24,0.09,1.08,0.24,1.83,13.24
2026-07-27 13:36:26.794,-0.25,0.14,1.11,8.24,1.1,24.05
2026-07-27 13:36:26.801,-0.25,0.14,1.11,8.24,1.1,24.05
2026-07-27 13:36:26.801,-0.26,0.09,1.1,12.08,-10.86,43.21
2026-07-27 13:36:26.801,-0.26,0.09,1.1,12.08,-10.86,43.21
2026-07-27 13:36:26.801,-0.27,-0.03,1.1,10.01,-28.02,60.06
2026-07-27 13:36:26.801,-0.27,-0.03,1.1,10.01,-28.02,60.06
2026-07-27 13:36:26.801,-0.27,-0.13,1.06,10.44,-39.37,64.03
2026-07-27 13:36:26.801,-0.24,-0.2,0.98,11.84,-46.26,58.35
2026-07-27 13:36:26.801,-0.24,-0.2,0.98,11.84,-46.26,58.35
2026-07-27 13:36:26.802,-0.16,-0.29,0.93,0.98,-53.28,47.49
2026-07-27 13:36:26.802,-0.16,-0.29,0.93,0.98,-53.28,47.49
2026-07-27 13:36:26.802,-0.07,-0.36,0.97,-20.26,-60.79,29.79
2026-07-27 13:36:26.802,-0.07,-0.36,0.97,-20.26,-60.79,29.79
2026-07-27 13:36:27.240,-0.03,-0.32,1.07,-17.76,-67.38,12.02
2026-07-27 13:36:27.245,-0.03,-0.19,1.1,13.61,-70.56,4.7
2026-07-27 13:36:27.299,-0.03,-0.19,1.1,13.61,-70.56,4.7
2026-07-27 13:36:27.299,-0.03,-0.09,1.01,35.71,-72.45,8.54
2026-07-27 13:36:27.300,-0.03,-0.09,1.01,35.71,-72.45,8.54
2026-07-27 13:36:27.301,-0.04,-0.0,0.85,42.85,-73.55,13.61
2026-07-27 13:36:27.302,-0.03,0.1,0.72,45.72,-69.34,12.82
2026-07-27 13:36:27.302,-0.03,0.1,0.72,45.72,-69.34,12.82
2026-07-27 13:36:27.302,0.02,0.14,0.67,39.92,-54.5,19.47
2026-07-27 13:36:27.305,0.02,0.14,0.67,39.92,-54.5,19.47
2026-07-27 13:36:27.305,0.07,0.1,0.72,26.61,-33.14,38.02
2026-07-27 13:36:27.305,0.07,0.1,0.72,26.61,-33.14,38.02
2026-07-27 13:36:27.305,0.11,0.05,0.83,16.48,-14.83,54.81
2026-07-27 13:36:27.305,0.11,0.05,0.83,16.48,-14.83,54.81
2026-07-27 13:36:27.311,0.12,0.03,0.89,15.44,-2.26,64.45
2026-07-27 13:36:27.311,0.12,0.04,0.91,17.52,5.55,69.15
2026-07-27 13:36:27.311,0.12,0.04,0.91,17.52,5.55,69.15
2026-07-27 13:36:27.311,0.12,0.09,0.9,20.08,12.76,71.29
2026-07-27 13:36:27.311,0.12,0.09,0.9,20.08,12.76,71.29
2026-07-27 13:36:27.311,0.11,0.13,0.89,22.09,20.75,73.61
2026-07-27 13:36:27.311,0.11,0.13,0.89,22.09,20.75,73.61
2026-07-27 13:36:27.312,0.09,0.13,0.87,20.39,26.18,77.58
2026-07-27 13:36:27.312,0.07,0.11,0.85,17.82,27.89,80.51
2026-07-27 13:36:27.549,0.07,0.11,0.85,17.82,27.89,80.51
2026-07-27 13:36:27.613,0.07,0.11,0.83,17.52,31.62,75.74
2026-07-27 13:36:27.613,0.07,0.11,0.83,17.52,31.62,75.74
2026-07-27 13:36:27.613,0.05,0.17,0.94,19.29,50.9,57.31
2026-07-27 13:36:27.613,0.05,0.17,0.94,19.29,50.9,57.31
2026-07-27 13:36:27.613,-0.05,0.25,1.21,25.15,88.13,31.74
2026-07-27 13:36:27.613,-0.05,0.25,1.21,33.87,106.51,17.46
2026-07-27 13:36:27.613,-0.17,0.28,1.33,33.87,106.51,17.46
2026-07-27 13:36:27.613,-0.19,0.25,1.18,33.33,76.9,21.85
2026-07-27 13:36:27.613,-0.19,0.25,1.18,33.33,76.9,21.85
2026-07-27 13:36:27.728,-0.17,0.2,1.01,21.55,35.58,31.98
2026-07-27 13:36:27.737,-0.17,0.2,1.01,21.55,35.58,31.98
2026-07-27 13:36:27.752,-0.13,0.14,0.98,7.93,18.55,37.35
2026-07-27 13:36:27.752,-0.13,0.14,0.98,7.93,18.55,37.35
2026-07-27 13:36:27.762,-0.09,0.07,1.04,-4.39,20.69,34.97
2026-07-27 13:36:27.833,-0.07,0.07,1.06,-6.96,28.81,23.5
2026-07-27 13:36:27.838,-0.07,0.07,1.06,-6.96,28.81,23.5
2026-07-27 13:36:28.140,-0.05,0.11,0.98,-7.57,24.29,9.89
2026-07-27 13:36:28.140,-0.05,0.11,0.98,-7.57,24.29,9.89
2026-07-27 13:36:28.142,-0.03,0.14,0.91,-17.09,5.43,-1.71
2026-07-27 13:36:28.143,-0.03,0.14,0.91,-17.09,5.43,-1.71
2026-07-27 13:36:28.148,-0.04,0.18,0.9,-33.39,-13.98,-16.11
2026-07-27 13:36:28.148,-0.04,0.18,0.9,-33.39,-13.98,-16.11
2026-07-27 13:36:28.152,-0.06,0.19,0.93,-57.01,-29.72,-32.17
2026-07-27 13:36:28.152,-0.08,0.16,0.98,-75.62,-38.76,-41.87
2026-07-27 13:36:28.152,-0.08,0.16,0.98,-75.62,-38.76,-41.87
2026-07-27 13:36:28.153,-0.09,0.16,1.01,-71.66,-34.36,-42.18
2026-07-27 13:36:28.153,-0.09,0.16,1.01,-71.66,-34.36,-42.18
2026-07-27 13:36:28.153,-0.1,0.18,1.04,-43.64,-10.74,-36.87
2026-07-27 13:36:28.153,-0.1,0.18,1.04,-43.64,-10.74,-36.87
2026-07-27 13:36:28.154,-0.14,0.21,1.13,0.49,29.36,-29.11
2026-07-27 13:36:28.155,-0.21,0.23,1.16,45.29,59.75,-9.89
2026-07-27 13:36:28.155,-0.21,0.23,1.16,45.29,59.75,-9.89
2026-07-27 13:36:28.156,-0.25,0.14,1.07,49.56,43.58,23.8
2026-07-27 13:36:28.156,-0.25,0.14,1.07,49.56,43.58,23.8
2026-07-27 13:36:28.157,-0.18,-0.09,0.95,-17.58,-22.58,51.03
2026-07-27 13:36:28.157,-0.18,-0.09,0.95,-17.58,-22.58,51.03
2026-07-27 13:36:28.280,-0.06,-0.33,0.89,-90.39,-83.13,51.57
2026-07-27 13:36:28.332,-0.06,-0.33,0.89,-90.39,-83.13,51.57
2026-07-27 13:36:28.337,0.01,-0.42,0.92,-90.15,-96.92,29.48
2026-07-27 13:36:28.337,0.05,-0.39,0.93,-28.14,-74.83,9.52
2026-07-27 13:36:28.338,0.05,-0.39,0.93,-28.14,-74.83,9.52
2026-07-27 13:36:28.339,0.1,-0.33,0.89,34.18,-36.99,9.7
2026-07-27 13:36:28.340,0.1,-0.33,0.89,34.18,-36.99,9.7
2026-07-27 13:36:28.340,0.15,-0.27,0.87,62.13,-12.88,28.02
2026-07-27 13:36:28.513,0.15,-0.27,0.87,62.13,-12.88,28.02
2026-07-27 13:36:28.529,0.19,-0.2,0.94,47.85,-10.56,29.42
2026-07-27 13:36:28.529,0.21,-0.18,1.03,-3.42,-18.68,-6.9
2026-07-27 13:36:28.529,0.21,-0.18,1.03,-3.42,-18.68,-6.9
2026-07-27 13:36:28.529,0.22,-0.23,1.08,-48.77,-32.17,-54.32
2026-07-27 13:36:28.529,0.22,-0.23,1.08,-48.77,-32.17,-54.32
2026-07-27 13:36:28.529,0.23,-0.27,1.05,-73.36,-53.41,-93.99
2026-07-27 13:36:28.529,0.23,-0.27,1.05,-73.36,-53.41,-93.99
2026-07-27 13:36:28.831,0.23,-0.22,0.98,-59.69,-51.15,-101.32
2026-07-27 13:36:28.854,0.23,-0.22,0.98,-10.74,-11.54,-68.36
2026-07-27 13:36:28.855,0.22,-0.14,0.99,-10.74,-11.54,-68.36
2026-07-27 13:36:28.855,0.29,-0.14,1.16,23.44,27.65,-37.29
2026-07-27 13:36:28.855,0.29,-0.14,1.16,23.44,27.65,-37.29
2026-07-27 13:36:28.855,0.45,-0.13,1.39,8.3,62.87,-21.06
2026-07-27 13:36:28.856,0.45,-0.13,1.39,8.3,62.87,-21.06
