Timestamp,AccX,AccY,AccZ,GyroX,GyroY,GyroZ
2026-07-27 13:31:03.120,0.02,0.0,0.99,0.24,-0.24,-0.31
2026-07-27 13:31:03.120,-0.27,-0.05,0.97,11.84,-11.6,-15.87
2026-07-27 13:31:03.121,-0.24,-0.05,0.95,-0.98,-31.01,-12.15
2026-07-27 13:31:03.121,-0.24,-0.05,0.95,-0.98,-31.01,-12.15
2026-07-27 13:31:03.122,-0.22,-0.05,0.94,-5.98,-35.58,-5.07
2026-07-27 13:31:03.241,-0.22,-0.05,0.94,-5.98,-35.58,-5.07
2026-07-27 13:31:03.242,-0.19,-0.06,0.95,-9.28,-40.77,-2.01
2026-07-27 13:31:03.242,-0.15,-0.08,0.96,-12.76,-47.85,-2.69
2026-07-27 13:31:03.243,-0.15,-0.08,0.96,-12.76,-47.85,-2.69
2026-07-27 13:31:03.243,-0.13,-0.1,0.98,-12.02,-42.91,-2.44
2026-07-27 13:31:03.244,-0.13,-0.1,0.98,-12.02,-42.91,-2.44
2026-07-27 13:31:03.666,-0.12,-0.1,0.99,-6.35,-28.02,-0.67
2026-07-27 13:31:03.668,-0.12,-0.1,0.99,-6.35,-28.02,-0.67
2026-07-27 13:31:03.668,-0.1,-0.1,0.99,-0.49,-20.57,1.53
2026-07-27 13:31:03.668,-0.1,-0.1,0.99,-0.49,-20.57,1.53
2026-07-27 13:31:03.668,-0.09,-0.09,0.98,0.85,-21.91,3.23
2026-07-27 13:31:03.668,-0.08,-0.09,0.98,-1.4,-21.42,2.75
2026-07-27 13:31:03.668,-0.08,-0.09,0.98,-1.4,-21.42,2.75
2026-07-27 13:31:03.668,-0.07,-0.1,0.99,-4.27,-14.47,0.61
2026-07-27 13:31:03.669,-0.07,-0.1,0.99,-4.27,-14.47,0.61
2026-07-27 13:31:03.669,-0.06,-0.1,0.98,-7.14,-7.02,-0.61
2026-07-27 13:31:03.669,-0.06,-0.1,0.98,-7.14,-7.02,-0.61
2026-07-27 13:31:03.669,-0.06,-0.11,0.98,-11.11,-6.47,2.75
2026-07-27 13:31:03.669,-0.06,-0.11,0.98,-11.11,-6.47,2.75
2026-07-27 13:31:03.670,-0.05,-0.12,0.98,-17.09,-10.62,5.68
2026-07-27 13:31:03.720,-0.05,-0.12,0.98,-21.61,-15.44,4.21
2026-07-27 13:31:03.720,-0.04,-0.14,0.99,-21.61,-15.44,4.21
2026-07-27 13:31:03.721,-0.03,-0.15,0.98,-19.47,-17.15,2.26
2026-07-27 13:31:03.721,-0.03,-0.15,0.98,-19.47,-17.15,2.26
2026-07-27 13:31:03.721,-0.02,-0.16,0.98,-15.56,-17.09,1.65
2026-07-27 13:31:03.721,-0.02,-0.16,0.98,-15.56,-17.09,1.65
2026-07-27 13:31:03.846,-0.0,-0.17,0.97,-17.88,-21.36,0.92
2026-07-27 13:31:03.849,-0.0,-0.17,0.97,-17.88,-21.36,0.92
2026-07-27 13:31:03.849,0.02,-0.2,0.97,-27.89,-26.43,2.62
2026-07-27 13:31:03.852,0.02,-0.23,0.99,-34.06,-21.48,6.96
2026-07-27 13:31:03.853,0.02,-0.23,0.99,-34.06,-21.48,6.96
2026-07-27 13:31:03.854,0.02,-0.24,0.98,-21.61,-8.12,6.47
2026-07-27 13:31:03.854,0.02,-0.24,0.98,-21.61,-8.12,6.47
2026-07-27 13:31:03.900,0.02,-0.23,0.98,-1.83,1.83,2.44
2026-07-27 13:31:03.900,0.02,-0.23,0.98,-1.83,1.83,2.44
2026-07-27 13:31:03.960,0.02,-0.22,0.97,4.94,5.68,0.55
2026-07-27 13:31:03.961,0.02,-0.22,0.97,4.94,5.68,0.55
2026-07-27 13:31:03.961,0.02,-0.21,0.94,2.2,5.62,2.01
2026-07-27 13:31:04.021,0.01,-0.21,0.93,0.37,0.49,4.21
2026-07-27 13:31:04.024,0.01,-0.21,0.93,0.37,0.49,4.21
2026-07-27 13:31:04.115,0.02,-0.23,0.96,-2.32,-6.59,4.39
2026-07-27 13:31:04.127,0.02,-0.23,0.96,-2.32,-6.59,4.39
2026-07-27 13:31:04.127,0.02,-0.23,0.98,-4.94,-7.81,3.23
2026-07-27 13:31:04.393,0.02,-0.23,0.98,-4.94,-7.81,3.23
2026-07-27 13:31:04.449,0.02,-0.23,0.98,-4.64,-2.93,2.08
2026-07-27 13:31:04.452,0.02,-0.23,0.98,-4.64,-2.93,2.08
2026-07-27 13:31:04.456,0.02,-0.23,0.96,-4.39,1.53,1.34
2026-07-27 13:31:04.456,0.02,-0.23,0.96,-4.39,1.53,1.34
2026-07-27 13:31:04.457,0.02,-0.24,0.95,-4.52,1.4,0.61
2026-07-27 13:31:04.457,0.02,-0.23,0.95,-1.95,-2.81,-0.61
2026-07-27 13:31:04.457,0.02,-0.23,0.95,-1.95,-2.81,-0.61
2026-07-27 13:31:04.457,0.03,-0.24,0.96,0.55,-7.93,-1.77
2026-07-27 13:31:04.459,0.03,-0.24,0.96,0.55,-7.93,-1.77
2026-07-27 13:31:04.459,0.04,-0.24,0.97,0.85,-11.47,-1.83
2026-07-27 13:31:04.459,0.04,-0.24,0.97,0.85,-11.47,-1.83
2026-07-27 13:31:04.460,0.05,-0.23,0.97,2.44,-18.19,-2.14
2026-07-27 13:31:04.460,0.05,-0.23,0.97,2.44,-18.19,-2.14
2026-07-27 13:31:04.460,0.07,-0.23,0.97,3.23,-30.76,-3.91
2026-07-27 13:31:04.460,0.1,-0.23,0.98,-1.28,-40.04,-5.0
2026-07-27 13:31:04.460,0.1,-0.23,0.98,-1.28,-40.04,-5.0
2026-07-27 13:31:04.500,0.14,-0.23,0.98,-8.0,-44.25,-6.77
2026-07-27 13:31:04.500,0.14,-0.23,0.98,-8.0,-44.25,-6.77
2026-07-27 13:31:04.636,0.17,-0.22,0.99,-15.69,-41.26,-11.29
2026-07-27 13:31:04.636,0.17,-0.22,0.99,-15.69,-41.26,-11.29
2026-07-27 13:31:04.651,0.23,-0.19,1.09,-25.02,-38.7,-21.36
2026-07-27 13:31:04.693,0.23,-0.19,1.09,-25.02,-38.7,-21.36
2026-07-27 13:31:04.693,0.33,-0.09,1.23,-24.72,-49.56,-43.52
2026-07-27 13:31:04.710,0.35,0.07,1.23,-4.58,-47.49,-74.34
2026-07-27 13:31:04.920,0.35,0.07,1.23,-4.58,-47.49,-74.34
2026-07-27 13:31:04.927,0.3,0.15,1.03,-6.16,-37.23,-112.0
2026-07-27 13:31:04.927,0.3,0.15,1.03,-6.16,-37.23,-112.0
2026-07-27 13:31:04.928,0.29,0.08,0.76,-52.73,-46.75,-166.69
2026-07-27 13:31:04.928,0.29,0.08,0.76,-52.73,-46.75,-166.69
2026-07-27 13:31:04.928,0.33,-0.07,0.56,-85.75,-23.07,-218.2
2026-07-27 13:31:04.928,0.38,-0.2,0.49,-107.67,49.44,-227.36
2026-07-27 13:31:04.929,0.38,-0.2,0.49,-107.67,49.44,-227.36
2026-07-27 13:31:04.929,0.44,-0.31,0.52,-150.88,86.3,-196.04
2026-07-27 13:31:04.930,0.44,-0.31,0.52,-150.88,86.3,-196.04
2026-07-27 13:31:04.930,0.52,-0.4,0.62,-174.26,58.41,-158.45
2026-07-27 13:31:04.930,0.52,-0.4,0.62,-174.26,58.41,-158.45
2026-07-27 13:31:04.930,0.57,-0.45,0.75,-128.3,24.29,-136.41
2026-07-27 13:31:05.088,0.57,-0.42,0.89,-18.62,37.54,-124.51
2026-07-27 13:31:05.088,0.57,-0.42,0.89,-18.62,37.54,-124.51
2026-07-27 13:31:05.089,0.51,-0.33,0.98,52.92,81.24,-108.76
2026-07-27 13:31:05.103,0.51,-0.33,0.98,52.92,81.24,-108.76
2026-07-27 13:31:05.103,0.4,-0.33,0.98,26.0,117.74,-67.69
2026-07-27 13:31:05.111,0.31,-0.45,0.88,-53.22,100.77,-7.75
2026-07-27 13:31:05.111,0.31,-0.45,0.88,-53.22,100.77,-7.75
2026-07-27 13:31:05.161,0.25,-0.57,0.74,-131.41,26.61,1.65
2026-07-27 13:31:05.170,0.25,-0.57,0.74,-131.41,26.61,1.65
2026-07-27 13:31:05.172,0.24,-0.61,0.66,-174.56,-39.37,-69.82
2026-07-27 13:31:05.261,0.24,-0.61,0.66,-174.56,-39.37,-69.82
2026-07-27 13:31:05.261,0.37,-0.62,0.64,-200.44,-27.28,-180.97
2026-07-27 13:31:05.359,0.5,-0.6,0.67,-172.06,70.92,-220.7
2026-07-27 13:31:05.384,0.5,-0.6,0.67,-172.06,70.92,-220.7
2026-07-27 13:31:05.384,0.45,-0.47,0.74,-44.92,122.68,-143.86
2026-07-27 13:31:05.385,0.45,-0.47,0.74,-44.92,122.68,-143.86
2026-07-27 13:31:05.385,0.38,-0.23,0.71,110.66,60.42,-54.63
2026-07-27 13:31:05.385,0.38,-0.23,0.71,110.66,60.42,-54.63
2026-07-27 13:31:05.529,0.42,-0.02,0.66,186.1,-20.75,-9.03
2026-07-27 13:31:05.529,0.51,0.14,0.74,155.94,-46.57,3.54
2026-07-27 13:31:05.530,0.51,0.14,0.74,155.94,-46.57,3.54
2026-07-27 13:31:05.530,0.6,0.17,0.88,87.4,-27.59,0.37
2026-07-27 13:31:05.533,0.6,0.17,0.88,87.4,-27.59,0.37
2026-07-27 13:31:05.533,0.68,0.05,1.02,38.76,5.25,-5.19
2026-07-27 13:31:05.533,0.68,0.05,1.02,38.76,5.25,-5.19
2026-07-27 13:31:05.533,0.71,-0.1,1.09,19.47,30.27,-19.59
2026-07-27 13:31:05.661,0.71,-0.1,1.09,19.47,30.27,-19.59
2026-07-27 13:31:05.662,0.68,-0.17,1.04,2.44,26.67,-41.56
2026-07-27 13:31:05.662,0.59,-0.14,0.9,-24.29,0.06,-61.58
2026-07-27 13:31:05.662,0.59,-0.14,0.9,-24.29,0.06,-61.58
2026-07-27 13:31:05.662,0.49,-0.04,0.77,-45.9,-21.61,-70.56
2026-07-27 13:31:05.768,0.49,-0.04,0.77,-45.9,-21.61,-70.56
2026-07-27 13:31:05.773,0.45,-0.01,0.73,-42.72,-15.26,-60.24
2026-07-27 13:31:06.060,0.45,-0.01,0.73,-42.72,-15.26,-60.24
2026-07-27 13:31:06.060,0.5,-0.05,0.83,-22.09,21.0,-44.25
2026-07-27 13:31:06.062,0.53,-0.08,0.94,2.32,59.57,-38.33
2026-07-27 13:31:06.062,0.53,-0.08,0.94,2.32,59.57,-38.33
2026-07-27 13:31:06.062,0.48,-0.02,0.88,22.34,73.24,-39.12
2026-07-27 13:31:06.062,0.48,-0.02,0.88,22.34,73.24,-39.12
2026-07-27 13:31:06.062,0.38,0.06,0.77,19.47,64.39,-33.81
2026-07-27 13:31:06.065,0.38,0.06,0.77,19.47,64.39,-33.81
2026-07-27 13:31:06.065,0.32,0.07,0.8,6.04,45.59,-2.38
2026-07-27 13:31:06.066,0.32,0.07,0.8,6.04,45.59,-2.38
2026-07-27 13:31:06.067,0.35,-0.01,0.87,16.17,14.47,57.62
2026-07-27 13:31:06.141,0.38,-0.11,0.93,28.38,-12.94,89.72
2026-07-27 13:31:06.155,0.38,-0.11,0.93,28.38,-12.94,89.72
2026-07-27 13:31:06.156,0.36,-0.14,0.97,27.28,-12.33,70.5
2026-07-27 13:31:06.156,0.36,-0.14,0.97,27.28,-12.33,70.5
2026-07-27 13:31:06.156,0.38,-0.18,1.02,30.76,6.29,48.52
2026-07-27 13:31:06.156,0.38,-0.18,1.02,30.76,6.29,48.52
2026-07-27 13:31:06.157,0.38,-0.13,1.15,35.16,36.87,18.49
2026-07-27 13:31:06.160,0.38,-0.13,1.15,24.05,48.65,-27.16
2026-07-27 13:31:06.170,0.29,0.11,1.18,24.05,48.65,-27.16
2026-07-27 13:31:06.244,0.34,0.13,1.14,-17.58,21.24,-23.07
2026-07-27 13:31:06.245,0.34,0.13,1.14,-17.58,21.24,-23.07
2026-07-27 13:31:06.245,0.45,-0.14,1.2,-47.42,1.28,29.05
2026-07-27 13:31:06.245,0.45,-0.14,1.2,-47.42,1.28,29.05
2026-07-27 13:31:06.246,0.27,-0.27,1.24,-16.36,18.68,47.67
2026-07-27 13:31:06.433,0.27,-0.27,1.24,-16.36,18.68,47.67
2026-07-27 13:31:06.434,-0.08,-0.23,1.3,39.0,56.21,12.76
2026-07-27 13:31:06.434,-0.34,-0.15,1.37,68.18,85.14,-33.75
2026-07-27 13:31:06.434,-0.34,-0.15,1.37,68.18,85.14,-33.75
2026-07-27 13:31:06.435,-0.38,-0.04,1.33,74.71,86.12,-62.01
2026-07-27 13:31:06.435,-0.38,-0.04,1.33,74.71,86.12,-62.01
2026-07-27 13:31:06.435,-0.28,0.13,1.16,56.88,67.69,-78.0
2026-07-27 13:31:06.435,-0.28,0.13,1.16,56.88,67.69,-78.0
2026-07-27 13:31:06.601,-0.16,0.25,0.98,10.56,59.08,-88.81
2026-07-27 13:31:06.609,-0.16,0.25,0.98,-46.45,66.1,-77.82
2026-07-27 13:31:06.609,-0.05,0.18,0.88,-46.45,66.1,-77.82
2026-07-27 13:31:06.609,0.02,0.04,0.83,-89.29,68.42,-51.76
2026-07-27 13:31:06.610,0.02,0.04,0.83,-89.29,68.42,-51.76
2026-07-27 13:31:06.610,0.02,-0.05,0.75,-94.79,53.83,-39.31
2026-07-27 13:31:06.610,0.02,-0.05,0.75,-94.79,53.83,-39.31
2026-07-27 13:31:06.610,0.0,-0.1,0.67,-75.07,27.83,-43.09
2026-07-27 13:31:06.825,0.0,-0.1,0.67,-75.07,27.83,-43.09
2026-07-27 13:31:06.831,-0.03,-0.16,0.62,-61.04,2.26,-55.85
2026-07-27 13:31:06.832,-0.08,-0.22,0.66,-62.19,-12.27,-76.05
2026-07-27 13:31:06.832,-0.08,-0.22,0.66,-62.19,-12.27,-76.05
2026-07-27 13:31:06.832,-0.12,-0.22,0.75,-58.59,-8.67,-101.56
2026-07-27 13:31:06.832,-0.12,-0.22,0.75,-58.59,-8.67,-101.56
2026-07-27 13:31:06.832,-0.09,-0.13,0.84,-34.12,12.76,-128.78
2026-07-27 13:31:06.832,-0.09,-0.13,0.84,-34.12,12.76,-128.78
2026-07-27 13:31:06.903,0.01,-0.07,0.93,-2.38,32.53,-138.79
2026-07-27 13:31:06.907,0.11,-0.12,1.01,18.8,26.92,-113.77
2026-07-27 13:31:06.907,0.11,-0.12,1.01,18.8,26.92,-113.77
2026-07-27 13:31:06.908,0.17,-0.24,1.04,25.27,-1.83,-72.69
2026-07-27 13:31:06.908,0.17,-0.24,1.04,25.27,-1.83,-72.69
2026-07-27 13:31:06.973,0.14,-0.34,1.01,25.7,-30.58,-49.19
2026-07-27 13:31:06.978,0.14,-0.34,1.01,25.7,-30.58,-49.19
2026-07-27 13:31:07.067,0.05,-0.38,0.94,29.6,-40.41,-51.45
2026-07-27 13:31:07.068,-0.05,-0.34,0.84,41.14,-23.93,-68.05
2026-07-27 13:31:07.078,-0.05,-0.34,0.84,41.14,-23.93,-68.05
2026-07-27 13:31:07.166,-0.11,-0.26,0.73,55.73,5.49,-80.75
2026-07-27 13:31:07.167,-0.11,-0.26,0.73,55.73,5.49,-80.75
2026-07-27 13:31:07.175,-0.09,-0.18,0.7,60.3,29.17,-75.56
2026-07-27 13:31:07.175,-0.09,-0.18,0.7,56.03,46.51,-56.27
2026-07-27 13:31:07.175,-0.03,-0.18,0.85,56.03,46.51,-56.27
2026-07-27 13:31:07.263,-0.01,-0.34,1.17,46.33,58.96,-27.34
2026-07-27 13:31:07.264,-0.01,-0.34,1.17,46.33,58.96,-27.34
2026-07-27 13:31:07.265,-0.03,-0.51,1.45,26.18,64.33,0.24
2026-07-27 13:31:07.265,-0.03,-0.51,1.45,26.18,64.33,0.24
2026-07-27 13:31:07.265,-0.08,-0.45,1.41,6.04,53.34,-8.12
2026-07-27 13:31:07.265,-0.08,-0.45,1.41,6.04,53.34,-8.12
2026-07-27 13:31:07.922,-0.18,-0.2,1.11,-5.31,19.29,-51.7
2026-07-27 13:31:07.924,-0.3,0.05,0.85,-5.92,-4.76,-93.08
2026-07-27 13:31:07.924,-0.3,0.05,0.85,-5.92,-4.76,-93.08
2026-07-27 13:31:07.925,-0.32,0.2,0.76,0.85,6.41,-109.44
2026-07-27 13:31:07.925,-0.32,0.2,0.76,0.85,6.41,-109.44
2026-07-27 13:31:07.925,-0.26,0.27,0.75,1.53,30.27,-99.37
2026-07-27 13:31:07.925,-0.26,0.27,0.75,1.53,30.27,-99.37
2026-07-27 13:31:08.052,-0.18,0.26,0.81,-8.42,47.61,-73.61
2026-07-27 13:31:08.120,-0.18,0.26,0.81,-8.42,47.61,-73.61
2026-07-27 13:31:08.120,-0.16,0.17,0.98,-22.77,56.46,-43.52
2026-07-27 13:31:08.146,-0.18,0.05,1.16,-34.85,50.9,-19.35
2026-07-27 13:31:08.146,-0.18,0.05,1.16,-34.85,50.9,-19.35
2026-07-27 13:31:08.179,-0.23,-0.05,1.21,-37.78,28.87,-5.86
2026-07-27 13:31:08.282,-0.23,-0.05,1.21,-37.78,28.87,-5.86
2026-07-27 13:31:08.282,-0.29,-0.11,1.12,-28.5,3.91,-4.76
2026-07-27 13:31:08.283,-0.29,-0.11,1.12,-28.5,3.91,-4.76
2026-07-27 13:31:08.283,-0.3,-0.13,0.94,-17.09,-11.72,-8.0
2026-07-27 13:31:08.283,-0.3,-0.13,0.94,-17.09,-11.72,-8.0
2026-07-27 13:31:08.283,-0.28,-0.13,0.8,-11.41,-13.55,-8.48
2026-07-27 13:31:08.283,-0.25,-0.11,0.78,-7.69,-0.18,-8.85
2026-07-27 13:31:08.283,-0.25,-0.11,0.78,-7.69,-0.18,-8.85
2026-07-27 13:31:08.283,-0.2,-0.11,0.86,-4.03,18.13,-4.7
2026-07-27 13:31:08.284,-0.2,-0.11,0.86,-4.03,18.13,-4.7
2026-07-27 13:31:08.284,-0.13,-0.1,0.93,-4.7,27.89,5.19
2026-07-27 13:31:08.287,-0.13,-0.1,0.93,-4.7,27.89,5.19
2026-07-27 13:31:08.287,-0.06,-0.05,1.04,-7.45,35.89,8.67
2026-07-27 13:31:08.287,-0.06,-0.05,1.04,-7.45,35.89,8.67
2026-07-27 13:31:08.288,0.01,-0.01,1.19,-0.12,49.87,-0.06
2026-07-27 13:31:08.288,0.01,-0.01,1.19,-0.12,49.87,-0.06
2026-07-27 13:31:08.289,0.0,-0.06,1.26,15.81,41.5,-4.64
2026-07-27 13:31:08.289,-0.09,-0.17,1.16,23.25,-2.75,4.7
2026-07-27 13:31:08.290,-0.09,-0.17,1.16,23.25,-2.75,4.7
2026-07-27 13:31:08.290,-0.19,-0.29,1.01,14.77,-49.07,20.45
2026-07-27 13:31:08.290,-0.19,-0.29,1.01,14.77,-49.07,20.45
2026-07-27 13:31:08.339,-0.26,-0.38,0.88,-5.25,-73.97,37.96
2026-07-27 13:31:08.340,-0.26,-0.38,0.88,-5.25,-73.97,37.96
2026-07-27 13:31:08.340,-0.31,-0.46,0.82,-25.33,-77.39,50.96
2026-07-27 13:31:08.340,-0.31,-0.46,0.82,-25.33,-77.39,50.96
2026-07-27 13:31:08.341,-0.36,-0.5,0.85,-31.92,-56.34,45.96
2026-07-27 13:31:08.341,-0.33,-0.4,1.0,-21.73,-6.04,14.47
2026-07-27 13:31:08.343,-0.33,-0.4,1.0,-21.73,-6.04,14.47
2026-07-27 13:31:08.344,-0.24,-0.22,1.08,-8.79,38.94,-20.75
2026-07-27 13:31:08.344,-0.24,-0.22,1.08,-8.79,38.94,-20.75
2026-07-27 13:31:08.701,-0.21,-0.2,0.99,-10.93,24.84,-19.59
2026-07-27 13:31:08.701,-0.21,-0.2,0.99,-10.93,24.84,-19.59
2026-07-27 13:31:08.702,-0.25,-0.29,0.85,-21.79,-26.0,0.98
2026-07-27 13:31:08.702,-0.25,-0.29,0.85,-21.79,-26.0,0.98
2026-07-27 13:31:08.703,-0.31,-0.25,0.78,-6.1,-43.21,-14.77
2026-07-27 13:31:08.703,-0.36,-0.06,0.75,45.59,-17.33,-63.11
2026-07-27 13:31:08.704,-0.36,-0.06,0.75,45.59,-17.33,-63.11
2026-07-27 13:31:08.881,-0.34,0.15,0.73,88.38,10.62,-85.82
2026-07-27 13:31:08.881,-0.34,0.15,0.73,88.38,10.62,-85.82
2026-07-27 13:31:08.881,-0.22,0.24,0.74,85.88,24.6,-47.73
2026-07-27 13:31:08.882,-0.22,0.24,0.74,85.88,24.6,-47.73
2026-07-27 13:31:08.882,-0.03,0.15,0.77,44.37,38.64,21.18
2026-07-27 13:31:08.882,0.13,-0.03,0.86,-17.4,56.09,52.19
2026-07-27 13:31:08.883,0.13,-0.03,0.86,-17.4,56.09,52.19
2026-07-27 13:31:08.883,0.19,-0.16,0.98,-67.08,54.81,39.92
2026-07-27 13:31:08.884,0.19,-0.16,0.98,-67.08,54.81,39.92
2026-07-27 13:31:08.884,0.13,-0.27,1.08,-94.06,26.43,32.29
2026-07-27 13:31:08.885,0.13,-0.27,1.08,-94.06,26.43,32.29
2026-07-27 13:31:08.887,0.01,-0.4,1.12,-120.18,-13.18,29.05
2026-07-27 13:31:08.887,0.01,-0.4,1.12,-148.56,-43.21,9.46
2026-07-27 13:31:09.125,-0.12,-0.6,1.11,-148.56,-43.21,9.46
2026-07-27 13:31:09.126,-0.2,-0.92,1.03,-169.37,-58.96,-29.36
2026-07-27 13:31:09.128,-0.2,-0.92,1.03,-169.37,-58.96,-29.36
2026-07-27 13:31:09.128,-0.22,-1.16,0.92,-159.61,-61.89,-72.57
2026-07-27 13:31:09.128,-0.22,-1.16,0.92,-159.61,-61.89,-72.57
2026-07-27 13:31:09.128,-0.25,-1.13,0.83,-122.99,-44.62,-99.73
2026-07-27 13:31:09.128,-0.25,-1.13,0.83,-122.99,-44.62,-99.73
2026-07-27 13:31:09.128,-0.27,-0.95,0.76,-97.05,-29.54,-109.07
2026-07-27 13:31:09.129,-0.23,-0.77,0.67,-80.75,-36.32,-112.18
2026-07-27 13:31:09.129,-0.23,-0.77,0.67,-80.75,-36.32,-112.18
2026-07-27 13:31:09.129,-0.15,-0.67,0.61,-44.25,-35.1,-108.58
2026-07-27 13:31:09.129,-0.15,-0.67,0.61,-44.25,-35.1,-108.58
2026-07-27 13:31:09.129,-0.05,-0.61,0.6,27.71,7.63,-88.75
2026-07-27 13:31:09.129,-0.05,-0.61,0.6,27.71,7.63,-88.75
2026-07-27 13:31:09.129,0.0,-0.54,0.58,94.3,54.93,-55.54
2026-07-27 13:31:09.129,0.03,-0.5,0.5,105.16,60.12,-13.37
2026-07-27 13:31:09.129,0.03,-0.5,0.5,105.16,60.12,-13.37
2026-07-27 13:31:09.130,0.03,-0.5,0.41,80.81,34.42,31.19
2026-07-27 13:31:09.130,0.03,-0.5,0.41,80.81,34.42,31.19
2026-07-27 13:31:09.185,-0.01,-0.54,0.44,61.83,6.84,51.03
2026-07-27 13:31:09.190,-0.07,-0.5,0.57,63.29,-3.11,14.53
2026-07-27 13:31:09.191,-0.07,-0.5,0.57,63.29,-3.11,14.53
2026-07-27 13:31:09.367,-0.1,-0.37,0.75,60.61,12.15,-44.98
2026-07-27 13:31:09.368,-0.1,-0.37,0.75,60.61,12.15,-44.98
2026-07-27 13:31:09.369,-0.13,-0.32,0.9,30.52,45.29,-66.22
2026-07-27 13:31:09.369,-0.13,-0.32,0.9,30.52,45.29,-66.22
2026-07-27 13:31:09.369,-0.14,-0.33,0.96,-11.05,78.86,-45.04
2026-07-27 13:31:09.370,-0.14,-0.33,0.96,-45.35,105.04,-9.7
2026-07-27 13:31:09.371,-0.21,-0.47,0.95,-45.35,105.04,-9.7
2026-07-27 13:31:09.371,-0.28,-0.68,0.93,-67.38,121.46,19.59
2026-07-27 13:31:09.480,-0.28,-0.68,0.93,-67.38,121.46,19.59
2026-07-27 13:31:09.481,-0.23,-0.79,0.94,-80.02,124.02,31.62
2026-07-27 13:31:09.481,-0.23,-0.79,0.94,-80.02,124.02,31.62
2026-07-27 13:31:09.484,-0.15,-0.82,0.92,-78.74,106.69,22.77
2026-07-27 13:31:09.484,-0.15,-0.82,0.92,-78.74,106.69,22.77
2026-07-27 13:31:09.665,-0.16,-0.83,0.79,-56.58,67.75,3.85
2026-07-27 13:31:09.668,-0.23,-0.75,0.64,-22.64,35.58,-16.85
2026-07-27 13:31:09.669,-0.23,-0.75,0.64,-22.64,35.58,-16.85
2026-07-27 13:31:09.669,-0.31,-0.54,0.6,16.85,37.48,-32.17
2026-07-27 13:31:09.669,-0.31,-0.54,0.6,16.85,37.48,-32.17
2026-07-27 13:31:09.669,-0.35,-0.29,0.63,54.75,53.59,-35.4
2026-07-27 13:31:09.669,-0.35,-0.29,0.63,54.75,53.59,-35.4
2026-07-27 13:31:09.780,-0.35,-0.19,0.68,64.58,59.14,-24.05
2026-07-27 13:31:09.781,-0.31,-0.29,0.74,44.49,56.82,6.23
2026-07-27 13:31:09.782,-0.31,-0.29,0.74,44.49,56.82,6.23
2026-07-27 13:31:09.782,-0.26,-0.45,0.79,21.67,48.28,39.86
2026-07-27 13:31:09.782,-0.26,-0.45,0.79,21.67,48.28,39.86
2026-07-27 13:31:09.783,-0.23,-0.58,0.78,13.85,32.9,53.34
2026-07-27 13:31:09.844,-0.23,-0.58,0.78,13.85,32.9,53.34
2026-07-27 13:31:09.844,-0.27,-0.65,0.74,18.68,19.1,46.57
2026-07-27 13:31:09.845,-0.37,-0.7,0.76,17.58,16.54,34.48
2026-07-27 13:31:10.510,-0.37,-0.7,0.76,17.58,16.54,34.48
2026-07-27 13:31:10.722,-0.43,-0.79,0.87,-1.22,20.69,30.88
2026-07-27 13:31:10.722,-0.43,-0.79,0.87,-1.22,20.69,30.88
2026-07-27 13:31:10.771,-0.44,-0.84,0.95,-18.55,21.79,24.78
2026-07-27 13:31:10.828,-0.44,-0.84,0.95,-18.55,21.79,24.78
2026-07-27 13:31:11.072,-0.44,-0.77,0.96,-13.31,23.32,-1.65
2026-07-27 13:31:11.073,-0.44,-0.77,0.96,-5.37,17.88,-27.71
2026-07-27 13:31:11.596,-0.36,-0.65,0.93,-5.37,17.88,-27.71
2026-07-27 13:31:11.617,-0.3,-0.61,0.89,-15.69,-13.85,-31.01
2026-07-27 13:31:11.684,-0.3,-0.61,0.89,-15.69,-13.85,-31.01
2026-07-27 13:31:11.685,-0.33,-0.62,0.87,-30.27,-58.47,-26.25
2026-07-27 13:31:11.707,-0.33,-0.62,0.87,-30.27,-58.47,-26.25
2026-07-27 13:31:11.710,-0.35,-0.59,0.88,-28.2,-82.82,-32.65
2026-07-27 13:31:11.710,-0.35,-0.59,0.88,-28.2,-82.82,-32.65
2026-07-27 13:31:11.873,-0.32,-0.5,0.89,-10.8,-85.45,-44.8
2026-07-27 13:31:11.873,-0.26,-0.46,0.87,-2.56,-90.64,-43.4
2026-07-27 13:31:11.873,-0.26,-0.46,0.87,-2.56,-90.64,-43.4
2026-07-27 13:31:11.873,-0.22,-0.48,0.82,-13.06,-105.16,-30.09
2026-07-27 13:31:11.873,-0.22,-0.48,0.82,-13.06,-105.16,-30.09
2026-07-27 13:31:11.874,-0.23,-0.52,0.73,-27.59,-114.69,-25.33
2026-07-27 13:31:12.049,-0.23,-0.52,0.73,-27.59,-114.69,-25.33
2026-07-27 13:31:12.049,-0.29,-0.51,0.66,-33.75,-109.37,-34.91
2026-07-27 13:31:12.083,-0.37,-0.47,0.6,-29.91,-93.99,-44.01
2026-07-27 13:31:12.193,-0.37,-0.47,0.6,-29.91,-93.99,-44.01
2026-07-27 13:31:12.193,-0.44,-0.43,0.55,-22.77,-76.97,-38.64
2026-07-27 13:31:12.194,-0.44,-0.43,0.55,-22.77,-76.97,-38.64
2026-07-27 13:31:12.194,-0.5,-0.39,0.51,-15.14,-57.37,-18.07
2026-07-27 13:31:12.194,-0.5,-0.39,0.51,-15.14,-57.37,-18.07
2026-07-27 13:31:12.194,-0.52,-0.4,0.48,-3.91,-27.71,11.84
2026-07-27 13:31:12.194,-0.52,-0.4,0.48,-3.91,-27.71,11.84
2026-07-27 13:31:12.194,-0.48,-0.51,0.54,4.94,11.41,47.67
2026-07-27 13:31:12.194,-0.33,-0.83,0.73,-0.37,46.08,75.32
2026-07-27 13:31:12.195,-0.33,-0.83,0.73,-0.37,46.08,75.32
2026-07-27 13:31:12.195,-0.07,-1.13,0.97,-13.98,74.4,59.94
2026-07-27 13:31:12.215,-0.07,-1.13,0.97,-13.98,74.4,59.94
2026-07-27 13:31:12.217,0.17,-1.06,1.14,-1.89,109.01,-3.97
2026-07-27 13:31:12.234,0.17,-1.06,1.14,-1.89,109.01,-3.97
2026-07-27 13:31:12.256,0.24,-0.81,1.11,34.67,114.2,-58.84
2026-07-27 13:31:12.256,0.24,-0.81,1.11,34.67,114.2,-58.84
2026-07-27 13:31:12.268,0.15,-0.69,0.92,45.72,50.78,-56.4
2026-07-27 13:31:12.268,0.15,-0.69,0.92,28.87,-28.02,-26.06
2026-07-27 13:31:12.268,0.04,-0.68,0.71,28.87,-28.02,-26.06
2026-07-27 13:31:12.268,-0.04,-0.6,0.55,23.44,-52.31,-19.53
2026-07-27 13:31:12.268,-0.04,-0.6,0.55,23.44,-52.31,-19.53
2026-07-27 13:31:12.268,-0.07,-0.51,0.48,31.43,-28.08,-33.94
2026-07-27 13:31:12.268,-0.07,-0.51,0.48,31.43,-28.08,-33.94
2026-07-27 13:31:12.268,-0.05,-0.48,0.48,32.78,5.37,-41.75
2026-07-27 13:31:12.269,-0.05,-0.48,0.48,32.78,5.37,-41.75
2026-07-27 13:31:12.275,-0.07,-0.47,0.54,24.84,29.3,-34.55
2026-07-27 13:31:12.275,-0.07,-0.47,0.54,24.84,29.3,-34.55
2026-07-27 13:31:12.275,-0.11,-0.48,0.61,9.95,34.24,-11.9
2026-07-27 13:31:12.275,-0.1,-0.57,0.65,-10.25,18.62,21.12
2026-07-27 13:31:12.275,-0.1,-0.57,0.65,-10.25,18.62,21.12
2026-07-27 13:31:12.275,-0.02,-0.75,0.72,-31.86,-7.26,36.07
2026-07-27 13:31:12.275,-0.02,-0.75,0.72,-31.86,-7.26,36.07
2026-07-27 13:31:12.275,0.1,-0.87,0.8,-49.01,-29.42,12.21
2026-07-27 13:31:12.275,0.1,-0.87,0.8,-49.01,-29.42,12.21
2026-07-27 13:31:12.275,0.16,-0.88,0.81,-44.86,-34.61,-24.9
2026-07-27 13:31:12.275,0.15,-0.81,0.73,-18.74,-21.3,-48.03
2026-07-27 13:31:12.275,0.15,-0.81,0.73,-18.74,-21.3,-48.03
2026-07-27 13:31:12.529,0.1,-0.7,0.67,6.1,8.36,-61.89
2026-07-27 13:31:12.530,0.1,-0.7,0.67,6.1,8.36,-61.89
2026-07-27 13:31:12.563,0.06,-0.61,0.74,15.26,47.85,-68.42
2026-07-27 13:31:12.564,0.06,-0.61,0.74,15.26,47.85,-68.42
2026-07-27 13:31:12.564,0.13,-0.6,0.97,5.62,76.78,-56.64
2026-07-27 13:31:12.564,0.13,-0.6,0.97,5.62,76.78,-56.64
2026-07-27 13:31:12.564,0.25,-0.66,1.17,-8.85,62.44,-28.14
2026-07-27 13:31:12.564,0.23,-0.73,1.13,-7.32,-2.87,-0.92
2026-07-27 13:31:12.564,0.23,-0.73,1.13,-7.32,-2.87,-0.92
2026-07-27 13:31:12.610,0.01,-0.51,0.6,19.41,-84.72,-30.15
2026-07-27 13:31:12.610,0.01,-0.51,0.6,19.41,-84.72,-30.15
2026-07-27 13:31:12.613,-0.05,-0.53,0.56,14.1,-63.96,-28.81
2026-07-27 13:31:12.613,-0.05,-0.53,0.56,14.1,-63.96,-28.81
2026-07-27 13:31:12.614,-0.08,-0.56,0.58,8.18,-33.39,-27.16
2026-07-27 13:31:12.618,-0.08,-0.56,0.58,8.18,-33.39,-27.16
2026-07-27 13:31:12.618,-0.09,-0.58,0.65,5.92,-0.06,-26.61
2026-07-27 13:31:12.618,-0.09,-0.58,0.65,5.92,-0.06,-26.61
2026-07-27 13:31:12.661,-0.07,-0.58,0.73,10.86,32.1,-25.94
2026-07-27 13:31:12.664,-0.02,-0.55,0.79,18.55,61.1,-21.36
2026-07-27 13:31:12.664,-0.02,-0.55,0.79,18.55,61.1,-21.36
2026-07-27 13:31:12.664,0.07,-0.53,0.87,22.09,88.75,-12.94
2026-07-27 13:31:12.664,0.07,-0.53,0.87,22.09,88.75,-12.94
2026-07-27 13:31:12.664,0.29,-0.46,1.09,20.63,142.94,-7.2
2026-07-27 13:31:12.664,0.3,-0.55,0.81,-1.59,12.08,2.38
2026-07-27 13:31:12.665,0.25,-0.58,0.75,-8.73,-11.78,-6.65
2026-07-27 13:31:12.665,0.25,-0.58,0.75,-8.73,-11.78,-6.65
2026-07-27 13:31:12.665,0.22,-0.48,0.76,0.18,3.48,-36.5
2026-07-27 13:31:12.665,0.22,-0.48,0.76,0.18,3.48,-36.5
2026-07-27 13:31:12.665,0.17,-0.35,0.8,13.43,24.05,-56.58
2026-07-27 13:31:12.666,0.1,-0.28,0.83,13.37,27.04,-45.96
2026-07-27 13:31:12.666,0.1,-0.28,0.83,13.37,27.04,-45.96
2026-07-27 13:31:12.667,0.04,-0.29,0.81,-7.32,15.44,-10.74
2026-07-27 13:31:12.667,0.04,-0.29,0.81,-7.32,15.44,-10.74
2026-07-27 13:31:12.668,0.02,-0.38,0.75,-39.86,3.36,29.3
2026-07-27 13:31:12.669,0.02,-0.38,0.75,-39.86,3.36,29.3
2026-07-27 13:31:12.669,0.04,-0.51,0.71,-68.6,3.17,54.75
2026-07-27 13:31:12.670,0.04,-0.51,0.71,-68.6,3.17,54.75
2026-07-27 13:31:12.670,-0.0,-0.63,0.74,-80.32,19.04,61.34
2026-07-27 13:31:12.673,-0.0,-0.63,0.74,-80.81,37.66,64.27
2026-07-27 13:31:12.673,0.02,-0.84,0.8,-80.81,37.66,64.27
2026-07-27 13:31:12.673,0.07,-1.15,0.83,-72.57,45.47,81.97
2026-07-27 13:31:12.673,0.07,-1.15,0.83,-72.57,45.47,81.97
2026-07-27 13:31:12.673,-0.11,-1.13,0.84,-37.23,45.17,74.58
2026-07-27 13:31:12.789,-0.11,-1.13,0.84,-37.23,45.17,74.58
2026-07-27 13:31:12.791,-0.35,-0.75,0.86,8.61,37.6,21.97
2026-07-27 13:31:12.792,-0.35,-0.75,0.86,8.61,37.6,21.97
2026-07-27 13:31:12.792,-0.41,-0.42,0.82,22.22,6.29,-13.55
2026-07-27 13:31:12.792,-0.41,-0.42,0.82,22.22,6.29,-13.55
2026-07-27 13:31:12.792,-0.33,-0.35,0.67,7.51,-42.48,-5.62
2026-07-27 13:31:12.840,-0.26,-0.5,0.51,-13.98,-65.49,19.53
2026-07-27 13:31:12.840,-0.26,-0.5,0.51,-13.98,-65.49,19.53
2026-07-27 13:31:12.843,-0.29,-0.69,0.54,-35.03,-34.73,29.72
2026-07-27 13:31:12.843,-0.29,-0.69,0.54,-35.03,-34.73,29.72
2026-07-27 13:31:12.843,-0.38,-0.76,0.72,-34.61,39.92,17.03
2026-07-27 13:31:12.843,-0.38,-0.76,0.72,-8.54,109.13,0.06
2026-07-27 13:31:12.843,-0.45,-0.69,0.76,-8.54,109.13,0.06
2026-07-27 13:31:12.843,-0.45,-0.59,0.61,6.77,102.17,-4.03
2026-07-27 13:31:12.845,-0.45,-0.59,0.61,6.77,102.17,-4.03
2026-07-27 13:31:13.025,-0.37,-0.56,0.48,-7.26,25.45,-0.49
2026-07-27 13:31:13.026,-0.37,-0.56,0.48,-7.26,25.45,-0.49
2026-07-27 13:31:13.026,-0.31,-0.6,0.45,-16.6,-33.69,-7.08
2026-07-27 13:31:13.032,-0.31,-0.6,0.45,-16.6,-33.69,-7.08
2026-07-27 13:31:13.032,-0.32,-0.65,0.48,-6.47,-42.11,-20.63
2026-07-27 13:31:13.032,-0.36,-0.66,0.55,4.64,-29.54,-23.8
2026-07-27 13:31:13.033,-0.36,-0.66,0.55,4.64,-29.54,-23.8
2026-07-27 13:31:13.033,-0.4,-0.64,0.66,11.23,-6.65,-19.23
2026-07-27 13:31:13.159,-0.4,-0.64,0.66,11.23,-6.65,-19.23
2026-07-27 13:31:13.160,-0.4,-0.65,0.76,15.87,27.04,-21.18
2026-07-27 13:31:13.160,-0.4,-0.65,0.76,15.87,27.04,-21.18
2026-07-27 13:31:13.160,-0.39,-0.71,0.84,17.94,58.96,-31.13
2026-07-27 13:31:13.160,-0.35,-0.78,0.9,18.8,78.12,-39.37
2026-07-27 13:31:13.698,-0.35,-0.78,0.9,18.8,78.12,-39.37
2026-07-27 13:31:13.698,-0.25,-0.71,0.89,26.06,79.71,-43.27
2026-07-27 13:31:13.699,-0.25,-0.71,0.89,26.06,79.71,-43.27
2026-07-27 13:31:13.700,-0.17,-0.54,0.73,38.82,58.29,-44.56
2026-07-27 13:31:13.700,-0.17,-0.54,0.73,38.82,58.29,-44.56
2026-07-27 13:31:13.703,-0.16,-0.47,0.52,38.76,18.49,-38.82
2026-07-27 13:31:13.703,-0.15,-0.66,0.47,22.34,-10.25,-28.08
2026-07-27 13:31:13.703,-0.15,-0.66,0.47,22.34,-10.25,-28.08
2026-07-27 13:31:13.703,-0.05,-0.94,0.65,19.23,-5.0,-30.4
2026-07-27 13:31:13.703,-0.05,-0.94,0.65,19.23,-5.0,-30.4
2026-07-27 13:31:13.703,0.03,-0.93,0.78,43.64,9.89,-53.16
2026-07-27 13:31:13.703,0.03,-0.93,0.78,43.64,9.89,-53.16
2026-07-27 13:31:13.703,-0.03,-0.63,0.69,66.35,2.75,-67.63
2026-07-27 13:31:13.704,-0.03,-0.63,0.69,60.61,-10.07,-54.93
2026-07-27 13:31:13.704,-0.15,-0.39,0.55,60.61,-10.07,-54.93
2026-07-27 13:31:13.704,-0.22,-0.36,0.55,38.7,-0.37,-31.74
2026-07-27 13:31:13.704,-0.22,-0.36,0.55,38.7,-0.37,-31.74
2026-07-27 13:31:13.704,-0.17,-0.43,0.67,22.95,29.24,-15.5
2026-07-27 13:31:13.705,-0.17,-0.43,0.67,22.95,29.24,-15.5
2026-07-27 13:31:13.705,-0.04,-0.54,0.8,16.24,64.09,-15.26
2026-07-27 13:31:13.706,-0.04,-0.54,0.8,16.24,64.09,-15.26
2026-07-27 13:31:13.706,0.05,-0.69,0.87,14.1,90.03,-35.89
2026-07-27 13:31:13.707,0.13,-0.86,0.95,13.79,83.19,-48.28
2026-07-27 13:31:13.707,0.13,-0.86,0.95,13.79,83.19,-48.28
2026-07-27 13:31:13.740,0.19,-0.96,1.02,18.19,48.95,-25.63
2026-07-27 13:31:13.740,0.19,-0.96,1.02,18.19,48.95,-25.63
2026-07-27 13:31:14.766,-0.01,-0.8,0.94,35.46,25.09,5.68
2026-07-27 13:31:14.766,-0.01,-0.8,0.94,35.46,25.09,5.68
2026-07-27 13:31:14.768,-0.31,-0.48,0.82,48.77,5.92,25.45
2026-07-27 13:31:14.768,-0.38,-0.27,0.86,29.66,-33.02,37.6
2026-07-27 13:31:14.768,-0.38,-0.27,0.86,29.66,-33.02,37.6
2026-07-27 13:31:14.768,-0.31,-0.29,0.94,-2.81,-73.67,42.79
2026-07-27 13:31:14.768,-0.31,-0.29,0.94,-2.81,-73.67,42.79
2026-07-27 13:31:14.768,-0.3,-0.39,1.02,-8.18,-78.06,28.56
2026-07-27 13:31:14.768,-0.3,-0.39,1.02,-8.18,-78.06,28.56
2026-07-27 13:31:14.768,-0.4,-0.23,1.05,41.81,-24.29,-20.08
2026-07-27 13:31:14.768,-0.4,-0.23,1.05,41.81,-24.29,-20.08
2026-07-27 13:31:14.768,-0.52,0.1,0.95,105.96,38.15,-63.42
2026-07-27 13:31:14.827,-0.54,0.23,0.85,100.1,38.76,-49.01
2026-07-27 13:31:14.834,-0.54,0.23,0.85,100.1,38.76,-49.01
2026-07-27 13:31:14.834,-0.46,0.12,0.82,39.67,-3.78,6.77
2026-07-27 13:31:14.835,-0.46,0.12,0.82,39.67,-3.78,6.77
2026-07-27 13:31:14.835,-0.36,-0.12,0.83,-9.77,-39.86,62.99
2026-07-27 13:31:14.835,-0.36,-0.12,0.83,-9.77,-39.86,62.99
2026-07-27 13:31:14.835,-0.27,-0.41,0.86,-34.97,-62.32,99.79
2026-07-27 13:31:14.838,-0.16,-0.68,0.91,-42.54,-73.85,106.99
2026-07-27 13:31:15.030,-0.16,-0.68,0.91,-42.54,-73.85,106.99
2026-07-27 13:31:15.119,-0.04,-0.83,0.92,-41.87,-76.42,81.67
2026-07-27 13:31:15.119,-0.04,-0.83,0.92,-41.87,-76.42,81.67
2026-07-27 13:31:15.120,0.05,-0.78,0.8,-37.9,-71.59,32.41
2026-07-27 13:31:15.120,0.05,-0.78,0.8,-37.9,-71.59,32.41
2026-07-27 13:31:15.121,0.06,-0.6,0.71,-26.43,-44.49,-23.25
2026-07-27 13:31:15.122,0.06,-0.6,0.71,-26.43,-44.49,-23.25
2026-07-27 13:31:15.122,0.0,-0.47,0.77,-15.2,2.26,-62.87
2026-07-27 13:31:15.123,-0.05,-0.49,0.99,-15.44,46.08,-76.48
2026-07-27 13:31:15.124,-0.05,-0.49,0.99,-15.44,46.08,-76.48
2026-07-27 13:31:15.124,-0.05,-0.46,1.24,-18.49,78.43,-79.65
2026-07-27 13:31:15.125,-0.05,-0.46,1.24,-18.49,78.43,-79.65
2026-07-27 13:31:15.125,-0.05,-0.3,1.21,-12.94,72.51,-78.43
2026-07-27 13:31:15.125,-0.05,-0.3,1.21,-12.94,72.51,-78.43
2026-07-27 13:31:15.126,-0.06,-0.29,0.86,-16.54,7.51,-54.99
2026-07-27 13:31:15.127,-0.06,-0.29,0.86,-16.54,7.51,-54.99
2026-07-27 13:31:15.128,-0.07,-0.52,0.56,-35.22,-60.36,-22.46
2026-07-27 13:31:15.128,-0.09,-0.65,0.51,-35.89,-57.19,-25.09
2026-07-27 13:31:15.128,-0.09,-0.65,0.51,-35.89,-57.19,-25.09
2026-07-27 13:31:15.481,-0.12,-0.49,0.62,-9.28,4.46,-63.05
2026-07-27 13:31:15.482,-0.12,-0.49,0.62,-9.28,4.46,-63.05
2026-07-27 13:31:15.796,-0.12,-0.29,0.72,13.12,53.1,-86.55
2026-07-27 13:31:15.803,-0.12,-0.29,0.72,13.12,53.1,-86.55
2026-07-27 13:31:16.805,-0.07,-0.23,0.78,14.89,61.04,-69.89
2026-07-27 13:31:16.805,-0.07,-0.23,0.78,14.89,61.04,-69.89
2026-07-27 13:31:16.806,0.01,-0.28,0.84,7.57,50.23,-31.74
2026-07-27 13:31:16.806,0.01,-0.28,0.84,0.55,36.56,5.07
2026-07-27 13:31:16.806,0.08,-0.37,0.87,0.55,36.56,5.07
2026-07-27 13:31:16.806,0.13,-0.45,0.87,-1.4,23.5,32.29
2026-07-27 13:31:16.983,0.13,-0.45,0.87,-1.4,23.5,32.29
2026-07-27 13:31:16.990,0.15,-0.47,0.88,4.21,16.66,50.54
2026-07-27 13:31:16.990,0.15,-0.47,0.88,4.21,16.66,50.54
2026-07-27 13:31:16.990,0.14,-0.46,0.96,12.51,16.48,59.33
2026-07-27 13:31:16.990,0.14,-0.46,0.96,12.51,16.48,59.33
2026-07-27 13:31:16.990,0.11,-0.47,1.09,16.48,14.22,58.72
2026-07-27 13:31:16.990,0.11,-0.47,1.09,15.32,2.69,51.82
2026-07-27 13:31:16.991,0.07,-0.5,1.18,15.32,2.69,51.82
2026-07-27 13:31:16.991,-0.02,-0.53,1.22,14.16,-11.54,42.79
2026-07-27 13:31:16.991,-0.02,-0.53,1.22,14.16,-11.54,42.79
2026-07-27 13:31:16.991,-0.12,-0.49,1.24,10.31,-18.86,34.18
2026-07-27 13:31:16.991,-0.12,-0.49,1.24,10.31,-18.86,34.18
2026-07-27 13:31:16.991,-0.18,-0.36,1.14,0.67,-29.11,28.56
2026-07-27 13:31:16.991,-0.18,-0.36,1.14,-6.35,-50.72,30.33
2026-07-27 13:31:16.991,-0.18,-0.22,0.88,-6.35,-50.72,30.33
2026-07-27 13:31:16.991,-0.17,-0.16,0.69,-10.07,-67.75,38.64
2026-07-27 13:31:16.991,-0.17,-0.16,0.69,-10.07,-67.75,38.64
2026-07-27 13:31:16.992,-0.17,-0.2,0.77,-15.56,-63.35,45.41
2026-07-27 13:31:16.992,-0.17,-0.2,0.77,-15.56,-63.35,45.41
2026-07-27 13:31:16.992,-0.17,-0.26,0.98,-18.49,-48.28,44.68
2026-07-27 13:31:16.992,-0.17,-0.26,0.98,-18.49,-48.28,44.68
2026-07-27 13:31:16.992,-0.17,-0.29,1.04,-15.2,-47.06,39.98
2026-07-27 13:31:16.992,-0.17,-0.29,1.04,-10.31,-60.42,37.48
2026-07-27 13:31:16.996,-0.17,-0.33,0.94,-10.31,-60.42,37.48
2026-07-27 13:31:16.997,-0.17,-0.37,0.8,-8.12,-69.82,35.89
2026-07-27 13:31:16.997,-0.17,-0.37,0.8,-8.12,-69.82,35.89
2026-07-27 13:31:16.997,-0.18,-0.39,0.7,-7.39,-66.41,31.31
2026-07-27 13:31:16.997,-0.18,-0.39,0.7,-7.39,-66.41,31.31
2026-07-27 13:31:16.998,-0.19,-0.4,0.64,-5.49,-51.76,25.15
2026-07-27 13:31:16.998,-0.19,-0.4,0.64,-5.49,-51.76,25.15
2026-07-27 13:31:16.998,-0.2,-0.42,0.65,-2.08,-27.71,20.94
2026-07-27 13:31:16.998,-0.2,-0.42,0.65,-2.08,-27.71,20.94
2026-07-27 13:31:16.998,-0.21,-0.45,0.7,0.37,0.98,21.24
2026-07-27 13:31:16.999,-0.18,-0.5,0.79,-1.59,27.53,25.94
2026-07-27 13:31:16.999,-0.18,-0.5,0.79,-1.59,27.53,25.94
2026-07-27 13:31:16.999,-0.1,-0.6,0.92,-10.93,47.24,32.65
2026-07-27 13:31:17.000,-0.1,-0.6,0.92,-10.93,47.24,32.65
2026-07-27 13:31:17.001,-0.0,-0.75,1.0,-24.11,53.83,35.28
2026-07-27 13:31:17.002,-0.0,-0.75,1.0,-24.11,53.83,35.28
2026-07-27 13:31:17.002,0.06,-0.86,1.02,-34.48,51.27,25.57
2026-07-27 13:31:17.003,0.06,-0.86,1.02,-34.48,51.27,25.57
2026-07-27 13:31:17.003,0.1,-0.82,1.07,-33.2,53.47,-1.46
2026-07-27 13:31:17.121,0.1,-0.82,1.07,-15.38,43.46,-35.1
2026-07-27 13:31:17.523,0.07,-0.68,0.98,-15.38,43.46,-35.1
2026-07-27 13:31:17.523,-0.03,-0.63,0.77,-4.15,6.47,-57.25
2026-07-27 13:31:17.523,-0.03,-0.63,0.77,-4.15,6.47,-57.25
2026-07-27 13:31:17.523,-0.14,-0.65,0.64,-9.03,-18.37,-74.34
2026-07-27 13:31:17.524,-0.14,-0.65,0.64,-9.03,-18.37,-74.34
2026-07-27 13:31:17.524,-0.2,-0.55,0.64,-1.46,3.42,-102.29
2026-07-27 13:31:17.524,-0.2,-0.55,0.64,-1.46,3.42,-102.29
2026-07-27 13:31:17.525,-0.22,-0.35,0.69,23.38,46.81,-127.44
2026-07-27 13:31:17.525,-0.22,-0.35,0.69,23.38,46.81,-127.44
2026-07-27 13:31:18.660,-0.19,-0.21,0.74,40.41,71.11,-125.24
2026-07-27 13:31:18.661,-0.13,-0.17,0.78,40.47,71.66,-96.44
2026-07-27 13:31:18.664,-0.13,-0.17,0.78,40.47,71.66,-96.44
2026-07-27 13:31:18.664,-0.01,-0.16,1.05,18.25,-36.5,69.46
2026-07-27 13:31:18.664,-0.38,-0.5,0.59,-110.9,-5.55,-83.19
2026-07-27 13:31:18.668,-0.34,-0.62,0.59,-145.63,8.06,-65.73
2026-07-27 13:31:18.669,-0.34,-0.62,0.59,-145.63,8.06,-65.73
2026-07-27 13:31:18.669,-0.24,-0.75,0.67,-145.08,29.24,-31.37
2026-07-27 13:31:18.669,0.06,-0.91,1.07,-47.61,149.29,-38.15
2026-07-27 13:31:18.669,0.06,-0.91,1.07,-47.61,149.29,-38.15
2026-07-27 13:31:18.672,0.09,-0.66,1.09,6.77,195.68,-81.3
2026-07-27 13:31:18.673,0.09,-0.66,1.09,6.77,195.68,-81.3
2026-07-27 13:31:18.673,-0.0,-0.44,0.91,52.8,185.61,-98.27
2026-07-27 13:31:18.673,-0.08,-0.44,0.66,57.5,112.73,-70.56
2026-07-27 13:31:18.673,-0.08,-0.44,0.66,57.5,112.73,-70.56
2026-07-27 13:31:18.673,-0.05,-0.56,0.56,38.88,43.7,-28.69
2026-07-27 13:31:18.673,-0.05,-0.56,0.56,38.88,43.7,-28.69
2026-07-27 13:31:18.673,-0.02,-0.61,0.6,37.35,31.19,-7.32
2026-07-27 13:31:18.674,-0.03,-0.6,0.66,49.32,48.16,-3.72
2026-07-27 13:31:18.674,-0.03,-0.6,0.66,49.32,48.16,-3.72
2026-07-27 13:31:19.204,-0.04,-0.64,0.63,43.7,45.23,0.92
2026-07-27 13:31:19.207,-0.04,-0.64,0.63,43.7,45.23,0.92
2026-07-27 13:31:19.210,0.03,-0.72,0.51,11.05,12.08,11.23
2026-07-27 13:31:19.215,0.03,-0.72,0.51,11.05,12.08,11.23
2026-07-27 13:31:19.237,0.11,-0.77,0.41,-41.14,-15.93,14.34
2026-07-27 13:31:19.238,0.11,-0.77,0.41,-41.14,-15.93,14.34
2026-07-27 13:31:19.238,0.07,-0.83,0.43,-97.23,2.14,2.87
2026-07-27 13:31:19.238,0.07,-0.83,0.43,-97.23,2.14,2.87
2026-07-27 13:31:19.238,-0.02,-0.88,0.55,-114.38,46.39,-2.69
2026-07-27 13:31:19.238,-0.03,-0.93,0.62,-88.38,68.18,13.18
2026-07-27 13:31:19.238,-0.03,-0.93,0.62,-88.38,68.18,13.18
2026-07-27 13:31:19.263,-0.0,-0.98,0.57,-54.87,57.92,33.87
2026-07-27 13:31:19.264,-0.0,-0.98,0.57,-54.87,57.92,33.87
2026-07-27 13:31:19.264,-0.01,-0.96,0.49,-11.05,30.76,38.09
2026-07-27 13:31:19.505,-0.01,-0.96,0.49,-11.05,30.76,38.09
2026-07-27 13:31:19.992,-0.17,-0.94,0.46,27.53,12.39,32.78
2026-07-27 13:31:20.026,-0.17,-0.94,0.46,27.53,12.39,32.78
2026-07-27 13:31:20.027,-0.4,-1.0,0.54,32.35,6.35,33.08
2026-07-27 13:31:20.027,-0.55,-1.04,0.6,30.09,-4.03,22.52
2026-07-27 13:31:20.027,-0.55,-1.04,0.6,30.09,-4.03,22.52
2026-07-27 13:31:20.028,-0.61,-0.99,0.52,37.66,-27.16,-8.0
2026-07-27 13:31:20.028,-0.61,-0.99,0.52,37.66,-27.16,-8.0
2026-07-27 13:31:20.028,-0.6,-0.84,0.38,50.29,-59.02,-35.77
2026-07-27 13:31:20.029,-0.6,-0.84,0.38,50.29,-59.02,-35.77
2026-07-27 13:31:20.286,-0.49,-0.62,0.34,70.43,-91.8,-34.48
2026-07-27 13:31:20.286,-0.49,-0.62,0.34,70.43,-91.8,-34.48
2026-07-27 13:31:20.287,-0.34,-0.46,0.39,71.35,-95.4,-20.63
2026-07-27 13:31:20.287,-0.34,-0.46,0.39,39.73,-51.03,-16.72
2026-07-27 13:31:20.287,-0.25,-0.43,0.42,39.73,-51.03,-16.72
2026-07-27 13:31:20.289,-0.18,-0.46,0.43,-1.95,0.49,-15.81
2026-07-27 13:31:20.289,-0.18,-0.46,0.43,-1.95,0.49,-15.81
2026-07-27 13:31:20.290,-0.15,-0.58,0.47,-46.2,34.97,-18.31
2026-07-27 13:31:20.290,-0.15,-0.58,0.47,-46.2,34.97,-18.31
2026-07-27 13:31:20.290,-0.18,-0.77,0.55,-82.15,56.7,-16.72
2026-07-27 13:31:20.290,-0.18,-0.77,0.55,-82.15,56.7,-16.72
2026-07-27 13:31:20.291,-0.25,-0.94,0.61,-92.65,68.97,-8.12
2026-07-27 13:31:20.291,-0.25,-0.94,0.61,-92.65,68.97,-8.12
2026-07-27 13:31:20.291,-0.33,-0.99,0.59,-85.63,71.47,-3.66
2026-07-27 13:31:20.291,-0.36,-0.97,0.52,-78.43,66.41,-7.63
2026-07-27 13:31:20.293,-0.36,-0.97,0.52,-78.43,66.41,-7.63
2026-07-27 13:31:20.293,-0.31,-1.0,0.49,-80.38,60.12,-12.76
2026-07-27 13:31:20.293,-0.31,-1.0,0.49,-80.38,60.12,-12.76
2026-07-27 13:31:20.293,0.21,-0.8,0.42,57.92,12.08,-36.99
2026-07-27 13:31:20.293,0.21,-0.8,0.42,57.92,12.08,-36.99
2026-07-27 13:31:20.293,0.16,-0.77,0.54,51.03,22.58,-32.59
2026-07-27 13:31:20.293,0.16,-0.77,0.54,56.03,28.87,-23.8
2026-07-27 13:31:20.293,0.07,-0.86,0.68,56.03,28.87,-23.8
2026-07-27 13:31:20.293,-0.04,-0.9,0.73,65.31,28.44,-10.74
2026-07-27 13:31:20.294,-0.04,-0.9,0.73,65.31,28.44,-10.74
2026-07-27 13:31:20.294,-0.21,-0.92,0.65,66.83,24.05,3.54
2026-07-27 13:31:20.294,-0.21,-0.92,0.65,66.83,24.05,3.54
2026-07-27 13:31:20.294,-0.34,-1.11,0.67,37.84,18.92,18.86
2026-07-27 13:31:20.294,-0.34,-1.11,0.67,37.84,18.92,18.86
2026-07-27 13:31:20.295,-0.35,-1.21,0.82,1.95,8.67,17.7
2026-07-27 13:31:20.296,-0.35,-1.21,0.82,1.95,8.67,17.7
2026-07-27 13:31:20.298,-0.33,-0.99,0.77,-2.62,-21.67,0.98
2026-07-27 13:31:20.299,-0.3,-0.7,0.45,-0.06,-74.65,-5.0
2026-07-27 13:31:20.299,-0.3,-0.7,0.45,-0.06,-74.65,-5.0
2026-07-27 13:31:20.299,-0.24,-0.61,0.22,-15.26,-110.9,2.44
2026-07-27 13:31:20.299,-0.24,-0.61,0.22,-15.26,-110.9,2.44
2026-07-27 13:31:20.302,-0.19,-0.66,0.22,-26.31,-95.76,5.68
2026-07-27 13:31:20.302,-0.19,-0.66,0.22,-26.31,-95.76,5.68
2026-07-27 13:31:20.302,-0.14,-0.71,0.5,-7.81,17.64,-18.37
2026-07-27 13:31:20.302,-0.11,-0.74,0.61,0.06,38.7,-19.65
2026-07-27 13:31:20.302,-0.11,-0.74,0.61,0.06,38.7,-19.65
2026-07-27 13:31:20.303,-0.06,-0.77,0.68,11.6,45.1,-22.52
2026-07-27 13:31:20.303,-0.06,-0.77,0.68,11.6,45.1,-22.52
2026-07-27 13:31:20.303,-0.04,-0.77,0.71,30.46,43.64,-28.08
2026-07-27 13:31:20.304,-0.04,-0.77,0.71,30.46,43.64,-28.08
2026-07-27 13:31:20.305,-0.05,-0.77,0.78,49.5,44.56,-27.65
2026-07-27 13:31:20.305,-0.08,-0.8,0.88,60.49,43.03,-15.62
2026-07-27 13:31:20.309,-0.08,-0.8,0.88,60.49,43.03,-15.62
2026-07-27 13:31:20.309,-0.12,-0.79,0.96,77.21,27.71,22.34
2026-07-27 13:31:20.309,-0.12,-0.79,0.96,77.21,27.71,22.34
2026-07-27 13:31:20.309,-0.14,-0.7,0.96,127.56,-20.14,93.44
2026-07-27 13:31:20.309,-0.14,-0.7,0.96,127.56,-20.14,93.44
2026-07-27 13:31:20.309,-0.19,0.19,0.88,-20.45,-0.79,-13.67
2026-07-27 13:31:20.310,-0.15,0.13,0.91,-91.31,-33.45,-4.15
2026-07-27 13:31:20.310,-0.16,0.03,1.02,-141.66,-48.28,-6.84
2026-07-27 13:31:20.310,-0.16,0.03,1.02,-141.66,-48.28,-6.84
2026-07-27 13:31:20.310,-0.17,-0.08,1.2,-182.68,-74.34,-16.97
2026-07-27 13:31:20.311,-0.17,-0.08,1.2,-182.68,-74.34,-16.97
2026-07-27 13:31:20.311,-0.14,-0.16,1.39,-186.28,-94.12,-26.12
2026-07-27 13:31:20.312,-0.14,-0.16,1.39,-186.28,-94.12,-26.12
2026-07-27 13:31:20.313,-0.08,-0.19,1.41,-137.02,-77.64,-26.31
2026-07-27 13:31:20.313,-0.08,-0.19,1.41,-137.02,-77.64,-26.31
2026-07-27 13:31:20.316,-0.1,-0.19,0.93,10.07,-32.17,52.0
2026-07-27 13:31:21.843,-0.11,-0.2,1.07,33.69,-36.87,75.87
2026-07-27 13:31:21.846,-0.11,-0.2,1.07,33.69,-36.87,75.87
2026-07-27 13:31:21.849,-0.12,-0.06,1.04,98.82,-10.07,103.15
2026-07-27 13:31:21.852,-0.15,0.13,0.87,149.48,26.92,115.48
2026-07-27 13:31:22.144,-0.15,0.13,0.87,149.48,26.92,115.48
2026-07-27 13:31:22.197,-0.19,0.19,0.8,105.22,22.03,87.71
2026-07-27 13:31:22.198,-0.19,0.19,0.8,105.22,22.03,87.71
2026-07-27 13:31:22.198,-0.24,0.15,0.78,19.96,-9.83,46.69
2026-07-27 13:31:22.198,-0.24,0.15,0.78,19.96,-9.83,46.69
2026-07-27 13:31:22.198,-0.27,0.08,0.75,-36.8,-36.07,25.82
2026-07-27 13:31:22.198,-0.28,0.01,0.71,-56.21,-42.79,21.55
2026-07-27 13:31:22.199,-0.28,0.01,0.71,-56.21,-42.79,21.55
2026-07-27 13:31:22.200,-0.29,-0.03,0.69,-60.79,-33.51,13.12
2026-07-27 13:31:22.213,-0.29,-0.03,0.69,-60.79,-33.51,13.12
2026-07-27 13:31:22.236,-0.29,-0.07,0.76,-74.77,-31.62,-13.18
2026-07-27 13:31:22.236,-0.29,-0.07,0.76,-74.77,-31.62,-13.18
2026-07-27 13:31:22.236,-0.27,-0.09,0.91,-95.21,-39.55,-40.1
2026-07-27 13:31:22.237,-0.27,-0.09,0.91,-113.28,-35.22,-26.25
2026-07-27 13:31:22.237,-0.23,-0.15,1.0,-113.28,-35.22,-26.25
2026-07-27 13:31:22.251,-0.14,-0.38,1.02,-134.58,-9.4,-0.12
2026-07-27 13:31:22.252,-0.14,-0.38,1.02,-134.58,-9.4,-0.12
2026-07-27 13:31:22.253,0.02,-0.65,1.1,-133.3,21.97,-21.06
2026-07-27 13:31:22.253,0.02,-0.65,1.1,-133.3,21.97,-21.06
2026-07-27 13:31:22.253,0.16,-0.73,1.07,-87.04,24.96,-49.5
2026-07-27 13:31:22.253,0.16,-0.73,1.07,-87.04,24.96,-49.5
2026-07-27 13:31:22.253,0.25,-0.71,0.87,-41.56,-26.49,-25.51
2026-07-27 13:31:22.254,0.36,-0.78,0.69,-32.9,-82.64,18.49
2026-07-27 13:31:22.254,0.36,-0.78,0.69,-32.9,-82.64,18.49
2026-07-27 13:31:22.254,0.39,-0.84,0.66,-27.47,-70.07,20.57
2026-07-27 13:31:22.254,0.39,-0.84,0.66,-27.47,-70.07,20.57
2026-07-27 13:31:22.254,0.32,-0.72,0.71,-1.04,-14.04,-19.35
2026-07-27 13:31:22.254,0.32,-0.72,0.71,-1.04,-14.04,-19.35
2026-07-27 13:31:22.254,0.2,-0.51,0.75,27.04,23.32,-51.33
2026-07-27 13:31:22.254,0.2,-0.51,0.75,27.04,23.32,-51.33
2026-07-27 13:31:22.254,0.12,-0.39,0.77,40.28,26.25,-50.23
2026-07-27 13:31:22.255,0.07,-0.37,0.79,41.69,10.68,-37.17
2026-07-27 13:31:22.261,0.07,-0.37,0.79,41.69,10.68,-37.17
2026-07-27 13:31:22.261,0.03,-0.4,0.76,38.45,-10.56,-22.4
2026-07-27 13:31:22.261,0.03,-0.4,0.76,38.45,-10.56,-22.4
2026-07-27 13:31:22.261,0.01,-0.45,0.72,30.09,-25.76,-2.62
2026-07-27 13:31:22.261,0.01,-0.45,0.72,30.09,-25.76,-2.62
2026-07-27 13:31:22.262,0.02,-0.51,0.72,20.81,-21.06,17.09
2026-07-27 13:31:22.262,0.02,-0.51,0.72,15.75,2.26,27.83
2026-07-27 13:31:22.262,0.1,-0.55,0.77,15.75,2.26,27.83
2026-07-27 13:31:22.262,0.24,-0.5,0.86,16.72,31.25,23.19
2026-07-27 13:31:22.262,0.24,-0.5,0.86,16.72,31.25,23.19
2026-07-27 13:31:22.262,0.34,-0.36,0.92,28.08,55.91,7.75
2026-07-27 13:31:22.262,0.34,-0.36,0.92,28.08,55.91,7.75
2026-07-27 13:31:22.262,0.35,-0.21,1.02,43.09,69.7,-0.12
2026-07-27 13:31:22.262,0.35,-0.21,1.02,43.09,69.7,-0.12
2026-07-27 13:31:22.262,0.39,-0.23,1.31,27.89,60.67,26.31
2026-07-27 13:31:22.262,0.39,-0.23,1.31,27.89,60.67,26.31
2026-07-27 13:31:22.262,0.46,-0.46,1.53,-25.76,11.6,77.15
2026-07-27 13:31:22.263,0.38,-0.66,1.34,-63.05,-60.55,93.75
2026-07-27 13:31:22.263,0.38,-0.66,1.34,-63.05,-60.55,93.75
2026-07-27 13:31:22.263,0.19,-0.66,0.96,-48.4,-101.68,49.07
2026-07-27 13:31:22.263,0.19,-0.66,0.96,-48.4,-101.68,49.07
2026-07-27 13:31:22.263,0.05,-0.53,0.79,-15.56,-90.21,-18.01
2026-07-27 13:31:22.263,0.05,-0.53,0.79,-15.56,-90.21,-18.01
2026-07-27 13:31:22.265,0.01,-0.39,0.85,-1.4,-65.92,-58.23
2026-07-27 13:31:22.265,0.01,-0.39,0.85,-1.4,-65.92,-58.23
2026-07-27 13:31:22.265,0.12,-0.37,0.76,-5.13,-75.44,-26.18
2026-07-27 13:31:22.265,0.12,-0.37,0.76,-5.13,-75.44,-26.18
2026-07-27 13:31:22.274,0.09,-0.39,0.73,-0.67,-42.85,-19.59
2026-07-27 13:31:22.274,0.09,-0.39,0.73,3.36,-13.24,-11.9
2026-07-27 13:31:22.274,0.63,-0.39,0.75,-16.78,118.41,-113.71
2026-07-27 13:31:22.274,0.63,-0.39,0.75,-16.78,118.41,-113.71
2026-07-27 13:31:22.274,0.43,-0.19,0.62,-6.59,118.9,-138.12
2026-07-27 13:31:22.274,0.43,-0.19,0.62,-6.59,118.9,-138.12
2026-07-27 13:31:22.274,0.29,-0.09,0.59,-7.39,84.35,-121.83
2026-07-27 13:31:22.621,0.35,-0.11,0.77,-16.85,48.58,-86.67
2026-07-27 13:31:22.690,0.35,-0.11,0.77,-16.85,48.58,-86.67
2026-07-27 13:31:23.167,0.53,-0.16,1.0,-12.33,42.72,-71.11
2026-07-27 13:31:23.177,0.53,-0.16,1.0,-12.33,42.72,-71.11
2026-07-27 13:31:23.190,0.58,-0.19,1.01,8.06,42.42,-75.38
2026-07-27 13:31:23.200,0.58,-0.19,1.01,8.06,42.42,-75.38
2026-07-27 13:31:23.209,0.45,-0.17,0.84,16.72,17.09,-67.2
2026-07-27 13:31:23.400,0.45,-0.17,0.84,16.72,17.09,-67.2
2026-07-27 13:31:23.403,0.29,-0.13,0.73,6.04,-14.47,-35.58
2026-07-27 13:31:23.404,0.28,-0.13,0.75,-3.3,-24.84,3.85
2026-07-27 13:31:23.404,0.28,-0.13,0.75,-3.3,-24.84,3.85
2026-07-27 13:31:23.404,0.38,-0.14,0.85,2.69,-15.38,32.53
2026-07-27 13:31:24.124,0.38,-0.14,0.85,2.69,-15.38,32.53
2026-07-27 13:31:24.124,0.51,-0.16,0.94,17.52,-1.46,46.08
2026-07-27 13:31:24.124,0.51,-0.16,0.94,17.52,-1.46,46.08
2026-07-27 13:31:24.124,0.66,-0.23,1.0,27.89,2.26,51.94
2026-07-27 13:31:24.126,0.66,-0.23,1.0,27.89,2.26,51.94
2026-07-27 13:31:24.126,0.73,-0.29,1.03,30.21,-7.08,49.07
2026-07-27 13:31:24.127,0.53,-0.21,1.09,30.7,-12.88,32.71
2026-07-27 13:31:24.127,0.53,-0.21,1.09,30.7,-12.88,32.71
2026-07-27 13:31:24.127,0.2,-0.04,1.21,29.54,-4.52,21.61
2026-07-27 13:31:24.420,0.2,-0.04,1.21,29.54,-4.52,21.61
2026-07-27 13:31:24.423,0.02,0.04,1.21,21.48,-11.41,50.66
2026-07-27 13:31:24.425,0.02,0.04,1.21,21.48,-11.41,50.66
2026-07-27 13:31:24.488,0.01,-0.04,0.97,17.82,-44.25,109.74
2026-07-27 13:31:24.489,0.01,-0.04,0.97,19.29,-71.04,154.6
2026-07-27 13:31:24.494,0.07,-0.19,0.73,19.29,-71.04,154.6
2026-07-27 13:31:24.495,0.18,-0.31,0.72,9.4,-74.22,163.45
2026-07-27 13:31:24.495,0.18,-0.31,0.72,9.4,-74.22,163.45
2026-07-27 13:31:24.495,0.29,-0.33,0.85,-5.98,-58.78,138.37
2026-07-27 13:31:24.495,0.29,-0.33,0.85,-5.98,-58.78,138.37
2026-07-27 13:31:24.495,0.32,-0.3,0.94,-12.57,-39.98,98.75
2026-07-27 13:31:24.496,0.32,-0.3,0.94,-12.57,-39.98,98.75
2026-07-27 13:31:24.496,0.31,-0.26,0.95,-13.43,-29.79,65.12
2026-07-27 13:31:24.497,0.31,-0.26,0.95,-15.99,-25.57,41.14
2026-07-27 13:31:24.497,0.28,-0.24,0.94,-15.99,-25.57,41.14
2026-07-27 13:31:24.497,0.26,-0.25,0.98,-20.69,-19.96,21.85
2026-07-27 13:31:24.498,0.26,-0.25,0.98,-20.69,-19.96,21.85
2026-07-27 13:31:24.498,0.25,-0.27,1.04,-24.11,-12.94,5.49
2026-07-27 13:31:24.498,0.25,-0.27,1.04,-24.11,-12.94,5.49
2026-07-27 13:31:24.499,0.24,-0.26,1.03,-18.98,-8.85,-7.45
2026-07-27 13:31:24.499,0.19,-0.21,0.94,-4.03,-3.11,-17.03
2026-07-27 13:31:24.499,0.19,-0.21,0.94,-4.03,-3.11,-17.03
2026-07-27 13:31:24.499,0.14,-0.1,0.85,15.62,12.82,-20.57
2026-07-27 13:31:24.499,0.14,-0.1,0.85,15.62,12.82,-20.57
2026-07-27 13:31:24.499,0.13,-0.01,0.83,33.08,33.39,-10.31
2026-07-27 13:31:24.499,0.13,-0.01,0.83,33.08,33.39,-10.31
2026-07-27 13:31:24.500,0.17,-0.01,0.9,39.31,41.26,20.51
2026-07-27 13:31:24.500,0.17,-0.01,0.9,39.31,41.26,20.51
2026-07-27 13:31:24.500,0.25,-0.12,1.0,29.91,28.87,66.53
2026-07-27 13:31:24.500,0.25,-0.12,1.0,29.91,28.87,66.53
2026-07-27 13:31:24.502,0.3,-0.23,1.07,16.78,8.73,107.48
2026-07-27 13:31:24.502,0.26,-0.28,1.04,16.48,-8.54,132.51
2026-07-27 13:31:24.988,0.26,-0.28,1.04,16.48,-8.54,132.51
2026-07-27 13:31:24.988,0.14,-0.36,0.96,22.03,-32.9,155.4
2026-07-27 13:31:24.989,0.14,-0.36,0.96,22.03,-32.9,155.4
2026-07-27 13:31:24.989,0.04,-0.57,0.94,14.16,-73.0,188.6
2026-07-27 13:31:24.990,0.04,-0.57,0.94,14.16,-73.0,188.6
2026-07-27 13:31:24.990,0.07,-0.83,0.97,-11.11,-117.19,218.81
2026-07-27 13:31:25.627,0.13,-0.88,0.92,-31.74,-144.9,217.77
2026-07-27 13:31:25.641,0.13,-0.88,0.92,-31.74,-144.9,217.77
2026-07-27 13:31:25.642,0.1,-0.68,0.72,-21.55,-140.75,180.24
2026-07-27 13:31:25.642,0.1,-0.68,0.72,-21.55,-140.75,180.24
2026-07-27 13:31:25.642,0.04,-0.47,0.51,5.55,-111.45,139.77
2026-07-27 13:31:25.642,0.04,-0.47,0.51,5.55,-111.45,139.77
2026-07-27 13:31:25.642,0.03,-0.39,0.49,14.1,-77.09,124.21
2026-07-27 13:31:25.642,0.03,-0.39,0.49,14.1,-77.09,124.21
2026-07-27 13:31:25.642,0.12,-0.43,0.69,2.2,-48.03,127.99
2026-07-27 13:31:25.642,0.22,-0.5,0.95,-8.67,-30.52,132.02
2026-07-27 13:31:25.643,0.22,-0.5,0.95,-8.67,-30.52,132.02
2026-07-27 13:31:25.643,0.24,-0.5,1.05,-7.26,-33.14,127.62
2026-07-27 13:31:25.643,0.24,-0.5,1.05,-7.26,-33.14,127.62
2026-07-27 13:31:25.643,0.19,-0.46,1.01,0.67,-54.14,119.14
2026-07-27 13:31:25.643,0.19,-0.46,1.01,0.67,-54.14,119.14
2026-07-27 13:31:25.643,0.03,-0.14,1.06,74.71,-61.89,70.86
2026-07-27 13:31:25.643,0.03,-0.14,1.06,74.71,-61.89,70.86
2026-07-27 13:31:25.643,0.07,-0.09,1.11,96.68,-40.65,77.88
2026-07-27 13:31:25.644,0.07,-0.09,1.11,96.68,-40.65,77.88
2026-07-27 13:31:25.644,0.11,-0.08,1.26,109.68,-22.52,86.79
2026-07-27 13:31:25.644,0.12,-0.14,1.49,96.5,-17.88,98.75
2026-07-27 13:31:25.644,0.12,-0.14,1.49,96.5,-17.88,98.75
2026-07-27 13:31:25.649,0.04,-0.18,1.52,86.43,-9.89,110.78
2026-07-27 13:31:25.649,0.04,-0.18,1.52,86.43,-9.89,110.78
2026-07-27 13:31:25.673,-0.19,0.09,0.79,70.92,34.24,133.73
2026-07-27 13:31:25.687,-0.01,0.03,0.8,3.78,-46.02,124.51
2026-07-27 13:31:25.687,-0.01,0.03,0.8,3.78,-46.02,124.51
2026-07-27 13:31:25.698,0.14,-0.04,0.88,-29.79,-100.22,100.22
2026-07-27 13:31:25.699,0.14,-0.04,0.88,-29.79,-100.22,100.22
2026-07-27 13:31:25.699,0.19,-0.12,0.91,-33.45,-114.14,70.56
2026-07-27 13:31:25.699,0.19,-0.12,0.91,-33.45,-114.14,70.56
2026-07-27 13:31:25.699,0.16,-0.23,0.95,-21.18,-93.99,38.57
2026-07-27 13:31:25.699,0.02,-0.3,1.02,5.25,-52.0,0.49
2026-07-27 13:31:25.699,0.02,-0.3,1.02,5.25,-52.0,0.49
2026-07-27 13:31:25.699,-0.22,-0.24,1.04,22.09,-19.59,-32.17
2026-07-27 13:31:25.699,-0.22,-0.24,1.04,22.09,-19.59,-32.17
2026-07-27 13:31:25.700,-0.35,-0.12,1.06,13.55,-14.1,-40.59
2026-07-27 13:31:25.700,-0.35,-0.12,1.06,13.55,-14.1,-40.59
2026-07-27 13:31:26.169,-0.25,-0.04,1.05,6.59,-22.95,-18.49
2026-07-27 13:31:26.209,-0.25,-0.04,1.05,6.59,-22.95,-18.49
2026-07-27 13:31:26.229,-0.05,-0.04,0.97,14.71,-35.52,19.53
2026-07-27 13:31:26.238,-0.05,-0.04,0.97,14.71,-35.52,19.53
2026-07-27 13:31:26.255,0.1,-0.05,0.87,26.31,-47.18,49.56
2026-07-27 13:31:26.255,0.12,-0.05,0.79,34.79,-51.03,60.61
2026-07-27 13:31:26.256,0.12,-0.05,0.79,34.79,-51.03,60.61
2026-07-27 13:31:26.256,0.08,-0.03,0.74,41.02,-44.25,57.8
2026-07-27 13:31:26.256,0.08,-0.03,0.74,41.02,-44.25,57.8
2026-07-27 13:31:26.256,0.07,-0.0,0.73,47.3,-30.4,54.81
2026-07-27 13:31:26.256,0.07,-0.0,0.73,47.3,-30.4,54.81
2026-07-27 13:31:26.256,0.16,0.01,0.74,53.34,-15.01,56.27
2026-07-27 13:31:26.256,0.16,0.01,0.74,55.66,-1.89,56.03
2026-07-27 13:31:26.256,0.27,0.04,0.76,55.66,-1.89,56.03
2026-07-27 13:31:26.256,0.29,0.09,0.84,47.73,8.91,56.76
2026-07-27 13:31:26.256,0.29,0.09,0.84,47.73,8.91,56.76
2026-07-27 13:31:26.256,0.23,0.16,1.01,36.19,23.01,61.83
2026-07-27 13:31:26.256,0.23,0.16,1.01,36.19,23.01,61.83
2026-07-27 13:31:26.256,0.18,0.32,1.18,35.16,46.45,68.48
2026-07-27 13:31:26.256,0.18,0.32,1.18,47.73,75.68,85.51
2026-07-27 13:31:26.256,0.22,0.5,1.23,47.73,75.68,85.51
2026-07-27 13:31:26.256,0.25,0.58,1.17,68.12,99.91,118.77
2026-07-27 13:31:26.256,0.25,0.58,1.17,68.12,99.91,118.77
2026-07-27 13:31:26.259,0.2,0.51,1.08,72.39,100.95,145.94
2026-07-27 13:31:26.260,0.19,0.27,1.02,29.48,50.78,145.45
2026-07-27 13:31:26.260,0.21,0.18,1.04,0.49,42.42,151.49
2026-07-27 13:31:26.260,0.21,0.18,1.04,0.49,42.42,151.49
2026-07-27 13:31:26.260,0.2,-0.02,1.05,-74.04,27.95,160.22
2026-07-27 13:31:26.260,0.2,-0.02,1.05,-74.04,27.95,160.22
2026-07-27 13:31:26.262,0.2,-0.24,1.09,-148.38,11.11,136.72
2026-07-27 13:31:26.262,0.21,-0.26,1.05,-120.24,-18.37,73.85
2026-07-27 13:31:26.262,0.21,-0.26,1.05,-120.24,-18.37,73.85
2026-07-27 13:31:26.263,0.24,-0.14,0.95,-19.04,-48.58,26.73
2026-07-27 13:31:26.263,0.24,-0.14,0.95,-19.04,-48.58,26.73
2026-07-27 13:31:26.263,0.27,-0.08,0.84,49.44,-66.16,32.96
2026-07-27 13:31:26.263,0.27,-0.08,0.84,49.44,-66.16,32.96
2026-07-27 13:31:26.263,0.24,-0.2,0.76,20.81,-58.29,85.39
2026-07-27 13:31:26.263,0.24,-0.2,0.76,20.81,-58.29,85.39
2026-07-27 13:31:26.263,0.15,-0.34,0.82,-62.07,-42.11,182.43
2026-07-27 13:31:26.263,0.08,-0.3,0.93,-91.31,-35.16,261.54
2026-07-27 13:31:26.263,0.08,-0.3,0.93,-91.31,-35.16,261.54
2026-07-27 13:31:26.263,0.02,-0.26,0.94,-62.01,-35.52,220.76
2026-07-27 13:31:26.263,0.02,-0.26,0.94,-62.01,-35.52,220.76
2026-07-27 13:31:26.267,0.03,-0.4,0.91,-41.02,-54.63,90.21
2026-07-27 13:31:26.268,0.03,-0.4,0.91,-41.02,-54.63,90.21
2026-07-27 13:31:26.268,0.12,-0.62,0.85,-62.68,-65.92,-6.16
2026-07-27 13:31:26.268,0.12,-0.62,0.85,-101.01,-46.14,2.93
2026-07-27 13:31:26.269,0.17,-0.8,0.81,-101.01,-46.14,2.93
2026-07-27 13:31:26.269,0.11,-0.84,0.75,-103.21,-15.32,89.23
2026-07-27 13:31:26.705,0.11,-0.84,0.75,-103.21,-15.32,89.23
2026-07-27 13:31:26.705,-0.01,-0.78,0.68,-79.35,15.69,167.36
2026-07-27 13:31:26.705,-0.01,-0.78,0.68,-79.35,15.69,167.36
2026-07-27 13:31:26.723,-0.09,-0.69,0.6,-48.4,35.28,189.51
2026-07-27 13:31:27.000,-0.15,-0.67,0.54,-18.74,51.64,160.03
2026-07-27 13:31:27.002,-0.15,-0.67,0.54,-18.74,51.64,160.03
2026-07-27 13:31:27.002,-0.2,-0.68,0.61,-7.93,90.27,114.38
2026-07-27 13:31:27.124,-0.2,-0.68,0.61,-7.93,90.27,114.38
2026-07-27 13:31:27.126,-0.27,-0.6,0.66,-8.91,110.66,94.79
2026-07-27 13:31:27.329,-0.27,-0.6,0.66,-8.91,110.66,94.79
2026-07-27 13:31:27.374,-0.35,-0.46,0.59,-21.85,71.47,95.64
2026-07-27 13:31:27.374,-0.52,-0.43,0.62,-31.43,16.85,84.96
2026-07-27 13:31:27.374,-0.52,-0.43,0.62,-31.43,16.85,84.96
2026-07-27 13:31:27.374,-0.64,-0.5,0.72,12.27,-25.51,58.84
2026-07-27 13:31:27.374,-0.64,-0.5,0.72,12.27,-25.51,58.84
2026-07-27 13:31:27.374,-0.49,-0.52,0.85,77.03,-88.07,30.7
2026-07-27 13:31:27.374,-0.49,-0.52,0.85,77.03,-88.07,30.7
2026-07-27 13:31:27.374,-0.3,-0.43,0.88,71.78,-127.75,19.23
2026-07-27 13:31:27.374,-0.3,-0.43,0.88,-5.49,-67.02,26.31
2026-07-27 13:31:27.375,-0.34,-0.39,0.7,-5.49,-67.02,26.31
2026-07-27 13:31:27.375,-0.44,-0.44,0.6,-40.47,2.26,42.3
2026-07-27 13:31:27.375,-0.44,-0.44,0.6,-40.47,2.26,42.3
2026-07-27 13:31:27.375,-0.43,-0.51,0.72,18.8,-35.34,47.49
2026-07-27 13:31:27.375,-0.43,-0.51,0.72,18.8,-35.34,47.49
2026-07-27 13:31:27.375,-0.29,-0.47,0.89,88.75,-117.25,38.88
2026-07-27 13:31:27.375,-0.29,-0.47,0.89,88.75,-117.25,38.88
2026-07-27 13:31:27.375,-0.17,-0.3,1.01,138.55,-164.31,64.58
2026-07-27 13:31:27.375,-0.1,-0.15,1.05,146.67,-163.76,117.86
2026-07-27 13:31:27.375,-0.1,-0.15,1.05,146.67,-163.76,117.86
2026-07-27 13:31:27.375,-0.08,-0.12,0.97,61.58,-114.2,151.61
2026-07-27 13:31:27.375,-0.08,-0.12,0.97,61.58,-114.2,151.61
2026-07-27 13:31:27.376,-0.18,-0.23,0.88,-103.27,-48.28,171.33
2026-07-27 13:31:27.376,-0.18,-0.23,0.88,-103.27,-48.28,171.33
2026-07-27 13:31:27.376,-0.27,-0.4,0.85,-215.58,22.34,164.25
2026-07-27 13:31:27.423,-0.33,-0.51,0.75,-145.14,81.18,109.31
2026-07-27 13:31:27.423,-0.33,-0.51,0.75,-145.14,81.18,109.31
2026-07-27 13:31:27.424,-0.4,-0.54,0.66,20.87,83.68,30.15
2026-07-27 13:31:27.424,-0.4,-0.54,0.66,20.87,83.68,30.15
2026-07-27 13:31:27.424,-0.39,-0.48,0.74,105.53,56.58,-41.08
2026-07-27 13:31:27.424,-0.39,-0.48,0.74,105.53,56.58,-41.08
2026-07-27 13:31:27.425,-0.32,-0.37,0.86,64.45,40.16,-75.74
2026-07-27 13:31:27.425,-0.32,-0.37,0.86,-16.66,27.47,-61.89
2026-07-27 13:31:27.425,-0.32,-0.31,0.97,-16.66,27.47,-61.89
2026-07-27 13:31:27.425,-0.35,-0.37,1.06,-63.78,17.88,-20.14
2026-07-27 13:31:27.426,-0.35,-0.37,1.06,-63.78,17.88,-20.14
2026-07-27 13:31:27.426,-0.33,-0.45,1.03,-46.26,1.89,26.43
2026-07-27 13:31:27.426,-0.33,-0.45,1.03,-46.26,1.89,26.43
2026-07-27 13:31:27.426,-0.34,-0.44,0.92,32.59,-13.49,46.45
2026-07-27 13:31:27.426,-0.39,-0.39,0.78,109.01,-9.46,24.54
2026-07-27 13:31:27.552,-0.39,-0.39,0.78,109.01,-9.46,24.54
2026-07-27 13:31:27.801,-0.39,-0.28,0.69,117.92,-1.59,1.04
2026-07-27 13:31:27.964,-0.39,-0.28,0.69,117.92,-1.59,1.04
2026-07-27 13:31:27.971,-0.34,-0.22,0.77,47.97,-16.48,5.74
2026-07-27 13:31:27.988,-0.34,-0.22,0.77,47.97,-16.48,5.74
2026-07-27 13:31:27.993,-0.26,-0.24,0.95,-32.84,-53.16,12.21
2026-07-27 13:31:28.001,-0.17,-0.25,0.99,-38.94,-72.57,-5.37
2026-07-27 13:31:28.009,-0.17,-0.25,0.99,-38.94,-72.57,-5.37
2026-07-27 13:31:28.011,-0.17,-0.24,0.91,2.5,-56.7,-28.69
2026-07-27 13:31:28.014,-0.17,-0.24,0.91,2.5,-56.7,-28.69
2026-07-27 13:31:28.023,-0.27,-0.2,0.87,22.22,-27.4,-42.72
2026-07-27 13:31:28.023,-0.27,-0.2,0.87,22.22,-27.4,-42.72
2026-07-27 13:31:28.038,-0.31,-0.18,0.96,8.97,-11.47,-48.58
2026-07-27 13:31:28.038,-0.31,-0.18,0.96,-6.77,-10.25,-41.08
2026-07-27 13:31:28.038,-0.23,-0.21,1.03,-6.77,-10.25,-41.08
2026-07-27 13:31:28.038,-0.1,-0.21,1.05,1.1,-0.37,-27.16
2026-07-27 13:31:28.038,-0.1,-0.21,1.05,1.1,-0.37,-27.16
2026-07-27 13:31:28.039,-0.04,-0.18,1.1,28.14,26.55,-22.4
2026-07-27 13:31:28.039,-0.04,-0.18,1.1,28.14,26.55,-22.4
2026-07-27 13:31:28.039,-0.05,-0.15,1.1,51.7,36.56,-27.04
2026-07-27 13:31:28.270,-0.05,-0.15,1.1,51.7,36.56,-27.04
2026-07-27 13:31:28.271,-0.04,-0.1,0.99,47.73,13.12,-38.33
2026-07-27 13:31:28.278,-0.04,-0.1,0.99,21.61,-10.44,-51.27
2026-07-27 13:31:28.278,-0.06,-0.06,0.9,21.61,-10.44,-51.27
2026-07-27 13:31:28.278,-0.13,-0.05,0.92,2.26,-8.54,-59.45
2026-07-27 13:31:28.278,-0.13,-0.05,0.92,2.26,-8.54,-59.45
2026-07-27 13:31:28.278,-0.18,-0.04,0.97,-0.49,0.31,-62.87
2026-07-27 13:31:28.278,-0.18,-0.04,0.97,-0.49,0.31,-62.87
2026-07-27 13:31:28.278,-0.2,-0.02,0.98,2.75,-1.16,-63.9
2026-07-27 13:31:28.278,-0.2,-0.02,0.98,2.75,-1.16,-63.9
2026-07-27 13:31:28.279,-0.14,0.01,0.97,-0.24,-1.04,-64.64
2026-07-27 13:31:28.279,-0.14,0.01,0.97,-0.24,-1.04,-64.64
2026-07-27 13:31:28.279,-0.14,0.01,0.97,-0.24,-1.04,-64.64
2026-07-27 13:31:28.311,-0.14,0.01,0.97,-0.24,-1.04,-64.64
2026-07-27 13:31:28.311,-0.06,-0.06,0.9,-17.82,-0.79,-43.15
2026-07-27 13:31:28.334,-0.06,-0.06,0.9,-13.98,1.95,-25.51
2026-07-27 13:31:28.334,-0.01,-0.14,0.88,-13.98,1.95,-25.51
2026-07-27 13:31:28.334,0.03,-0.25,0.92,-11.66,18.68,-7.2
2026-07-27 13:31:28.335,0.03,-0.25,0.92,-11.66,18.68,-7.2
2026-07-27 13:31:28.335,-0.04,-0.39,0.98,-22.77,43.15,13.73
2026-07-27 13:31:28.335,-0.04,-0.39,0.98,-22.77,43.15,13.73
2026-07-27 13:31:28.338,-0.13,-0.47,1.04,-36.56,64.15,27.95
2026-07-27 13:31:28.348,-0.13,-0.47,1.04,-36.56,64.15,27.95
2026-07-27 13:31:28.348,-0.15,-0.44,1.04,-35.52,66.65,27.16
2026-07-27 13:31:28.349,-0.11,-0.32,0.96,-25.21,42.79,18.13
2026-07-27 13:31:29.221,-0.11,-0.32,0.96,-25.21,42.79,18.13
2026-07-27 13:31:29.221,-0.05,-0.2,0.84,-21.0,7.45,12.76
2026-07-27 13:31:29.464,-0.05,-0.2,0.84,-21.0,7.45,12.76
2026-07-27 13:31:29.464,-0.02,-0.2,0.75,-23.32,-16.6,18.62
2026-07-27 13:31:29.464,-0.02,-0.2,0.75,-23.32,-16.6,18.62
2026-07-27 13:31:29.469,-0.06,-0.3,0.75,-20.94,-18.98,28.56
2026-07-27 13:31:29.469,-0.06,-0.3,0.75,-34.97,-12.27,26.0
2026-07-27 13:31:29.469,-0.1,-0.41,0.83,-34.97,-12.27,26.0
2026-07-27 13:31:29.469,-0.11,-0.56,0.89,-85.39,-8.42,14.22
2026-07-27 13:31:30.088,-0.11,-0.56,0.89,-85.39,-8.42,14.22
2026-07-27 13:31:30.102,-0.16,-0.68,0.87,-116.88,-7.26,5.0
2026-07-27 13:31:30.102,-0.16,-0.68,0.87,-116.88,-7.26,5.0
2026-07-27 13:31:30.102,-0.22,-0.72,0.79,-103.7,-10.62,-2.62
2026-07-27 13:31:30.115,-0.22,-0.72,0.79,-103.7,-10.62,-2.62
2026-07-27 13:31:30.115,-0.27,-0.78,0.7,-81.73,-15.01,-10.07
2026-07-27 13:31:30.116,-0.33,-0.76,0.71,-8.61,-25.27,-10.07
2026-07-27 13:31:30.425,-0.33,-0.76,0.71,-8.61,-25.27,-10.07
2026-07-27 13:31:30.432,-0.35,-0.6,0.85,104.74,-27.89,-3.17
2026-07-27 13:31:30.432,-0.35,-0.6,0.85,104.74,-27.89,-3.17
2026-07-27 13:31:30.432,-0.32,-0.39,0.96,135.74,-10.01,-3.3
2026-07-27 13:31:30.432,-0.32,-0.39,0.96,135.74,-10.01,-3.3
2026-07-27 13:31:30.432,-0.29,-0.31,0.96,61.16,9.09,-6.53
2026-07-27 13:31:30.432,-0.29,-0.31,0.96,-27.28,20.39,0.37
2026-07-27 13:31:30.432,-0.3,-0.47,0.92,-27.28,20.39,0.37
2026-07-27 13:31:30.432,-0.32,-0.64,0.86,-45.84,11.84,9.4
2026-07-27 13:31:30.432,-0.32,-0.64,0.86,-45.84,11.84,9.4
2026-07-27 13:31:30.433,-0.29,-0.62,0.78,-9.22,-16.91,4.39
2026-07-27 13:31:30.433,-0.29,-0.62,0.78,-9.22,-16.91,4.39
2026-07-27 13:31:30.433,-0.23,-0.52,0.7,18.31,-39.98,-9.52
2026-07-27 13:31:30.433,-0.23,-0.52,0.7,18.31,-39.98,-9.52
2026-07-27 13:31:30.433,-0.21,-0.44,0.66,17.52,-42.48,-19.84
2026-07-27 13:31:30.433,-0.21,-0.44,0.66,17.52,-42.48,-19.84
2026-07-27 13:31:30.433,-0.21,-0.39,0.68,5.43,-30.46,-22.34
2026-07-27 13:31:30.433,-0.23,-0.35,0.74,-6.23,-18.92,-16.36
2026-07-27 13:31:30.434,-0.23,-0.35,0.74,-6.23,-18.92,-16.36
2026-07-27 13:31:30.434,-0.28,-0.39,0.77,-16.48,-15.01,-7.08
2026-07-27 13:31:30.434,-0.28,-0.39,0.77,-16.48,-15.01,-7.08
2026-07-27 13:31:30.435,-0.34,-0.51,0.74,-16.85,-9.46,0.67
2026-07-27 13:31:30.435,-0.34,-0.51,0.74,-16.85,-9.46,0.67
2026-07-27 13:31:30.435,-0.33,-0.6,0.75,5.74,12.88,0.55
2026-07-27 13:31:30.602,-0.33,-0.6,0.75,44.07,35.03,-5.31
2026-07-27 13:31:30.605,-0.16,-0.63,0.81,44.07,35.03,-5.31
2026-07-27 13:31:30.668,0.03,-0.63,0.84,64.64,24.11,-8.61
2026-07-27 13:31:30.669,0.03,-0.63,0.84,64.64,24.11,-8.61
2026-07-27 13:31:30.671,0.1,-0.64,0.82,40.1,-4.15,-0.85
2026-07-27 13:31:30.671,0.1,-0.64,0.82,40.1,-4.15,-0.85
2026-07-27 13:31:30.725,0.07,-0.66,0.87,-0.92,-9.7,19.9
2026-07-27 13:31:30.734,0.07,-0.66,0.87,-0.92,-9.7,19.9
2026-07-27 13:31:30.734,0.01,-0.63,0.97,-12.15,2.87,40.71
2026-07-27 13:31:30.735,0.01,-0.63,0.97,-12.15,2.87,40.71
2026-07-27 13:31:30.735,-0.08,-0.61,1.0,-3.36,-2.38,48.46
2026-07-27 13:31:30.877,-0.14,-0.61,0.96,2.87,-25.88,44.19
2026-07-27 13:31:30.938,-0.14,-0.61,0.96,2.87,-25.88,44.19
2026-07-27 13:31:30.956,-0.18,-0.56,0.91,5.07,-39.31,32.23
2026-07-27 13:31:30.967,-0.18,-0.56,0.91,5.07,-39.31,32.23
2026-07-27 13:31:30.977,-0.17,-0.45,0.85,0.12,-37.78,13.12
2026-07-27 13:31:30.977,-0.17,-0.45,0.85,0.12,-37.78,13.12
2026-07-27 13:31:30.977,-0.14,-0.33,0.8,-3.11,-26.61,0.79
2026-07-27 13:31:30.977,-0.14,-0.33,0.8,-3.11,-26.61,0.79
2026-07-27 13:31:30.977,-0.15,-0.31,0.79,-0.31,-11.9,7.51
2026-07-27 13:31:30.977,-0.15,-0.31,0.79,-1.28,-3.17,20.94
2026-07-27 13:31:30.977,-0.19,-0.39,0.8,-1.28,-3.17,20.94
2026-07-27 13:31:30.978,-0.21,-0.44,0.86,-4.03,0.92,21.0
2026-07-27 13:31:30.978,-0.21,-0.44,0.86,-4.03,0.92,21.0
2026-07-27 13:31:30.978,-0.19,-0.42,0.92,-2.99,3.3,10.93
2026-07-27 13:31:30.978,-0.19,-0.42,0.92,-2.99,3.3,10.93
2026-07-27 13:31:30.978,-0.18,-0.4,0.94,-3.91,1.95,5.25
2026-07-27 13:31:30.978,-0.18,-0.4,0.94,-3.91,1.95,5.25
2026-07-27 13:31:30.978,-0.18,-0.4,0.92,-8.36,-5.49,5.31
2026-07-27 13:31:30.978,-0.18,-0.4,0.92,-8.36,-5.49,5.31
2026-07-27 13:31:31.039,-0.19,-0.43,0.89,-12.76,-13.85,5.13
2026-07-27 13:31:31.039,-0.14,-0.42,0.83,-6.71,-13.31,-2.14
2026-07-27 13:31:31.039,-0.14,-0.42,0.83,-6.71,-13.31,-2.14
2026-07-27 13:31:31.039,-0.09,-0.43,0.87,-6.65,-9.95,-3.23
2026-07-27 13:31:31.039,-0.09,-0.43,0.87,-6.65,-9.95,-3.23
2026-07-27 13:31:31.040,-0.05,-0.44,0.88,-7.02,-4.39,-1.34
2026-07-27 13:31:31.040,-0.05,-0.44,0.88,-6.47,-3.11,0.18
2026-07-27 13:31:31.040,-0.04,-0.45,0.88,-6.47,-3.11,0.18
2026-07-27 13:31:31.040,-0.06,-0.46,0.92,-13.55,4.15,12.27
2026-07-27 13:31:31.040,-0.03,-0.5,0.88,-13.92,-5.98,14.53
2026-07-27 13:31:31.040,0.01,-0.52,0.81,-6.29,-19.41,11.96
2026-07-27 13:31:31.040,0.01,-0.52,0.81,-6.29,-19.41,11.96
2026-07-27 13:31:31.040,0.03,-0.51,0.72,-0.92,-30.58,8.18
2026-07-27 13:31:31.040,0.03,-0.51,0.72,-0.92,-30.58,8.18
2026-07-27 13:31:31.040,0.01,-0.46,0.64,3.54,-35.1,7.45
2026-07-27 13:31:31.048,0.01,-0.46,0.64,3.54,-35.1,7.45
2026-07-27 13:31:31.061,-0.0,-0.4,0.62,7.45,-28.87,14.65
2026-07-27 13:31:31.061,-0.0,-0.4,0.62,7.45,-28.87,14.65
2026-07-27 13:31:31.061,-0.07,-0.36,0.65,5.43,-13.67,29.05
2026-07-27 13:31:31.061,-0.23,-0.36,0.69,-0.43,1.77,44.56
2026-07-27 13:31:31.088,-0.23,-0.36,0.69,-0.43,1.77,44.56
2026-07-27 13:31:31.088,-0.33,-0.42,0.85,1.77,24.11,54.02
2026-07-27 13:31:31.093,-0.33,-0.42,0.85,1.77,24.11,54.02
2026-07-27 13:31:31.093,-0.34,-0.51,1.07,8.91,50.35,50.05
2026-07-27 13:31:31.094,-0.34,-0.51,1.07,8.91,50.35,50.05
2026-07-27 13:31:31.094,-0.28,-0.56,1.13,7.39,51.45,33.14
2026-07-27 13:31:31.094,-0.28,-0.56,1.13,7.39,51.45,33.14
2026-07-27 13:31:31.094,-0.16,-0.56,1.06,3.3,27.4,12.57
2026-07-27 13:31:31.094,-0.16,-0.56,1.06,-2.26,-0.06,-5.07
2026-07-27 13:31:31.094,-0.09,-0.54,0.94,-2.26,-0.06,-5.07
2026-07-27 13:31:31.094,-0.12,-0.45,0.84,-11.23,-18.13,-24.23
2026-07-27 13:31:31.094,-0.12,-0.45,0.84,-11.23,-18.13,-24.23
2026-07-27 13:31:31.094,-0.17,-0.32,0.88,-8.42,-6.71,-40.22
2026-07-27 13:31:31.094,-0.17,-0.32,0.88,-8.42,-6.71,-40.22
2026-07-27 13:31:31.094,-0.17,-0.31,1.0,0.73,20.87,-25.33
2026-07-27 13:31:31.094,-0.17,-0.31,1.0,0.73,20.87,-25.33
2026-07-27 13:31:31.095,-0.11,-0.46,0.96,-17.21,15.56,23.56
2026-07-27 13:31:31.095,-0.07,-0.57,0.88,-58.17,2.62,53.28
2026-07-27 13:31:31.448,-0.07,-0.57,0.88,-58.17,2.62,53.28
2026-07-27 13:31:31.448,-0.16,-0.52,0.98,-63.96,36.01,50.84
2026-07-27 13:31:31.449,-0.16,-0.52,0.98,-63.96,36.01,50.84
2026-07-27 13:31:31.643,-0.32,-0.53,1.11,-40.95,75.13,46.94
2026-07-27 13:31:31.643,-0.46,-0.6,1.03,-42.24,49.26,35.71
2026-07-27 13:31:31.643,-0.46,-0.6,1.03,-42.24,49.26,35.71
2026-07-27 13:31:31.675,-0.56,-0.72,0.83,-74.46,-21.48,4.03
2026-07-27 13:31:31.675,-0.56,-0.72,0.83,-74.46,-21.48,4.03
2026-07-27 13:31:31.675,-0.54,-0.86,0.71,-128.6,-97.41,-33.02
2026-07-27 13:31:31.698,-0.54,-0.86,0.71,-128.6,-97.41,-33.02
2026-07-27 13:31:32.046,-0.35,-0.93,0.56,-223.39,-168.64,-86.91
2026-07-27 13:31:34.102,-0.04,-1.0,0.24,-387.63,-188.17,-206.1
2026-07-27 13:31:34.115,-0.04,-1.0,0.24,-387.63,-188.17,-206.1
2026-07-27 13:31:34.125,0.27,-0.92,-0.16,-506.1,-138.18,-344.8
2026-07-27 13:31:34.125,0.27,-0.92,-0.16,-506.1,-138.18,-344.8
2026-07-27 13:31:34.125,0.4,-0.72,-0.44,-401.86,-41.08,-364.81
2026-07-27 13:31:34.131,0.4,-0.72,-0.44,-401.86,-41.08,-364.81
2026-07-27 13:31:34.131,0.34,-0.55,-0.51,-136.6,-0.37,-218.63
2026-07-27 13:31:34.131,0.36,-0.23,-0.54,39.61,-45.04,-37.48
2026-07-27 13:31:34.131,0.36,-0.23,-0.54,39.61,-45.04,-37.48
2026-07-27 13:31:34.132,0.44,0.02,-0.45,96.98,-44.68,7.45
2026-07-27 13:31:34.132,0.44,0.02,-0.45,96.98,-44.68,7.45
2026-07-27 13:31:34.132,0.65,-0.05,-0.2,193.85,5.13,-46.69
2026-07-27 13:31:34.132,0.65,-0.05,-0.2,193.85,5.13,-46.69
2026-07-27 13:31:34.132,0.82,-0.27,-0.05,257.39,8.73,-56.95
2026-07-27 13:31:34.132,0.79,-0.42,-0.09,187.74,-26.49,-14.59
2026-07-27 13:31:34.132,0.79,-0.42,-0.09,187.74,-26.49,-14.59
2026-07-27 13:31:34.132,0.79,-0.47,-0.21,74.52,-44.92,25.82
2026-07-27 13:31:34.132,0.79,-0.47,-0.21,74.52,-44.92,25.82
2026-07-27 13:31:34.132,0.79,-0.49,-0.27,-1.34,-23.07,51.51
2026-07-27 13:31:34.137,0.79,-0.49,-0.27,-1.34,-23.07,51.51
2026-07-27 13:31:34.142,0.78,-0.5,-0.29,-30.7,18.13,69.46
2026-07-27 13:31:34.142,0.78,-0.5,-0.29,-42.24,36.13,79.83
2026-07-27 13:31:34.142,0.78,-0.51,-0.3,-42.24,36.13,79.83
2026-07-27 13:31:34.142,0.76,-0.57,-0.3,-52.31,38.94,87.52
2026-07-27 13:31:34.142,0.76,-0.57,-0.3,-52.31,38.94,87.52
2026-07-27 13:31:34.146,0.72,-0.6,-0.32,-47.79,55.91,77.27
2026-07-27 13:31:34.190,0.72,-0.6,-0.32,-47.79,55.91,77.27
2026-07-27 13:31:34.191,0.59,-0.53,-0.28,-38.33,104.49,63.17
2026-07-27 13:31:34.191,0.59,-0.53,-0.28,-38.33,104.49,63.17
2026-07-27 13:31:34.191,0.31,-0.5,-0.35,-57.86,127.87,99.61
2026-07-27 13:31:34.191,0.12,-0.4,-0.43,-86.12,88.38,119.93
2026-07-27 13:31:34.191,0.12,-0.4,-0.43,-86.12,88.38,119.93
2026-07-27 13:31:34.191,0.1,-0.21,-0.33,-89.9,61.46,78.31
2026-07-27 13:31:34.192,0.1,-0.21,-0.33,-89.9,61.46,78.31
2026-07-27 13:31:34.192,0.03,-0.13,-0.37,-86.67,82.03,50.9
2026-07-27 13:31:34.192,0.03,-0.13,-0.37,-86.67,82.03,50.9
2026-07-27 13:31:34.192,-0.04,-0.69,-0.75,-133.36,103.7,47.36
2026-07-27 13:31:34.192,-0.04,-0.69,-0.75,-133.36,103.7,47.36
2026-07-27 13:31:34.193,-0.06,-1.4,-1.08,-177.55,145.26,51.39
2026-07-27 13:31:34.193,-0.21,-1.29,-0.6,-103.58,220.89,94.85
2026-07-27 13:31:34.193,-0.21,-1.29,-0.6,-103.58,220.89,94.85
2026-07-27 13:31:34.193,-0.28,-0.53,0.64,-23.01,224.24,127.75
2026-07-27 13:31:34.193,-0.28,-0.53,0.64,-23.01,224.24,127.75
2026-07-27 13:31:34.193,0.07,0.06,1.55,-58.78,123.78,74.89
2026-07-27 13:31:34.209,0.07,0.06,1.55,-58.78,123.78,74.89
2026-07-27 13:31:34.209,0.87,-0.16,1.63,-160.89,2.14,-43.95
2026-07-27 13:31:34.209,1.54,-1.2,0.71,-273.5,-11.17,-191.04
2026-07-27 13:31:34.237,1.54,-1.2,0.71,-273.5,-11.17,-191.04
2026-07-27 13:31:34.237,1.45,-1.98,-1.11,-388.79,48.58,-319.82
2026-07-27 13:31:34.238,1.45,-1.98,-1.11,-388.79,48.58,-319.82
2026-07-27 13:31:34.238,0.99,-1.24,-2.28,-261.29,61.04,-434.69
2026-07-27 13:31:34.239,0.99,-1.24,-2.28,-261.29,61.04,-434.69
2026-07-27 13:31:34.239,0.82,-0.08,-2.42,53.04,100.77,-463.68
2026-07-27 13:31:34.240,0.82,-0.08,-2.42,53.04,100.77,-463.68
2026-07-27 13:31:34.242,0.85,0.23,-2.51,228.52,191.35,-386.78
2026-07-27 13:31:34.242,0.07,0.2,-2.19,246.4,218.81,-338.2
2026-07-27 13:31:34.243,0.07,0.2,-2.19,246.4,218.81,-338.2
2026-07-27 13:31:34.243,-0.71,-0.14,-1.7,84.35,138.92,-191.83
2026-07-27 13:31:34.243,-0.71,-0.14,-1.7,84.35,138.92,-191.83
2026-07-27 13:31:34.243,-0.43,-0.94,-1.83,-133.36,80.75,61.16
2026-07-27 13:31:34.243,-0.43,-0.94,-1.83,-133.36,80.75,61.16
2026-07-27 13:31:34.243,-0.42,0.15,0.35,71.23,43.09,-105.53
2026-07-27 13:31:34.243,-0.42,0.15,0.35,71.23,43.09,-105.53
2026-07-27 13:31:34.261,-0.22,0.08,0.45,62.13,73.73,-61.46
2026-07-27 13:31:34.261,-0.22,0.08,0.45,39.18,134.4,-49.19
2026-07-27 13:31:34.262,-0.18,0.05,0.5,39.18,134.4,-49.19
2026-07-27 13:31:34.262,-0.28,-0.02,0.43,9.64,150.02,-35.71
2026-07-27 13:31:34.262,-0.28,-0.02,0.43,9.64,150.02,-35.71
2026-07-27 13:31:34.262,-0.13,-0.1,0.63,4.52,28.2,-1.95
2026-07-27 13:31:34.692,-0.13,-0.1,0.63,4.52,28.2,-1.95
2026-07-27 13:31:34.702,0.08,-0.17,0.97,19.78,-71.9,14.47
2026-07-27 13:31:34.702,0.08,-0.17,0.97,19.78,-71.9,14.47
2026-07-27 13:31:34.702,0.05,-0.15,1.0,30.7,-25.45,-2.93
2026-07-27 13:31:34.702,-0.02,-0.0,0.97,45.17,29.17,-19.71
2026-07-27 13:31:34.702,-0.02,-0.0,0.97,45.17,29.17,-19.71
2026-07-27 13:31:35.224,-0.03,0.05,1.03,35.83,25.94,-16.42
2026-07-27 13:31:35.225,-0.03,0.05,1.03,35.83,25.94,-16.42
2026-07-27 13:31:35.228,0.01,-0.04,1.09,3.78,5.98,-7.39
2026-07-27 13:31:35.228,0.01,-0.04,1.09,3.78,5.98,-7.39
2026-07-27 13:31:35.229,0.04,-0.07,1.1,2.14,-11.78,-12.63
2026-07-27 13:31:35.229,0.04,-0.07,1.1,2.14,-11.78,-12.63
2026-07-27 13:31:35.230,0.04,-0.06,1.1,18.92,-14.16,-31.31
2026-07-27 13:31:35.230,0.03,-0.01,1.1,31.49,3.72,-45.04
2026-07-27 13:31:35.230,0.03,-0.01,1.1,31.49,3.72,-45.04
2026-07-27 13:31:35.230,0.01,0.04,1.08,30.21,17.52,-46.63
2026-07-27 13:31:35.230,0.01,0.04,1.08,30.21,17.52,-46.63
2026-07-27 13:31:35.231,0.01,0.0,1.1,5.62,12.88,-46.75
2026-07-27 13:31:35.231,0.01,0.0,1.1,5.62,12.88,-46.75
2026-07-27 13:31:35.231,-0.01,-0.04,1.11,-11.17,7.26,-46.63
2026-07-27 13:31:35.231,-0.01,-0.04,1.11,-11.17,7.26,-46.63
2026-07-27 13:31:35.231,-0.01,-0.04,1.11,-11.17,7.26,-46.63
2026-07-27 13:31:35.231,-0.01,-0.04,1.11,-11.17,7.26,-46.63
2026-07-27 13:31:35.231,-0.11,0.07,0.96,10.19,0.92,-37.96
2026-07-27 13:31:35.232,-0.11,0.07,0.96,10.19,0.92,-37.96
2026-07-27 13:31:35.233,-0.09,0.02,0.92,3.11,-6.59,-26.92
2026-07-27 13:31:35.233,-0.13,-0.0,0.91,-2.2,-12.51,-24.48
2026-07-27 13:31:35.233,-0.13,-0.0,0.91,-2.2,-12.51,-24.48
2026-07-27 13:31:35.233,-0.19,0.0,0.94,-5.37,-16.3,-29.24
2026-07-27 13:31:35.235,-0.19,0.0,0.94,-5.37,-16.3,-29.24
2026-07-27 13:31:35.235,-0.19,-0.02,1.01,-12.08,-12.76,-21.91
2026-07-27 13:31:35.235,-0.19,-0.02,1.01,-12.08,-12.76,-21.91
2026-07-27 13:31:35.236,-0.19,-0.04,1.04,-15.01,-6.77,-9.95
2026-07-27 13:31:35.236,-0.19,-0.04,1.04,-15.01,-6.77,-9.95
2026-07-27 13:31:35.237,-0.11,-0.07,0.95,-12.7,-15.87,-6.04
2026-07-27 13:31:35.237,-0.11,-0.07,0.95,-7.69,-32.96,-5.49
2026-07-27 13:31:35.237,-0.0,-0.08,0.85,-7.69,-32.96,-5.49
2026-07-27 13:31:35.237,-0.04,0.0,0.89,6.71,-26.73,-10.13
2026-07-27 13:31:35.237,-0.04,0.0,0.89,6.71,-26.73,-10.13
2026-07-27 13:31:35.240,-0.06,0.06,0.99,41.08,-8.79,-15.2
2026-07-27 13:31:35.304,-0.06,0.06,0.99,41.08,-8.79,-15.2
2026-07-27 13:31:35.423,-0.06,0.11,1.03,83.44,-3.3,1.04
2026-07-27 13:31:35.439,-0.06,0.11,1.03,83.44,-3.3,1.04
2026-07-27 13:31:35.439,-0.03,0.21,1.04,111.76,-8.91,45.84
2026-07-27 13:31:35.439,0.07,0.2,1.05,93.14,-7.69,68.54
2026-07-27 13:31:35.821,0.07,0.2,1.05,93.14,-7.69,68.54
2026-07-27 13:31:35.821,0.0,0.18,1.08,47.24,10.38,34.0
2026-07-27 13:31:35.821,0.0,0.18,1.08,47.24,10.38,34.0
2026-07-27 13:31:35.821,-0.03,0.34,1.07,33.26,6.96,-4.46
2026-07-27 13:31:35.824,-0.03,0.34,1.07,33.26,6.96,-4.46
2026-07-27 13:31:35.824,0.15,0.48,1.09,5.37,-9.16,15.44
2026-07-27 13:31:35.824,0.33,0.41,1.11,-72.27,24.35,82.4
2026-07-27 13:31:35.824,0.33,0.41,1.11,-72.27,24.35,82.4
2026-07-27 13:31:35.825,0.4,0.2,1.04,-117.68,80.63,109.07
2026-07-27 13:31:35.833,0.4,0.2,1.04,-117.68,80.63,109.07
2026-07-27 13:31:35.833,0.41,0.08,0.82,-82.95,106.99,80.32
2026-07-27 13:31:35.833,0.41,0.08,0.82,-82.95,106.99,80.32
2026-07-27 13:31:35.833,0.31,0.05,0.55,-36.38,107.24,52.55
2026-07-27 13:31:35.834,0.11,-0.01,0.36,-52.98,89.48,49.38
2026-07-27 13:31:35.834,0.11,-0.01,0.36,-52.98,89.48,49.38
2026-07-27 13:31:35.834,-0.03,-0.12,0.31,-96.37,51.94,61.71
2026-07-27 13:31:35.834,-0.03,-0.12,0.31,-96.37,51.94,61.71
2026-07-27 13:31:35.834,-0.06,-0.17,0.42,-110.41,-1.28,45.47
2026-07-27 13:31:35.834,-0.06,-0.17,0.42,-110.41,-1.28,45.47
2026-07-27 13:31:35.834,0.0,-0.13,0.54,-102.17,-69.34,-27.53
2026-07-27 13:31:35.834,0.0,-0.13,0.54,-85.08,-138.06,-116.58
2026-07-27 13:31:35.835,0.12,-0.15,0.73,-85.08,-138.06,-116.58
2026-07-27 13:31:35.835,0.22,-0.31,1.1,-80.08,-173.34,-165.89
2026-07-27 13:31:35.837,0.22,-0.31,1.1,-80.08,-173.34,-165.89
2026-07-27 13:31:35.837,0.27,-0.56,1.51,-92.29,-155.7,-171.08
2026-07-27 13:31:36.851,0.27,-0.56,1.51,-92.29,-155.7,-171.08
2026-07-27 13:31:36.887,0.26,-0.86,1.83,-68.42,-94.36,-163.02
2026-07-27 13:31:36.887,0.18,-1.04,2.06,17.09,-23.62,-160.58
2026-07-27 13:31:36.887,0.18,-1.04,2.06,17.09,-23.62,-160.58
2026-07-27 13:31:36.887,0.14,-0.91,2.09,116.52,26.49,-191.89
2026-07-27 13:31:36.887,0.14,-0.91,2.09,116.52,26.49,-191.89
2026-07-27 13:31:36.887,0.15,-0.51,1.65,150.7,42.66,-213.99
2026-07-27 13:31:36.887,0.15,-0.51,1.65,150.7,42.66,-213.99
2026-07-27 13:31:36.887,-0.02,0.02,0.92,135.25,30.03,-96.92
2026-07-27 13:31:36.887,-0.33,0.52,0.39,126.4,45.53,82.82
2026-07-27 13:31:36.888,-0.33,0.52,0.39,126.4,45.53,82.82
2026-07-27 13:31:36.888,-0.42,0.59,0.08,104.31,96.13,151.25
2026-07-27 13:31:36.888,-0.42,0.59,0.08,104.31,96.13,151.25
2026-07-27 13:31:36.888,-0.29,0.37,-0.05,22.22,86.36,84.9
2026-07-27 13:31:36.888,-0.29,0.37,-0.05,22.22,86.36,84.9
2026-07-27 13:31:36.888,-0.24,0.15,0.07,-138.61,81.54,-79.1
2026-07-27 13:31:36.888,-0.3,-0.26,0.42,-275.63,130.49,-245.42
2026-07-27 13:31:36.930,-0.3,-0.26,0.42,-275.63,130.49,-245.42
2026-07-27 13:31:36.957,-0.3,-1.16,1.22,-301.15,101.93,-282.35
2026-07-27 13:31:36.962,-0.3,-1.16,1.22,-301.15,101.93,-282.35
2026-07-27 13:31:36.963,-0.2,-2.35,2.29,-233.83,9.52,-158.14
2026-07-27 13:31:36.963,-0.2,-2.35,2.29,-233.83,9.52,-158.14
2026-07-27 13:31:36.963,0.03,-2.66,2.78,-127.38,-42.11,37.66
2026-07-27 13:31:36.964,0.28,-1.64,2.16,-57.25,-24.84,190.98
2026-07-27 13:31:36.964,0.28,-1.64,2.16,-57.25,-24.84,190.98
2026-07-27 13:31:36.964,0.43,-0.2,0.84,-25.09,39.98,246.46
2026-07-27 13:31:36.964,0.43,-0.2,0.84,-25.09,39.98,246.46
2026-07-27 13:31:36.965,0.66,0.74,-0.41,5.98,103.7,214.23
2026-07-27 13:31:36.965,0.66,0.74,-0.41,5.98,103.7,214.23
2026-07-27 13:31:36.965,1.01,1.16,-1.13,24.11,105.22,138.92
2026-07-27 13:31:36.965,1.01,1.16,-1.13,24.11,105.22,138.92
2026-07-27 13:31:36.966,1.24,1.25,-0.89,1.1,65.86,64.03
2026-07-27 13:31:36.967,1.2,1.03,-0.0,-38.33,32.04,-9.03
2026-07-27 13:31:36.967,1.2,1.03,-0.0,-38.33,32.04,-9.03
2026-07-27 13:31:36.969,0.91,0.66,1.02,11.35,-23.8,-109.5
2026-07-27 13:31:36.969,0.91,0.66,1.02,11.35,-23.8,-109.5
2026-07-27 13:31:36.970,0.51,0.04,2.41,178.59,-83.92,-197.27
2026-07-27 13:31:36.971,0.51,0.04,2.41,178.59,-83.92,-197.27
2026-07-27 13:31:36.971,-0.03,-0.77,3.78,351.56,-113.53,-213.87
2026-07-27 13:31:36.972,-0.03,-0.77,3.78,351.56,-113.53,-213.87
2026-07-27 13:31:36.972,-0.3,-1.38,3.97,413.88,-119.51,-181.27
2026-07-27 13:31:36.975,-0.12,-1.72,2.86,346.19,-121.46,-146.55
2026-07-27 13:31:36.975,-0.12,-1.72,2.86,346.19,-121.46,-146.55
2026-07-27 13:31:36.975,-0.61,-1.69,1.26,196.72,-151.18,-131.59
2026-07-27 13:31:36.975,-0.61,-1.69,1.26,196.72,-151.18,-131.59
2026-07-27 13:31:36.975,-2.16,-1.09,-0.03,27.77,-202.58,-161.56
2026-07-27 13:31:36.975,-3.0,-0.44,-0.48,-85.33,-174.32,-221.8
2026-07-27 13:31:37.384,-3.0,-0.44,-0.48,-85.33,-174.32,-221.8
2026-07-27 13:31:37.394,-2.02,-0.41,-0.02,-108.64,-29.17,-244.0
2026-07-27 13:31:37.394,-2.02,-0.41,-0.02,-108.64,-29.17,-244.0
2026-07-27 13:31:37.394,-0.51,-0.72,1.06,-94.42,112.3,-179.69
2026-07-27 13:31:37.394,-0.16,-0.53,2.61,-82.46,184.75,4.52
2026-07-27 13:31:37.394,-0.16,-0.53,2.61,-82.46,184.75,4.52
2026-07-27 13:31:37.394,-0.2,-0.15,3.92,-109.37,204.53,168.58
2026-07-27 13:31:37.394,-0.2,-0.15,3.92,-109.37,204.53,168.58
2026-07-27 13:31:37.394,0.63,0.05,3.85,-196.04,229.0,211.24
2026-07-27 13:31:37.395,0.63,0.05,3.85,-196.04,229.0,211.24
2026-07-27 13:31:37.585,1.53,0.51,2.18,-269.04,279.42,211.12
2026-07-27 13:31:37.585,1.98,0.96,0.04,-269.1,245.91,157.29
2026-07-27 13:31:37.586,1.98,0.96,0.04,-269.1,245.91,157.29
2026-07-27 13:31:37.587,2.26,1.43,-1.46,-198.0,115.66,79.16
2026-07-27 13:31:37.619,2.26,1.43,-1.46,-198.0,115.66,79.16
2026-07-27 13:31:37.620,2.25,1.99,-1.73,-85.51,-36.99,37.29
2026-07-27 13:31:37.620,1.76,2.36,-0.55,51.21,-182.62,-3.11
2026-07-27 13:31:37.621,1.76,2.36,-0.55,51.21,-182.62,-3.11
2026-07-27 13:31:37.621,1.48,2.44,1.57,229.13,-258.0,-31.86
2026-07-27 13:31:37.622,1.48,2.44,1.57,229.13,-258.0,-31.86
2026-07-27 13:31:37.623,0.85,1.96,3.55,385.62,-285.77,-2.08
2026-07-27 13:31:37.623,0.85,1.96,3.55,385.62,-285.77,-2.08
2026-07-27 13:31:37.623,-0.55,1.04,4.0,362.18,-311.16,25.7
2026-07-27 13:31:37.624,-1.21,0.03,3.08,189.09,-225.34,3.17
2026-07-27 13:31:37.625,-1.21,0.03,3.08,189.09,-225.34,3.17
2026-07-27 13:31:37.625,-0.99,-1.05,1.31,49.32,-76.35,-56.95
2026-07-27 13:31:37.625,-0.99,-1.05,1.31,49.32,-76.35,-56.95
2026-07-27 13:31:37.626,-0.91,-1.6,0.13,-26.49,-15.81,-108.64
2026-07-27 13:31:37.627,-0.91,-1.6,0.13,-26.49,-15.81,-108.64
2026-07-27 13:31:37.627,-1.05,-1.36,-0.5,-80.14,0.06,-91.37
2026-07-27 13:31:37.627,-0.99,-0.81,-0.75,-107.67,41.02,-26.0
2026-07-27 13:31:37.808,-0.99,-0.81,-0.75,-107.67,41.02,-26.0
2026-07-27 13:31:37.851,-0.6,-0.26,-0.53,-114.2,93.51,34.18
2026-07-27 13:31:37.851,-0.6,-0.26,-0.53,-114.2,93.51,34.18
2026-07-27 13:31:37.852,-0.1,-0.21,0.91,-114.62,95.7,58.9
2026-07-27 13:31:37.852,-0.1,-0.21,0.91,-114.62,95.7,58.9
2026-07-27 13:31:38.284,0.57,-0.6,3.0,-106.14,50.84,98.02
2026-07-27 13:31:38.321,1.24,-0.06,3.32,-80.51,116.39,272.95
2026-07-27 13:31:38.322,1.24,-0.06,3.32,-80.51,116.39,272.95
2026-07-27 13:31:38.322,1.35,0.7,1.83,-8.3,281.74,478.27
2026-07-27 13:31:38.363,1.35,0.7,1.83,-8.3,281.74,478.27
2026-07-27 13:31:38.395,0.97,0.65,0.27,-0.55,306.03,413.02
2026-07-27 13:31:38.395,0.97,0.65,0.27,-0.55,306.03,413.02
2026-07-27 13:31:38.396,0.56,0.48,-0.55,-73.24,183.04,167.42
2026-07-27 13:31:38.396,0.3,0.28,-0.58,-57.8,96.92,27.95
2026-07-27 13:31:38.396,0.3,0.28,-0.58,-57.8,96.92,27.95
2026-07-27 13:31:38.401,0.26,0.18,-0.29,17.33,88.56,-3.66
2026-07-27 13:31:38.490,0.26,0.18,-0.29,17.33,88.56,-3.66
2026-07-27 13:31:38.490,0.67,0.21,0.18,56.82,78.25,-31.37
2026-07-27 13:31:38.499,0.67,0.21,0.18,56.82,78.25,-31.37
2026-07-27 13:31:38.499,0.57,0.06,1.61,67.02,-21.42,-85.88
2026-07-27 13:31:38.767,-0.39,-0.09,3.06,63.23,-151.92,-97.41
2026-07-27 13:31:38.780,-0.39,-0.09,3.06,63.23,-151.92,-97.41
2026-07-27 13:31:38.782,-0.79,0.2,2.43,2.81,-142.33,-4.03
2026-07-27 13:31:38.782,-0.79,0.2,2.43,2.81,-142.33,-4.03
2026-07-27 13:31:38.796,-0.53,0.52,0.71,-68.48,-49.87,96.98
2026-07-27 13:31:38.797,-0.53,0.52,0.71,-68.48,-49.87,96.98
2026-07-27 13:31:38.797,-0.28,0.51,-0.15,-68.66,-23.07,104.98
2026-07-27 13:31:38.797,-0.38,0.3,0.28,-25.57,-62.13,56.21
2026-07-27 13:31:38.797,-0.38,0.3,0.28,-25.57,-62.13,56.21
2026-07-27 13:31:38.797,-0.75,0.02,1.23,2.56,-115.17,13.43
2026-07-27 13:31:38.797,-0.75,0.02,1.23,2.56,-115.17,13.43
2026-07-27 13:31:38.798,-0.84,-0.13,1.45,-5.19,-116.94,2.44
2026-07-27 13:31:38.798,-0.84,-0.13,1.45,-5.19,-116.94,2.44
2026-07-27 13:31:38.798,-0.51,-0.0,0.76,-14.34,-45.65,46.33
2026-07-27 13:31:38.798,-0.51,-0.0,0.76,13.0,31.43,108.76
2026-07-27 13:31:38.808,-0.09,0.2,0.06,13.0,31.43,108.76
2026-07-27 13:31:38.808,0.21,0.13,-0.05,65.67,36.56,115.72
2026-07-27 13:31:38.808,0.21,0.13,-0.05,65.67,36.56,115.72
2026-07-27 13:31:38.808,0.14,-0.09,0.25,92.77,-25.45,103.03
2026-07-27 13:31:38.809,0.14,-0.09,0.25,92.77,-25.45,103.03
2026-07-27 13:31:38.809,-0.33,-0.03,0.64,63.6,-69.34,137.76
2026-07-27 13:31:38.809,-0.33,-0.03,0.64,63.6,-69.34,137.76
2026-07-27 13:31:38.809,-0.75,0.02,1.2,32.78,-43.58,187.74
2026-07-27 13:31:38.809,-0.69,-0.26,1.81,33.51,3.66,199.1
2026-07-27 13:31:38.809,-0.69,-0.26,1.81,33.51,3.66,199.1
2026-07-27 13:31:38.809,-0.06,-0.82,2.39,41.02,37.29,179.87
2026-07-27 13:31:38.814,-0.06,-0.82,2.39,41.02,37.29,179.87
2026-07-27 13:31:38.815,0.76,-1.58,3.03,61.4,87.52,186.28
2026-07-27 13:31:38.815,0.76,-1.58,3.03,61.4,87.52,186.28
2026-07-27 13:31:38.815,1.15,-1.87,3.27,33.51,150.09,234.31
2026-07-27 13:31:38.819,1.08,-1.52,3.11,-104.68,171.94,246.15
2026-07-27 13:31:38.820,1.08,-1.52,3.11,-104.68,171.94,246.15
2026-07-27 13:31:39.135,0.93,-0.96,2.96,-263.43,145.75,200.62
2026-07-27 13:31:39.136,0.93,-0.96,2.96,-263.43,145.75,200.62
2026-07-27 13:31:39.136,0.92,-0.22,2.33,-350.71,129.76,185.12
2026-07-27 13:31:39.136,0.97,0.53,1.08,-342.04,138.92,194.89
2026-07-27 13:31:39.146,0.97,0.53,1.08,-342.04,138.92,194.89
2026-07-27 13:31:39.146,1.05,1.23,-0.18,-224.85,115.91,166.56
2026-07-27 13:31:39.146,1.05,1.23,-0.18,-224.85,115.91,166.56
2026-07-27 13:31:39.146,1.38,1.88,-0.98,-50.42,23.25,112.92
2026-07-27 13:31:39.147,1.38,1.88,-0.98,-50.42,23.25,112.92
2026-07-27 13:31:39.147,2.13,2.09,-0.78,116.21,-128.72,45.9
2026-07-27 13:31:39.189,2.81,1.84,0.54,253.17,-304.63,-3.72
2026-07-27 13:31:39.200,2.81,1.84,0.54,253.17,-304.63,-3.72
2026-07-27 13:31:39.207,2.98,1.23,2.46,323.97,-457.03,-29.6
2026-07-27 13:31:39.217,2.98,1.23,2.46,323.97,-457.03,-29.6
2026-07-27 13:31:39.224,2.09,0.18,3.95,309.75,-527.1,-65.06
2026-07-27 13:31:39.224,2.09,0.18,3.95,309.75,-527.1,-65.06
2026-07-27 13:31:40.750,0.45,-0.71,4.0,201.97,-429.44,-78.98
2026-07-27 13:31:40.761,-0.83,-1.06,2.55,31.13,-199.22,-60.0
2026-07-27 13:31:40.761,-0.83,-1.06,2.55,31.13,-199.22,-60.0
2026-07-27 13:31:40.761,-1.55,-1.06,0.77,-92.29,-5.07,-42.72
2026-07-27 13:31:40.761,-1.55,-1.06,0.77,-129.88,88.75,-29.6
2026-07-27 13:31:40.761,-1.78,-0.72,-0.05,-129.88,88.75,-29.6
2026-07-27 13:31:40.761,-1.4,-0.18,0.06,-129.94,138.18,-14.34
2026-07-27 13:31:40.762,-1.4,-0.18,0.06,-129.94,138.18,-14.34
2026-07-27 13:31:40.762,-0.7,0.13,0.61,-126.71,182.74,-1.22
2026-07-27 13:31:40.762,-0.7,0.13,0.61,-126.71,182.74,-1.22
2026-07-27 13:31:40.762,-0.15,-0.11,1.73,-122.31,209.47,20.08
2026-07-27 13:31:40.762,-0.15,-0.11,1.73,-122.31,209.47,20.08
2026-07-27 13:31:40.762,-0.15,-0.11,1.73,-122.31,209.47,20.08
2026-07-27 13:31:40.762,-0.15,-0.11,1.73,-122.31,209.47,20.08
2026-07-27 13:31:40.762,1.63,-1.55,4.0,-78.12,272.28,165.71
2026-07-27 13:31:40.762,1.63,-1.55,4.0,-122.25,349.91,270.26
2026-07-27 13:31:40.762,2.66,-1.22,3.21,-122.25,349.91,270.26
2026-07-27 13:31:41.665,2.5,-0.26,1.53,-180.48,370.73,318.12
2026-07-27 13:31:41.676,2.5,-0.26,1.53,-180.48,370.73,318.12
2026-07-27 13:31:41.676,1.75,0.67,0.37,-191.16,314.21,257.08
2026-07-27 13:31:41.677,1.75,0.67,0.37,-191.16,314.21,257.08
2026-07-27 13:31:41.677,1.5,1.36,-0.52,-151.73,269.96,161.07
2026-07-27 13:31:41.677,1.8,1.53,-1.23,-52.37,241.27,99.67
2026-07-27 13:31:43.023,1.8,1.53,-1.23,-52.37,241.27,99.67
2026-07-27 13:31:43.027,1.88,1.26,-1.04,94.54,117.55,66.47
2026-07-27 13:31:43.073,1.88,1.26,-1.04,94.54,117.55,66.47
2026-07-27 13:31:43.073,1.45,1.19,0.38,215.94,-116.82,35.58
2026-07-27 13:31:43.073,1.45,1.19,0.38,215.94,-116.82,35.58
2026-07-27 13:31:43.074,0.25,0.85,2.59,235.17,-382.32,-98.08
2026-07-27 13:31:43.074,0.25,0.85,2.59,190.73,-471.44,-339.36
2026-07-27 13:31:43.074,-0.92,-0.45,3.87,190.73,-471.44,-339.36
2026-07-27 13:31:43.074,-1.04,-1.27,2.66,95.03,-260.13,-384.34
2026-07-27 13:31:43.074,-1.04,-1.27,2.66,95.03,-260.13,-384.34
2026-07-27 13:31:43.075,-0.63,-0.96,0.28,5.0,13.43,-162.78
2026-07-27 13:31:43.075,-0.63,-0.96,0.28,5.0,13.43,-162.78
2026-07-27 13:31:43.075,-0.4,-0.55,-0.99,19.35,102.11,33.33
2026-07-27 13:31:43.075,-0.4,-0.55,-0.99,19.35,102.11,33.33
2026-07-27 13:31:43.091,-0.45,-0.36,-1.04,53.65,50.23,76.72
2026-07-27 13:31:43.091,-0.61,-0.36,-0.69,29.05,1.28,38.39
2026-07-27 13:31:43.111,-0.61,-0.36,-0.69,29.05,1.28,38.39
2026-07-27 13:31:43.111,-0.78,-0.67,-0.32,-29.42,-6.35,1.04
2026-07-27 13:31:43.111,-0.78,-0.67,-0.32,-29.42,-6.35,1.04
2026-07-27 13:31:43.111,-0.99,-1.46,0.96,-67.02,-16.17,-4.27
2026-07-27 13:31:43.111,-0.99,-1.46,0.96,-67.02,-16.17,-4.27
2026-07-27 13:31:43.111,-0.64,-2.29,3.05,-85.45,-52.12,27.28
2026-07-27 13:31:43.111,-0.64,-2.29,3.05,-85.45,-52.12,27.28
2026-07-27 13:31:43.112,0.68,-1.93,4.0,-142.94,-3.05,123.9
2026-07-27 13:31:43.112,1.93,-0.2,3.07,-228.94,155.46,291.5
2026-07-27 13:31:43.112,1.93,-0.2,3.07,-228.94,155.46,291.5
2026-07-27 13:31:43.112,2.19,1.37,1.32,-258.0,261.05,414.18
2026-07-27 13:31:43.112,2.19,1.37,1.32,-258.0,261.05,414.18
2026-07-27 13:31:43.112,1.86,1.88,0.04,-199.46,257.63,388.61
2026-07-27 13:31:43.112,1.86,1.88,0.04,-199.46,257.63,388.61
2026-07-27 13:31:43.112,1.6,1.66,-0.68,-103.94,204.71,233.34
2026-07-27 13:31:43.117,1.57,1.1,-1.0,-1.89,119.32,23.32
2026-07-27 13:31:43.138,1.57,1.1,-1.0,-1.89,119.32,23.32
2026-07-27 13:31:43.138,1.7,0.56,-0.72,125.06,-15.26,-134.22
2026-07-27 13:31:43.138,1.7,0.56,-0.72,125.06,-15.26,-134.22
2026-07-27 13:31:43.138,1.18,0.21,1.08,245.24,-245.42,-185.73
2026-07-27 13:31:43.138,1.18,0.21,1.08,245.24,-245.42,-185.73
2026-07-27 13:31:43.138,-0.43,-0.09,3.41,244.2,-478.15,-185.36
2026-07-27 13:31:43.138,-0.73,-0.93,-0.96,54.81,59.2,83.44
2026-07-27 13:31:43.138,-1.08,-1.18,-0.36,-29.54,-2.87,124.39
2026-07-27 13:31:43.138,-1.08,-1.18,-0.36,-29.54,-2.87,124.39
2026-07-27 13:31:43.139,-1.26,-1.57,1.17,-100.95,1.22,145.57
2026-07-27 13:31:43.139,-1.26,-1.57,1.17,-100.95,1.22,145.57
2026-07-27 13:31:43.139,-0.76,-1.85,3.13,-141.72,50.78,148.19
2026-07-27 13:31:43.139,-0.76,-1.85,3.13,-141.72,50.78,148.19
2026-07-27 13:31:43.139,0.51,-1.67,4.0,-173.03,111.33,139.28
2026-07-27 13:31:43.139,0.51,-1.67,4.0,-173.03,111.33,139.28
2026-07-27 13:31:43.139,0.51,-1.67,4.0,-173.03,111.33,139.28
2026-07-27 13:31:43.143,0.51,-1.67,4.0,-173.03,111.33,139.28
2026-07-27 13:31:43.144,1.95,0.37,1.86,-207.76,205.44,264.47
2026-07-27 13:31:43.144,1.95,0.37,1.86,-114.5,223.08,356.45
2026-07-27 13:31:43.144,1.62,1.17,0.6,-114.5,223.08,356.45
2026-07-27 13:31:43.144,1.12,1.21,0.03,-14.89,228.52,358.95
2026-07-27 13:31:43.145,1.12,1.21,0.03,-14.89,228.52,358.95
2026-07-27 13:31:43.145,0.79,0.95,-0.15,20.87,222.53,285.22
2026-07-27 13:31:43.155,0.79,0.95,-0.15,20.87,222.53,285.22
2026-07-27 13:31:43.155,-0.04,0.32,3.07,218.08,130.49,138.61
2026-07-27 13:31:43.155,0.82,-0.18,2.81,153.99,232.6,-3.91
2026-07-27 13:31:43.156,0.82,-0.18,2.81,153.99,232.6,-3.91
2026-07-27 13:31:43.156,1.53,-0.7,1.98,23.38,296.88,-81.3
2026-07-27 13:31:43.156,1.53,-0.7,1.98,23.38,296.88,-81.3
2026-07-27 13:31:43.156,-0.13,-0.15,0.51,8.0,-195.74,-227.66
2026-07-27 13:31:43.157,0.03,-0.27,0.89,52.12,-216.92,-266.85
2026-07-27 13:31:46.937,0.1,-0.4,1.54,130.25,-217.9,-269.29
2026-07-27 13:31:47.581,0.1,-0.4,1.54,130.25,-217.9,-269.29
2026-07-27 13:31:47.581,0.1,-0.61,1.97,149.05,-196.23,-271.73
2026-07-27 13:31:47.590,0.1,-0.61,1.97,149.05,-196.23,-271.73
2026-07-27 13:31:47.590,0.08,-0.59,1.98,121.89,-177.86,-268.86
2026-07-27 13:31:47.590,0.03,-0.36,1.86,126.34,-156.49,-217.47
2026-07-27 13:31:47.591,0.03,-0.36,1.86,126.34,-156.49,-217.47
2026-07-27 13:31:47.591,0.04,-0.16,1.84,158.33,-112.37,-129.27
2026-07-27 13:31:47.591,0.04,-0.16,1.84,193.85,-51.76,-39.98
2026-07-27 13:31:47.591,-0.0,-0.19,1.9,193.85,-51.76,-39.98
2026-07-27 13:31:47.591,-0.3,-0.42,1.62,184.75,33.57,55.05
2026-07-27 13:31:47.593,-0.3,-0.42,1.62,184.75,33.57,55.05
2026-07-27 13:31:47.594,-0.69,-0.35,0.78,88.56,95.58,137.7
2026-07-27 13:31:47.594,-0.69,-0.35,0.78,88.56,95.58,137.7
2026-07-27 13:31:47.594,-0.79,0.12,-0.16,-33.87,105.71,159.18
2026-07-27 13:31:47.594,-0.79,0.12,-0.16,-33.87,105.71,159.18
2026-07-27 13:31:47.600,-0.62,0.51,-0.6,-97.9,98.14,101.38
2026-07-27 13:31:47.601,-0.4,0.5,-0.38,-93.99,70.43,-20.26
2026-07-27 13:31:47.601,-0.4,0.5,-0.38,-93.99,70.43,-20.26
2026-07-27 13:31:47.601,-0.32,0.22,0.29,-65.98,26.98,-126.65
2026-07-27 13:31:47.601,-0.32,0.22,0.29,-65.98,26.98,-126.65
2026-07-27 13:31:47.602,-0.39,-0.04,1.43,-48.4,-1.89,-146.73
2026-07-27 13:31:47.602,-0.39,-0.04,1.43,-48.4,-1.89,-146.73
2026-07-27 13:31:47.602,-0.53,-0.05,2.98,-35.03,9.58,-87.59
2026-07-27 13:31:47.602,-0.28,0.06,3.84,-25.33,77.7,-7.32
2026-07-27 13:31:47.602,-0.28,0.06,3.84,-25.33,77.7,-7.32
2026-07-27 13:31:47.602,0.37,0.18,3.16,-53.16,167.72,48.95
2026-07-27 13:31:47.602,0.37,0.18,3.16,-53.16,167.72,48.95
2026-07-27 13:31:47.602,0.76,0.28,1.55,-115.05,210.57,86.18
2026-07-27 13:31:47.602,0.76,0.28,1.55,-115.05,210.57,86.18
2026-07-27 13:31:47.602,0.69,0.33,0.12,-155.7,192.38,120.54
2026-07-27 13:31:47.602,0.69,0.33,0.12,-129.09,131.65,140.26
2026-07-27 13:31:47.602,0.41,0.38,-0.55,-129.09,131.65,140.26
2026-07-27 13:31:47.602,0.17,0.53,-0.58,-47.49,53.89,126.28
2026-07-27 13:31:47.602,0.17,0.53,-0.58,-47.49,53.89,126.28
2026-07-27 13:31:47.602,0.03,0.68,-0.36,39.73,2.14,78.19
2026-07-27 13:31:47.602,0.03,0.68,-0.36,39.73,2.14,78.19
2026-07-27 13:31:47.602,-0.03,0.72,-0.12,101.81,-7.02,11.9
2026-07-27 13:31:47.607,-0.03,0.72,-0.12,101.81,-7.02,11.9
2026-07-27 13:31:49.033,-0.12,0.72,0.2,149.72,-3.05,-41.08
2026-07-27 13:31:49.048,-0.12,0.72,0.2,149.72,-3.05,-41.08
2026-07-27 13:31:49.058,-0.12,0.72,0.2,149.72,-3.05,-41.08
2026-07-27 13:31:49.058,-0.12,0.72,0.2,149.72,-3.05,-41.08
2026-07-27 13:31:49.058,-0.48,-0.28,1.12,173.4,-73.91,-67.63
2026-07-27 13:31:49.591,-0.48,-0.28,1.12,173.4,-73.91,-67.63
2026-07-27 13:31:49.863,-0.89,-0.6,1.72,151.25,-94.79,19.1
2026-07-27 13:31:49.872,-0.83,-0.63,1.34,84.17,-8.0,142.88
2026-07-27 13:31:49.872,-0.83,-0.63,1.34,84.17,-8.0,142.88
2026-07-27 13:31:49.872,-0.23,-0.45,0.33,-25.02,111.39,205.69
2026-07-27 13:31:49.872,-0.23,-0.45,0.33,-25.02,111.39,205.69
2026-07-27 13:31:49.873,0.3,-0.25,-0.52,-127.01,168.82,196.35
2026-07-27 13:31:49.873,0.3,-0.25,-0.52,-127.01,168.82,196.35
2026-07-27 13:31:49.873,0.33,-0.14,-0.65,-157.9,148.74,169.43
2026-07-27 13:31:50.785,0.33,-0.14,-0.65,-89.54,75.93,154.05
2026-07-27 13:31:50.785,-0.18,0.17,0.27,-89.54,75.93,154.05
2026-07-27 13:31:50.795,-0.92,0.66,1.52,2.87,27.71,156.13
2026-07-27 13:31:50.795,-0.92,0.66,1.52,2.87,27.71,156.13
2026-07-27 13:31:50.804,-1.25,0.9,2.09,44.19,80.14,162.84
2026-07-27 13:31:50.804,-1.25,0.9,2.09,44.19,80.14,162.84
2026-07-27 13:31:50.805,-0.91,0.74,2.07,3.48,183.84,132.08
2026-07-27 13:31:50.805,-0.91,0.74,2.07,3.48,183.84,132.08
2026-07-27 13:31:50.805,-0.61,0.41,2.11,-120.85,236.39,86.49
2026-07-27 13:31:50.805,-1.07,-0.21,1.16,-103.33,77.21,-46.69
2026-07-27 13:31:50.805,-0.87,-0.62,1.14,-146.97,96.5,-104.98
2026-07-27 13:31:50.806,-0.87,-0.62,1.14,-146.97,96.5,-104.98
2026-07-27 13:31:50.826,-0.73,-0.91,0.99,-170.1,112.24,-90.58
2026-07-27 13:31:50.827,-0.49,-0.89,0.68,-189.33,131.53,-24.6
2026-07-27 13:31:51.030,-0.49,-0.89,0.68,-189.33,131.53,-24.6
2026-07-27 13:31:51.030,-0.32,-0.86,0.09,-215.58,122.44,34.18
2026-07-27 13:31:51.061,-0.32,-0.86,0.09,-215.58,122.44,34.18
2026-07-27 13:31:51.065,-0.39,-0.83,-0.33,-214.9,61.28,99.12
2026-07-27 13:31:51.065,-0.39,-0.83,-0.33,-214.9,61.28,99.12
2026-07-27 13:31:51.065,-0.46,-0.42,-0.19,-192.14,1.46,185.24
2026-07-27 13:31:51.066,-0.37,0.2,0.06,-176.64,-3.85,232.12
2026-07-27 13:31:51.066,-0.37,0.2,0.06,-176.64,-3.85,232.12
2026-07-27 13:31:51.067,-0.23,0.5,0.01,-163.02,18.8,202.09
2026-07-27 13:31:51.075,-0.23,0.5,0.01,-163.02,18.8,202.09
2026-07-27 13:31:51.085,-0.26,0.49,-0.19,-147.34,26.49,137.39
2026-07-27 13:31:51.090,-0.26,0.49,-0.19,-147.34,26.49,137.39
2026-07-27 13:31:51.090,-0.42,0.47,-0.27,-141.17,9.28,88.5
2026-07-27 13:31:51.090,-0.42,0.47,-0.27,-141.17,9.28,88.5
2026-07-27 13:31:51.091,-0.58,0.55,-0.19,-136.96,-19.9,55.85
2026-07-27 13:31:51.092,-0.74,0.77,0.02,-126.16,-45.78,17.15
2026-07-27 13:31:51.093,-0.74,0.77,0.02,-126.16,-45.78,17.15
2026-07-27 13:31:51.093,-0.96,0.81,0.22,-121.09,-57.86,-36.13
2026-07-27 13:31:51.666,-0.96,0.81,0.22,-121.09,-57.86,-36.13
2026-07-27 13:31:51.666,-1.12,0.54,0.25,-110.35,-51.76,-43.64
2026-07-27 13:31:51.666,-1.12,0.54,0.25,-110.35,-51.76,-43.64
2026-07-27 13:31:51.667,-1.13,0.2,0.17,-105.59,-45.41,-2.38
2026-07-27 13:31:52.488,-1.13,0.2,0.17,-110.29,-38.94,36.56
2026-07-27 13:31:52.628,-0.97,0.0,0.1,-110.29,-38.94,36.56
2026-07-27 13:31:52.922,-0.76,0.13,0.05,-116.46,-28.02,87.71
2026-07-27 13:31:52.925,-0.76,0.13,0.05,-116.46,-28.02,87.71
2026-07-27 13:31:52.929,-0.68,0.46,-0.03,-138.67,-29.54,136.84
2026-07-27 13:31:52.939,-0.68,0.46,-0.03,-138.67,-29.54,136.84
2026-07-27 13:31:52.939,-0.69,0.84,-0.06,-141.78,-42.72,155.7
2026-07-27 13:31:52.939,-0.69,0.84,-0.06,-141.78,-42.72,155.7
2026-07-27 13:31:52.940,-0.76,1.3,0.18,-92.35,-53.16,151.25
2026-07-27 13:31:52.940,-0.82,1.68,0.5,-18.25,-40.16,117.07
2026-07-27 13:31:52.940,-0.82,1.68,0.5,-18.25,-40.16,117.07
2026-07-27 13:31:52.940,-0.74,1.48,0.46,23.5,5.49,21.85
2026-07-27 13:31:52.944,-0.69,0.63,0.42,4.09,-34.36,6.77
2026-07-27 13:31:52.955,-0.69,0.63,0.42,-5.19,-7.26,-19.59
2026-07-27 13:31:52.980,-0.7,0.56,0.37,-5.19,-7.26,-19.59
2026-07-27 13:31:52.981,-0.73,0.55,0.39,-4.46,-4.03,-24.66
2026-07-27 13:31:52.990,-0.73,0.55,0.39,-4.46,-4.03,-24.66
2026-07-27 13:31:53.231,-0.71,0.52,0.43,6.04,-23.19,8.67
2026-07-27 13:31:53.233,-0.71,0.52,0.43,6.04,-23.19,8.67
2026-07-27 13:31:53.240,-0.67,0.56,0.35,14.59,-13.37,28.75
2026-07-27 13:31:53.240,-0.67,0.56,0.35,14.59,-13.37,28.75
2026-07-27 13:31:53.240,-0.68,0.62,0.33,14.89,-9.77,35.34
2026-07-27 13:31:53.240,-0.68,0.62,0.33,14.89,-9.77,35.34
2026-07-27 13:31:53.240,-0.7,0.6,0.36,4.52,-6.77,13.67
2026-07-27 13:31:54.605,-0.7,0.6,0.36,4.52,-6.77,13.67
2026-07-27 13:31:54.630,-0.71,0.55,0.39,-2.75,-2.38,-4.64
2026-07-27 13:31:54.631,-0.57,0.65,0.47,-19.35,-4.58,11.96
2026-07-27 13:31:54.631,-0.51,0.68,0.45,2.08,-19.9,28.08
2026-07-27 13:31:54.783,-0.51,0.68,0.45,28.5,-38.15,49.26
2026-07-27 13:31:54.795,-0.41,0.74,0.43,28.5,-38.15,49.26
2026-07-27 13:31:54.795,-0.29,0.8,0.41,43.03,-52.37,63.42
2026-07-27 13:31:54.795,-0.29,0.8,0.41,43.03,-52.37,63.42
2026-07-27 13:31:54.796,-0.17,0.87,0.42,39.73,-56.64,63.48
2026-07-27 13:31:54.796,-0.17,0.87,0.42,39.73,-56.64,63.48
2026-07-27 13:31:54.796,-0.07,0.93,0.45,22.03,-46.63,45.53
2026-07-27 13:31:54.796,-0.07,0.93,0.45,22.03,-46.63,45.53
2026-07-27 13:31:54.796,-0.07,0.92,0.47,-4.09,-23.32,10.25
2026-07-27 13:31:54.797,-0.15,0.84,0.46,-29.91,3.97,-29.11
2026-07-27 13:31:54.797,-0.15,0.84,0.46,-29.91,3.97,-29.11
2026-07-27 13:31:54.797,-0.25,0.78,0.46,-43.33,19.78,-52.19
2026-07-27 13:31:54.797,-0.25,0.78,0.46,-43.33,19.78,-52.19
2026-07-27 13:31:54.797,-0.32,0.78,0.5,-41.38,20.57,-54.5
2026-07-27 13:31:54.805,-0.32,0.78,0.5,-41.38,20.57,-54.5
2026-07-27 13:31:54.805,-0.39,0.79,0.55,-35.1,18.13,-51.88
2026-07-27 13:31:54.807,-0.39,0.79,0.55,-35.1,18.13,-51.88
2026-07-27 13:31:54.813,-0.46,0.76,0.57,-33.69,21.24,-56.95
2026-07-27 13:31:54.813,-0.53,0.69,0.54,-35.34,28.08,-66.41
2026-07-27 13:31:54.813,-0.53,0.69,0.54,-35.34,28.08,-66.41
2026-07-27 13:31:54.813,-0.54,0.63,0.53,-34.3,24.41,-65.37
2026-07-27 13:31:54.813,-0.54,0.63,0.53,-34.3,24.41,-65.37
2026-07-27 13:31:54.813,-0.5,0.63,0.6,-24.6,8.06,-50.48
2026-07-27 13:31:54.813,-0.5,0.63,0.6,13.92,12.57,-45.41
2026-07-27 13:31:54.813,-0.45,0.79,0.65,13.92,12.57,-45.41
2026-07-27 13:31:54.813,-0.44,1.07,0.54,99.3,58.35,-64.51
2026-07-27 13:31:55.207,-0.44,1.07,0.54,99.3,58.35,-64.51
2026-07-27 13:31:55.216,-0.48,1.22,0.31,158.51,93.38,-99.49
2026-07-27 13:31:55.216,-0.48,1.22,0.31,158.51,93.38,-99.49
2026-07-27 13:31:55.216,-0.52,1.05,0.07,113.46,71.78,-153.08
2026-07-27 13:31:55.217,-0.55,-0.86,0.42,-84.35,-167.05,-145.63
2026-07-27 13:31:55.217,-0.55,-0.86,0.42,-84.35,-167.05,-145.63
2026-07-27 13:31:55.217,-0.69,-0.67,0.97,-67.69,-183.59,-67.02
2026-07-27 13:31:55.217,-0.93,-0.29,1.52,-0.24,-126.59,-9.4
2026-07-27 13:31:55.217,-0.5,0.3,1.24,-42.6,-62.19,13.85
2026-07-27 13:31:55.217,-0.51,0.6,0.68,-5.49,-1.83,4.88
2026-07-27 13:31:55.217,-0.51,0.6,0.68,1.71,2.2,6.29
2026-07-27 13:31:55.217,-0.5,0.62,0.64,1.71,2.2,6.29
2026-07-27 13:31:55.217,-0.5,0.62,0.58,10.07,5.92,4.46
2026-07-27 13:31:55.218,-0.5,0.62,0.58,10.07,5.92,4.46
2026-07-27 13:31:55.218,-0.51,0.62,0.58,9.7,5.37,2.26
2026-07-27 13:31:55.218,-0.51,0.62,0.58,9.7,5.37,2.26
2026-07-27 13:31:55.218,-0.52,0.61,0.6,2.93,2.81,-0.37
2026-07-27 13:31:55.218,-0.52,0.61,0.6,2.93,2.81,-0.37
2026-07-27 13:31:55.218,-0.53,0.6,0.61,-1.53,1.53,-3.05
2026-07-27 13:31:55.218,-0.53,0.6,0.61,-1.53,1.53,-3.05
2026-07-27 13:31:56.224,-0.53,0.59,0.61,-0.18,1.77,-4.21
2026-07-27 13:31:56.942,-0.53,0.59,0.61,-0.18,1.77,-4.21
2026-07-27 13:31:56.957,-0.53,0.6,0.6,2.99,2.69,-3.05
2026-07-27 13:31:56.958,-0.53,0.6,0.6,7.14,3.72,-0.92
2026-07-27 13:31:56.958,-0.52,0.65,0.6,7.14,3.72,-0.92
2026-07-27 13:31:56.986,-0.49,0.61,0.5,19.9,7.14,-3.48
2026-07-27 13:31:57.067,-0.49,0.61,0.5,19.9,7.14,-3.48
2026-07-27 13:31:57.067,-0.49,0.55,0.41,41.32,4.58,-3.78
2026-07-27 13:31:57.067,-0.49,0.55,0.41,41.32,4.58,-3.78
2026-07-27 13:31:57.073,-0.53,0.65,0.53,39.79,-12.33,8.12
2026-07-27 13:31:57.074,-0.53,0.65,0.53,39.79,-12.33,8.12
2026-07-27 13:31:57.074,-0.53,0.7,0.65,6.41,-22.52,12.02
2026-07-27 13:31:57.420,-0.67,0.79,0.67,88.26,48.03,-75.87
2026-07-27 13:31:57.420,-0.67,0.79,0.67,88.26,48.03,-75.87
2026-07-27 13:31:57.421,-0.63,0.74,0.39,149.78,65.73,-89.05
2026-07-27 13:31:57.424,-0.72,0.52,-0.11,167.79,95.7,-101.38
2026-07-27 13:31:57.424,-0.72,0.08,-0.33,200.81,116.03,-87.28
2026-07-27 13:31:57.424,-0.65,-0.16,-0.41,218.2,65.8,-91.61
2026-07-27 13:31:57.424,-0.65,-0.16,-0.41,218.2,65.8,-91.61
2026-07-27 13:31:57.425,-0.56,-0.34,-0.47,185.0,0.98,-111.45
2026-07-27 13:31:57.425,-0.56,-0.34,-0.47,185.0,0.98,-111.45
2026-07-27 13:31:57.425,-0.55,-0.46,-0.46,135.44,-48.34,-112.73
2026-07-27 13:31:57.426,-0.55,-0.46,-0.46,135.44,-48.34,-112.73
2026-07-27 13:31:57.426,-0.65,-0.4,-0.36,104.98,-78.43,-82.46
2026-07-27 13:31:57.426,-0.65,-0.4,-0.36,52.98,-108.03,-85.94
2026-07-27 13:31:57.426,-0.96,-0.3,-0.25,52.98,-108.03,-85.94
2026-07-27 13:31:57.427,-1.13,-0.29,-0.06,3.17,-127.01,-141.66
2026-07-27 13:31:57.428,-1.13,-0.29,-0.06,3.17,-127.01,-141.66
2026-07-27 13:31:57.428,-0.89,-0.42,0.13,25.09,-102.66,-186.4
2026-07-27 13:31:57.429,-0.89,-0.42,0.13,25.09,-102.66,-186.4
2026-07-27 13:31:57.430,-0.59,-0.64,0.26,73.79,-68.91,-169.86
2026-07-27 13:31:57.431,-0.59,-0.64,0.26,73.79,-68.91,-169.86
2026-07-27 13:31:57.431,-0.53,-0.74,0.53,91.67,-68.79,-101.01
2026-07-27 13:31:57.431,-0.71,-0.68,0.76,79.96,-74.22,-25.45
2026-07-27 13:31:57.433,-0.71,-0.68,0.76,79.96,-74.22,-25.45
2026-07-27 13:31:57.434,-0.86,-0.54,0.7,59.27,-51.64,19.9
2026-07-27 13:31:57.434,-0.86,-0.54,0.7,59.27,-51.64,19.9
2026-07-27 13:31:57.434,-0.86,-0.43,0.39,50.54,-12.21,35.1
2026-07-27 13:31:57.434,-0.75,-0.46,0.05,45.59,5.68,24.41
2026-07-27 13:31:57.434,-0.75,-0.46,0.05,45.59,5.68,24.41
2026-07-27 13:31:57.434,-0.44,-0.57,-0.19,23.74,-22.83,-26.67
2026-07-27 13:31:57.435,-0.44,-0.57,-0.19,23.74,-22.83,-26.67
2026-07-27 13:31:57.437,0.13,-0.71,-0.32,-27.16,-66.47,-98.14
2026-07-27 13:31:57.438,0.13,-0.71,-0.32,-27.16,-66.47,-98.14
2026-07-27 13:31:57.438,0.57,-0.78,-0.29,-54.38,-75.07,-106.26
2026-07-27 13:31:57.439,0.57,-0.78,-0.29,-54.38,-75.07,-106.26
2026-07-27 13:31:57.439,0.41,-0.28,0.18,28.32,-60.97,5.98
2026-07-27 13:31:57.440,-0.33,0.41,0.99,136.72,-74.89,125.55
2026-07-27 13:31:57.441,-0.33,0.41,0.99,136.72,-74.89,125.55
2026-07-27 13:31:57.442,-0.93,0.21,1.66,115.48,-148.19,61.77
2026-07-27 13:31:57.482,-0.93,0.21,1.66,115.48,-148.19,61.77
2026-07-27 13:31:57.482,-0.91,-0.76,1.89,24.05,-238.89,-159.0
2026-07-27 13:31:58.203,-0.91,-0.76,1.89,24.05,-238.89,-159.0
2026-07-27 13:31:58.203,-0.63,-1.49,1.59,-15.93,-241.33,-296.39
2026-07-27 13:31:58.203,-0.63,-1.49,1.59,1.46,-147.16,-221.92
2026-07-27 13:31:58.203,-0.55,-1.43,1.16,1.46,-147.16,-221.92
2026-07-27 13:31:58.204,-0.67,-0.92,1.02,39.43,-41.75,-41.5
2026-07-27 13:31:58.204,-0.67,-0.92,1.02,39.43,-41.75,-41.5
2026-07-27 13:31:58.204,-0.76,-0.48,1.14,65.55,27.34,84.96
2026-07-27 13:31:58.204,-0.76,-0.48,1.14,65.55,27.34,84.96
2026-07-27 13:31:58.205,-0.69,-0.32,1.29,65.98,61.22,105.16
2026-07-27 13:31:58.205,-0.69,-0.32,1.29,65.98,61.22,105.16
2026-07-27 13:31:58.205,-0.9,0.12,1.07,128.78,44.43,14.28
2026-07-27 13:31:58.206,-0.29,1.66,1.41,87.16,-177.67,-3.42
2026-07-27 13:31:58.206,0.12,1.78,1.16,99.98,-116.58,37.72
2026-07-27 13:31:58.206,0.12,1.78,1.16,99.98,-116.58,37.72
2026-07-27 13:31:58.207,0.45,1.46,0.69,99.91,-65.61,42.79
2026-07-27 13:31:58.207,0.45,1.46,0.69,99.91,-65.61,42.79
2026-07-27 13:31:58.207,0.04,1.09,0.69,114.75,-93.14,16.97
2026-07-27 13:31:58.208,0.04,1.09,0.69,114.75,-93.14,16.97
2026-07-27 13:31:58.211,-0.84,1.01,1.03,133.42,-144.47,5.31
2026-07-27 13:31:58.212,-0.84,1.01,1.03,133.42,-144.47,5.31
2026-07-27 13:31:58.212,-1.42,0.98,1.16,113.04,-135.44,2.87
2026-07-27 13:31:58.213,1.49,1.28,0.97,84.17,454.77,70.74
2026-07-27 13:31:58.214,1.84,0.86,0.2,71.23,353.45,-17.4
2026-07-27 13:31:58.214,1.74,0.48,-0.21,36.87,195.37,-103.7
2026-07-27 13:31:58.218,1.74,0.48,-0.21,36.87,195.37,-103.7
2026-07-27 13:31:58.218,1.32,0.23,-0.15,2.69,44.07,-109.07
2026-07-27 13:31:58.219,1.32,0.23,-0.15,2.69,44.07,-109.07
2026-07-27 13:31:58.219,0.87,0.16,0.24,-44.37,-83.44,-46.33
2026-07-27 13:31:58.219,0.87,0.16,0.24,-44.37,-83.44,-46.33
2026-07-27 13:31:58.219,0.37,0.26,0.88,-121.28,-209.84,3.17
2026-07-27 13:31:58.219,0.37,0.26,0.88,-121.28,-209.84,3.17
2026-07-27 13:31:58.219,-0.19,0.36,1.52,-185.97,-310.0,-9.77
2026-07-27 13:31:58.220,-0.41,0.27,1.69,-197.2,-340.21,-77.39
2026-07-27 13:31:58.220,-0.41,0.27,1.69,-197.2,-340.21,-77.39
2026-07-27 13:31:58.220,-0.16,0.01,1.52,-185.3,-324.95,-165.95
2026-07-27 13:31:58.220,-0.16,0.01,1.52,-185.3,-324.95,-165.95
2026-07-27 13:31:58.220,0.07,-0.17,1.54,-167.36,-309.02,-211.98
2026-07-27 13:31:58.221,0.07,-0.17,1.54,-167.36,-309.02,-211.98
2026-07-27 13:31:58.222,0.01,-0.05,1.8,-128.05,-295.1,-171.75
2026-07-27 13:31:58.224,-0.16,0.18,1.96,-100.34,-285.28,-108.64
2026-07-27 13:31:58.224,-0.16,0.18,1.96,-100.34,-285.28,-108.64
2026-07-27 13:31:58.224,-0.26,0.34,1.8,-107.18,-278.5,-67.38
2026-07-27 13:31:58.225,-0.26,0.34,1.8,-107.18,-278.5,-67.38
2026-07-27 13:31:58.225,-0.41,0.5,1.37,-107.42,-238.1,-19.78
2026-07-27 13:31:58.225,-0.41,0.5,1.37,-107.42,-238.1,-19.78
2026-07-27 13:31:58.225,-0.51,0.76,0.91,-56.52,-118.1,17.52
2026-07-27 13:31:58.225,-0.52,1.06,0.65,28.63,29.85,33.2
2026-07-27 13:31:58.226,-0.52,1.06,0.65,28.63,29.85,33.2
2026-07-27 13:31:58.226,-0.47,1.09,0.73,70.07,67.44,26.73
2026-07-27 13:31:58.227,-0.47,1.09,0.73,70.07,67.44,26.73
2026-07-27 13:31:58.227,-0.29,0.84,1.07,44.13,-8.42,-40.47
2026-07-27 13:31:58.228,-0.29,0.84,1.07,44.13,-8.42,-40.47
2026-07-27 13:31:58.228,-0.11,0.6,1.29,16.91,-68.05,-97.29
2026-07-27 13:31:58.229,-0.11,0.6,1.29,16.91,-68.05,-97.29
2026-07-27 13:31:58.229,-0.06,0.45,1.24,46.45,-40.71,-48.03
2026-07-27 13:31:58.230,-0.06,0.45,1.24,87.22,25.33,40.95
2026-07-27 13:31:59.106,-0.06,0.39,1.01,87.22,25.33,40.95
2026-07-27 13:31:59.123,-0.06,0.38,0.75,81.18,61.1,81.42
2026-07-27 13:31:59.124,-0.06,0.38,0.75,81.18,61.1,81.42
2026-07-27 13:31:59.153,-0.07,0.38,0.62,52.67,61.34,71.47
2026-07-27 13:31:59.153,-0.07,0.38,0.62,52.67,61.34,71.47
2026-07-27 13:31:59.166,-0.05,0.38,0.63,39.49,54.02,41.81
2026-07-27 13:31:59.166,0.03,0.35,0.73,47.91,54.63,5.68
2026-07-27 13:31:59.166,0.03,0.35,0.73,47.91,54.63,5.68
2026-07-27 13:31:59.167,0.15,0.28,0.93,62.74,57.43,-32.59
2026-07-27 13:31:59.167,0.15,0.28,0.93,62.74,57.43,-32.59
2026-07-27 13:31:59.167,0.36,0.18,1.18,63.17,53.53,-66.04
2026-07-27 13:31:59.167,0.36,0.18,1.18,63.17,53.53,-66.04
2026-07-27 13:31:59.167,0.7,-0.05,1.36,35.4,46.75,-84.35
2026-07-27 13:31:59.167,0.7,-0.05,1.36,-15.75,50.78,-42.72
2026-07-27 13:31:59.167,0.97,-0.21,1.34,-15.75,50.78,-42.72
2026-07-27 13:31:59.167,1.0,0.13,1.22,-70.43,84.17,100.04
2026-07-27 13:31:59.167,1.0,0.13,1.22,-70.43,84.17,100.04
2026-07-27 13:31:59.167,0.81,0.85,0.99,-105.53,146.06,269.65
2026-07-27 13:31:59.167,0.81,0.85,0.99,-105.53,146.06,269.65
2026-07-27 13:31:59.167,0.57,1.24,0.64,-94.73,196.11,324.34
2026-07-27 13:31:59.174,0.57,1.24,0.64,-38.7,188.05,229.98
2026-07-27 13:31:59.174,0.45,1.11,0.43,-38.7,188.05,229.98
2026-07-27 13:31:59.174,0.46,0.85,0.4,11.47,116.21,73.61
2026-07-27 13:31:59.175,0.46,0.85,0.4,11.47,116.21,73.61
2026-07-27 13:31:59.175,0.54,0.71,0.45,20.26,14.71,-60.18
2026-07-27 13:31:59.180,0.54,0.71,0.45,20.26,14.71,-60.18
2026-07-27 13:31:59.180,0.59,0.66,0.53,13.73,-74.1,-133.06
2026-07-27 13:31:59.180,0.59,0.66,0.53,13.73,-74.1,-133.06
2026-07-27 13:31:59.181,0.58,0.61,0.63,24.78,-125.92,-140.08
2026-07-27 13:31:59.181,0.52,0.56,0.72,46.02,-148.86,-109.86
2026-07-27 13:31:59.181,0.52,0.56,0.72,46.02,-148.86,-109.86
2026-07-27 13:31:59.181,0.47,0.53,0.81,55.48,-165.22,-83.44
2026-07-27 13:31:59.181,0.47,0.53,0.81,55.48,-165.22,-83.44
2026-07-27 13:31:59.181,0.46,0.49,0.89,49.68,-183.84,-80.02
2026-07-27 13:31:59.184,0.46,0.49,0.89,49.68,-183.84,-80.02
2026-07-27 13:31:59.184,0.44,0.4,0.96,34.61,-202.15,-88.26
2026-07-27 13:31:59.191,0.44,0.4,0.96,14.65,-208.5,-74.83
2026-07-27 13:31:59.192,0.35,0.31,0.97,14.65,-208.5,-74.83
2026-07-27 13:31:59.192,0.22,0.35,0.92,-3.48,-183.35,-11.96
2026-07-27 13:32:00.721,0.22,0.35,0.92,-3.48,-183.35,-11.96
2026-07-27 13:32:00.722,0.13,0.52,0.84,-9.77,-125.0,82.28
2026-07-27 13:32:00.722,0.13,0.52,0.84,-9.77,-125.0,82.28
2026-07-27 13:32:00.722,0.05,0.73,0.75,0.79,-59.39,156.25
2026-07-27 13:32:00.723,-0.01,0.9,0.7,20.51,-8.54,174.01
2026-07-27 13:32:00.723,-0.01,0.9,0.7,20.51,-8.54,174.01
2026-07-27 13:32:00.723,0.01,0.93,0.75,32.71,21.48,127.69
2026-07-27 13:32:00.723,0.01,0.93,0.75,32.71,21.48,127.69
2026-07-27 13:32:00.724,0.15,0.87,0.89,25.51,39.61,45.72
2026-07-27 13:32:00.725,0.15,0.87,0.89,25.51,39.61,45.72
2026-07-27 13:32:00.975,0.15,0.87,0.89,25.51,39.61,45.72
2026-07-27 13:32:00.996,0.15,0.87,0.89,25.51,39.61,45.72
2026-07-27 13:32:01.035,0.47,0.84,1.03,-3.23,95.4,-71.29
2026-07-27 13:32:01.035,0.6,0.79,1.04,-4.82,117.31,-118.71
2026-07-27 13:32:01.039,0.6,0.79,1.04,-4.82,117.31,-118.71
2026-07-27 13:32:01.082,0.7,0.68,1.02,-6.47,119.57,-165.89
2026-07-27 13:32:01.440,0.7,0.68,1.02,-6.47,119.57,-165.89
2026-07-27 13:32:01.440,0.77,0.56,0.98,-15.5,106.69,-196.11
2026-07-27 13:32:01.440,0.77,0.56,0.98,-15.5,106.69,-196.11
2026-07-27 13:32:01.441,0.81,0.46,0.91,-30.64,88.2,-199.77
2026-07-27 13:32:01.442,0.81,0.46,0.91,-43.4,67.38,-179.99
2026-07-27 13:32:01.442,0.84,0.37,0.84,-43.4,67.38,-179.99
2026-07-27 13:32:01.444,0.86,0.28,0.79,-46.45,41.26,-144.84
2026-07-27 13:32:01.444,0.86,0.28,0.79,-46.45,41.26,-144.84
2026-07-27 13:32:01.444,0.88,0.17,0.76,-41.75,6.77,-97.96
2026-07-27 13:32:01.444,0.88,0.17,0.76,-41.75,6.77,-97.96
2026-07-27 13:32:01.444,0.91,0.09,0.72,-40.16,-32.9,-37.72
2026-07-27 13:32:01.448,0.91,0.09,0.72,-40.16,-32.9,-37.72
2026-07-27 13:32:01.448,0.99,0.07,0.64,-49.19,-73.43,28.69
2026-07-27 13:32:01.448,0.99,0.07,0.64,-56.88,-126.22,87.34
2026-07-27 13:32:01.454,1.05,0.13,0.71,-56.88,-126.22,87.34
2026-07-27 13:32:01.454,0.98,0.22,1.08,-54.44,-204.53,127.87
2026-07-27 13:32:01.454,0.98,0.22,1.08,-54.44,-204.53,127.87
2026-07-27 13:32:01.454,0.7,0.22,1.74,-54.08,-302.06,124.02
2026-07-27 13:32:01.455,0.7,0.22,1.74,-54.08,-302.06,124.02
2026-07-27 13:32:01.455,0.23,0.02,2.45,-80.99,-392.03,57.19
2026-07-27 13:32:01.455,0.23,0.02,2.45,-80.99,-392.03,57.19
2026-07-27 13:32:01.455,-0.28,0.5,2.08,-163.09,-380.07,-21.91
2026-07-27 13:32:01.455,-0.28,1.25,1.0,-279.48,-301.57,-124.76
2026-07-27 13:32:01.456,-0.28,1.25,1.0,-279.48,-301.57,-124.76
2026-07-27 13:32:01.456,0.39,0.93,0.56,-277.16,-210.39,-177.0
2026-07-27 13:32:01.457,0.39,0.93,0.56,-277.16,-210.39,-177.0
2026-07-27 13:32:01.457,0.97,0.33,0.47,-95.46,-60.85,-89.48
2026-07-27 13:32:01.460,0.97,0.33,0.47,-95.46,-60.85,-89.48
2026-07-27 13:32:01.460,1.06,0.13,0.41,76.66,42.91,5.13
2026-07-27 13:32:01.460,0.9,0.16,0.44,103.39,39.49,16.91
2026-07-27 13:32:01.460,0.9,0.16,0.44,103.39,39.49,16.91
2026-07-27 13:32:01.460,0.83,0.25,0.57,33.51,1.28,-19.1
2026-07-27 13:32:01.461,0.83,0.25,0.57,33.51,1.28,-19.1
2026-07-27 13:32:01.491,0.95,0.39,0.49,-32.17,3.97,-41.93
2026-07-27 13:32:01.492,0.95,0.39,0.49,-32.17,3.97,-41.93
2026-07-27 13:32:02.290,1.11,0.68,0.2,-65.55,44.37,-33.02
2026-07-27 13:32:02.322,1.11,0.68,0.2,-65.55,44.37,-33.02
2026-07-27 13:32:02.323,1.02,0.73,0.2,-78.74,53.53,-8.06
2026-07-27 13:32:02.323,1.02,0.73,0.2,-78.74,53.53,-8.06
2026-07-27 13:32:02.323,0.72,0.61,0.32,-87.52,36.68,-3.3
2026-07-27 13:32:02.323,0.56,0.56,0.3,-101.2,27.22,-35.22
2026-07-27 13:32:02.323,0.56,0.56,0.3,-101.2,27.22,-35.22
2026-07-27 13:32:02.323,0.61,0.43,0.29,-93.02,29.48,-71.78
2026-07-27 13:32:02.323,0.61,0.43,0.29,-93.02,29.48,-71.78
2026-07-27 13:32:02.323,0.68,0.33,0.31,-54.69,47.36,-77.09
2026-07-27 13:32:02.323,0.52,0.25,0.65,0.06,12.27,-18.31
2026-07-27 13:32:02.323,0.56,0.13,0.69,32.84,-2.32,14.95
2026-07-27 13:32:02.323,0.56,0.13,0.69,32.84,-2.32,14.95
2026-07-27 13:32:02.323,0.57,0.35,0.8,83.5,4.15,106.57
2026-07-27 13:32:02.323,0.51,0.92,0.87,134.7,38.64,232.18
2026-07-27 13:32:02.329,0.51,0.92,0.87,134.7,38.64,232.18
2026-07-27 13:32:02.340,0.33,1.27,0.9,204.41,83.5,310.55
2026-07-27 13:32:02.341,0.33,1.27,0.9,204.41,83.5,310.55
2026-07-27 13:32:02.342,0.14,1.01,1.02,271.85,128.17,265.93
2026-07-27 13:32:02.344,0.14,1.01,1.02,271.85,128.17,265.93
2026-07-27 13:32:02.344,0.66,0.28,1.39,75.01,74.22,-178.04
2026-07-27 13:32:02.344,0.66,0.28,1.39,75.01,74.22,-178.04
2026-07-27 13:32:02.347,1.01,0.32,1.49,-76.42,47.79,-305.66
2026-07-27 13:32:02.353,1.01,0.32,1.49,-76.42,47.79,-305.66
2026-07-27 13:32:02.353,1.14,0.39,1.46,-148.25,68.66,-306.03
2026-07-27 13:32:02.354,1.14,0.39,1.46,-148.25,68.66,-306.03
2026-07-27 13:32:02.354,0.19,0.58,0.93,34.67,-50.35,106.08
2026-07-27 13:32:02.354,0.18,0.68,0.99,34.67,-50.35,106.08
2026-07-27 13:32:02.354,0.15,0.97,1.02,76.6,-51.57,121.15
2026-07-27 13:32:02.354,0.15,0.97,1.02,76.6,-51.57,121.15
2026-07-27 13:32:02.355,0.13,1.19,0.95,122.07,-13.55,137.7
2026-07-27 13:32:02.356,0.13,1.19,0.95,122.07,-13.55,137.7
2026-07-27 13:32:02.356,0.09,1.09,0.84,138.55,-3.42,86.85
2026-07-27 13:32:02.356,0.09,1.09,0.84,138.55,-3.42,86.85
2026-07-27 13:32:02.356,0.11,0.88,0.79,108.89,-46.26,-31.07
2026-07-27 13:32:02.356,0.11,0.88,0.79,56.21,-100.59,-162.72
2026-07-27 13:32:02.356,0.26,0.76,0.78,56.21,-100.59,-162.72
2026-07-27 13:32:02.357,0.46,0.65,0.8,16.17,-148.38,-271.0
2026-07-27 13:32:02.357,0.46,0.65,0.8,16.17,-148.38,-271.0
2026-07-27 13:32:02.358,0.61,0.39,0.82,-8.54,-196.72,-338.62
2026-07-27 13:32:02.358,0.61,0.39,0.82,-8.54,-196.72,-338.62
2026-07-27 13:32:02.358,0.58,-0.01,0.79,-26.06,-230.77,-346.5
2026-07-27 13:32:02.358,0.58,-0.01,0.79,-26.06,-230.77,-346.5
2026-07-27 13:32:02.358,0.58,-0.01,0.79,-26.06,-230.77,-346.5
2026-07-27 13:32:02.358,0.58,-0.01,0.79,-26.06,-230.77,-346.5
2026-07-27 13:32:02.358,0.16,-0.28,0.79,6.71,-173.03,-171.69
2026-07-27 13:32:02.358,0.16,-0.28,0.79,43.33,-99.91,-46.33
2026-07-27 13:32:02.358,0.02,-0.06,0.91,43.33,-99.91,-46.33
2026-07-27 13:32:02.361,0.03,0.22,1.08,64.51,-38.27,34.24
2026-07-27 13:32:02.361,0.03,0.22,1.08,64.51,-38.27,34.24
2026-07-27 13:32:02.361,0.17,0.4,1.3,55.3,-16.24,35.52
2026-07-27 13:32:02.362,0.17,0.4,1.3,55.3,-16.24,35.52
2026-07-27 13:32:02.362,0.21,0.42,1.54,20.87,-39.67,-16.78
2026-07-27 13:32:02.362,0.21,0.42,1.54,20.87,-39.67,-16.78
2026-07-27 13:32:02.362,0.09,0.31,1.67,-31.19,-82.52,-64.03
2026-07-27 13:32:02.362,0.09,0.31,1.67,-87.95,-90.03,-60.79
2026-07-27 13:32:02.362,-0.0,0.24,1.64,-87.95,-90.03,-60.79
2026-07-27 13:32:02.956,-0.07,0.36,1.59,-101.07,-24.23,17.09
2026-07-27 13:32:03.182,-0.07,0.36,1.59,-101.07,-24.23,17.09
2026-07-27 13:32:03.192,-0.19,0.57,1.57,-54.5,91.49,129.64
2026-07-27 13:32:03.193,-0.19,0.57,1.57,-54.5,91.49,129.64
2026-07-27 13:32:03.193,-0.25,0.74,1.5,-17.33,196.04,182.98
2026-07-27 13:32:03.193,-0.16,0.83,1.3,-36.38,246.4,143.01
2026-07-27 13:32:03.193,0.01,0.8,1.02,-64.94,253.42,69.34
2026-07-27 13:32:03.193,0.01,0.8,1.02,-64.94,253.42,69.34
2026-07-27 13:32:03.193,0.14,0.66,0.77,-48.03,253.66,27.65
2026-07-27 13:32:03.193,0.14,0.66,0.77,-48.03,253.66,27.65
2026-07-27 13:32:03.202,0.25,0.48,0.58,-5.37,248.05,18.07
2026-07-27 13:32:03.202,0.34,0.29,0.45,11.84,205.2,5.19
2026-07-27 13:32:03.202,0.34,0.29,0.45,11.84,205.2,5.19
2026-07-27 13:32:03.202,0.4,0.15,0.35,-7.39,116.7,-18.19
2026-07-27 13:32:03.202,0.4,0.15,0.35,-7.39,116.7,-18.19
2026-07-27 13:32:03.211,0.45,0.07,0.28,-41.69,-3.42,-33.63
2026-07-27 13:32:03.211,0.45,0.07,0.28,-41.69,-3.42,-33.63
2026-07-27 13:32:03.211,0.57,0.1,0.27,-60.73,-128.97,-25.88
2026-07-27 13:32:03.212,0.57,0.1,0.27,-52.25,-221.62,13.24
2026-07-27 13:32:03.212,0.75,0.19,0.49,-52.25,-221.62,13.24
2026-07-27 13:32:03.212,0.91,0.3,0.86,0.55,-248.72,72.75
2026-07-27 13:32:03.212,0.91,0.3,0.86,0.55,-248.72,72.75
2026-07-27 13:32:03.212,0.96,0.47,1.16,79.22,-221.19,140.44
2026-07-27 13:32:03.212,0.96,0.47,1.16,79.22,-221.19,140.44
2026-07-27 13:32:03.212,0.77,0.64,1.34,110.9,-174.26,193.36
2026-07-27 13:32:03.212,0.77,0.64,1.34,66.53,-121.58,187.19
2026-07-27 13:32:03.212,0.4,0.76,1.38,66.53,-121.58,187.19
2026-07-27 13:32:03.212,0.07,0.77,1.24,-24.29,-71.9,111.08
2026-07-27 13:32:03.212,0.07,0.77,1.24,-24.29,-71.9,111.08
2026-07-27 13:32:03.212,-0.1,0.68,1.03,-94.67,-45.23,16.6
2026-07-27 13:32:03.212,-0.1,0.68,1.03,-94.67,-45.23,16.6
2026-07-27 13:32:03.212,-0.11,0.56,0.9,-97.53,-52.31,-36.38
2026-07-27 13:32:03.212,-0.11,0.56,0.9,-97.53,-52.31,-36.38
2026-07-27 13:32:03.853,-0.03,0.47,0.91,-50.84,-68.66,-38.7
2026-07-27 13:32:04.809,-0.03,0.47,0.91,5.86,-69.95,-13.55
2026-07-27 13:32:04.813,0.07,0.44,1.0,5.86,-69.95,-13.55
2026-07-27 13:32:04.984,0.23,0.48,1.14,52.73,-54.26,12.21
2026-07-27 13:32:05.105,0.23,0.48,1.14,52.73,-54.26,12.21
2026-07-27 13:32:05.110,0.43,0.6,1.29,88.38,-30.46,26.0
2026-07-27 13:32:05.111,0.43,0.6,1.29,88.38,-30.46,26.0
2026-07-27 13:32:05.117,0.45,0.69,1.43,118.04,-5.74,37.05
2026-07-27 13:32:05.117,0.45,0.69,1.43,118.04,-5.74,37.05
2026-07-27 13:32:05.117,0.28,0.62,1.36,120.42,23.38,44.98
2026-07-27 13:32:05.117,0.19,0.45,1.06,80.38,57.37,35.89
2026-07-27 13:32:05.117,0.19,0.45,1.06,80.38,57.37,35.89
2026-07-27 13:32:05.117,0.24,0.3,0.76,39.73,85.33,21.85
2026-07-27 13:32:05.118,0.24,0.3,0.76,39.73,85.33,21.85
2026-07-27 13:32:05.118,0.34,0.27,0.69,44.37,97.29,29.66
2026-07-27 13:32:05.118,0.34,0.27,0.69,44.37,97.29,29.66
2026-07-27 13:32:05.118,0.34,0.35,0.85,92.04,96.19,64.76
2026-07-27 13:32:05.118,0.25,0.49,1.09,142.58,97.23,96.31
2026-07-27 13:32:05.118,0.25,0.49,1.09,142.58,97.23,96.31
2026-07-27 13:32:05.118,0.21,0.56,1.18,152.65,107.85,84.29
2026-07-27 13:32:05.118,0.21,0.56,1.18,152.65,107.85,84.29
2026-07-27 13:32:05.118,0.26,0.5,1.11,108.95,112.67,24.23
2026-07-27 13:32:05.118,0.38,0.42,1.01,34.24,97.84,-51.33
2026-07-27 13:32:05.118,0.38,0.42,1.01,34.24,97.84,-51.33
2026-07-27 13:32:05.118,0.51,0.38,0.94,-37.84,76.54,-106.38
2026-07-27 13:32:05.118,0.51,0.38,0.94,-37.84,76.54,-106.38
2026-07-27 13:32:05.118,0.6,0.36,0.91,-85.14,65.19,-127.69
2026-07-27 13:32:05.119,0.6,0.36,0.91,-85.14,65.19,-127.69
2026-07-27 13:32:05.120,0.63,0.3,0.87,-104.55,64.94,-118.84
2026-07-27 13:32:05.121,0.63,0.3,0.87,-98.51,68.42,-81.73
2026-07-27 13:32:05.121,0.62,0.26,0.77,-98.51,68.42,-81.73
2026-07-27 13:32:05.409,0.64,0.35,0.63,-66.16,67.75,-20.2
2026-07-27 13:32:05.425,0.64,0.35,0.63,-66.16,67.75,-20.2
2026-07-27 13:32:05.834,0.51,0.55,0.54,-14.77,55.3,53.22
2026-07-27 13:32:06.673,0.51,0.55,0.54,-14.77,55.3,53.22
2026-07-27 13:32:06.673,0.16,0.76,0.53,34.55,30.76,122.62
2026-07-27 13:32:06.674,0.16,0.76,0.53,34.55,30.76,122.62
2026-07-27 13:32:06.674,-0.12,0.96,0.5,51.64,14.22,158.69
2026-07-27 13:32:07.683,-0.1,1.03,0.49,37.78,10.93,138.73
2026-07-27 13:32:07.693,-0.1,1.03,0.49,37.78,10.93,138.73
2026-07-27 13:32:07.693,0.03,0.94,0.64,22.83,-3.42,84.11
2026-07-27 13:32:07.693,0.03,0.94,0.64,22.83,-3.42,84.11
2026-07-27 13:32:07.693,0.07,0.75,0.88,6.47,-42.3,28.02
2026-07-27 13:32:07.693,0.07,0.75,0.88,6.47,-42.3,28.02
2026-07-27 13:32:07.694,0.02,0.53,1.04,-18.92,-79.9,-9.52
2026-07-27 13:32:07.694,0.02,0.53,1.04,-18.92,-79.9,-9.52
2026-07-27 13:32:07.694,-0.05,0.42,1.02,-37.6,-78.74,-9.77
2026-07-27 13:32:07.694,-0.05,0.42,1.02,-37.54,-42.05,22.03
2026-07-27 13:32:07.694,-0.11,0.44,0.9,-37.54,-42.05,22.03
2026-07-27 13:32:07.694,-0.13,0.52,0.85,-29.48,0.12,57.86
2026-07-27 13:32:07.698,-0.13,0.52,0.85,-29.48,0.12,57.86
2026-07-27 13:32:07.735,-0.17,0.52,0.92,-33.39,30.46,84.66
2026-07-27 13:32:07.735,-0.17,0.52,0.92,-33.39,30.46,84.66
2026-07-27 13:32:07.735,-0.27,0.43,1.02,-55.05,55.24,115.91
2026-07-27 13:32:07.735,-0.27,0.43,1.02,-55.05,55.24,115.91
2026-07-27 13:32:08.866,-0.31,0.33,1.06,-71.78,75.93,145.14
2026-07-27 13:32:08.867,-0.31,0.33,1.06,-71.78,75.93,145.14
2026-07-27 13:32:08.913,-0.16,0.22,1.07,-44.49,61.71,114.56
2026-07-27 13:32:08.914,0.21,0.11,1.14,43.52,-15.81,11.9
2026-07-27 13:32:08.914,0.21,0.11,1.14,43.52,-15.81,11.9
2026-07-27 13:32:08.914,0.56,-0.01,1.21,127.75,-101.26,-70.92
2026-07-27 13:32:08.915,0.56,-0.01,1.21,127.75,-101.26,-70.92
2026-07-27 13:32:08.915,0.72,-0.11,1.1,119.02,-94.67,-41.99
2026-07-27 13:32:08.915,1.0,0.33,-1.18,21.06,-16.78,79.65
2026-07-27 13:32:08.927,-0.99,0.31,1.9,75.2,-126.28,122.07
2026-07-27 13:32:08.928,-1.81,0.82,0.65,-58.17,-62.07,48.52
2026-07-27 13:32:08.928,-1.81,0.82,0.65,-122.74,-22.03,-101.81
2026-07-27 13:32:08.928,-1.87,0.61,-0.14,-122.74,-22.03,-101.81
2026-07-27 13:32:08.928,-1.43,0.06,-0.02,-112.0,-35.64,-212.83
