Timestamp,AccX,AccY,AccZ,GyroX,GyroY,GyroZ
2026-07-21 03:20:21.508,0.29,0.11,0.99,-4.7,4.82,2.56
2026-07-21 03:20:21.509,0.57,-0.83,0.03,129.58,1.59,-57.5
2026-07-21 03:20:21.509,0.6,-0.84,0.18,176.15,1.89,-23.99
2026-07-21 03:20:21.509,0.6,-0.84,0.18,176.15,1.89,-23.99
2026-07-21 03:20:21.509,0.69,-0.78,0.28,184.14,16.6,-34.48
2026-07-21 03:20:21.556,0.69,-0.78,0.28,184.14,16.6,-34.48
2026-07-21 03:20:21.556,0.71,-0.67,0.39,202.03,52.86,-58.41
2026-07-21 03:20:21.556,0.71,-0.67,0.39,202.03,52.86,-58.41
2026-07-21 03:20:21.614,0.67,-0.52,0.48,203.37,99.98,-78.55
2026-07-21 03:20:21.616,0.61,-0.4,0.58,166.99,137.7,-85.33
2026-07-21 03:20:21.676,0.61,-0.4,0.58,166.99,137.7,-85.33
2026-07-21 03:20:21.676,0.53,-0.34,0.69,116.46,138.12,-70.19
2026-07-21 03:20:21.676,0.53,-0.34,0.69,116.46,138.12,-70.19
2026-07-21 03:20:21.736,0.51,-0.28,0.77,77.45,94.3,-53.53
2026-07-21 03:20:21.736,0.51,-0.28,0.77,77.45,94.3,-53.53
2026-07-21 03:20:21.736,0.51,-0.27,0.82,48.16,42.48,-40.77
2026-07-21 03:20:21.807,0.52,-0.28,0.85,26.79,16.97,-26.25
2026-07-21 03:20:21.807,0.52,-0.28,0.85,26.79,16.97,-26.25
2026-07-21 03:20:21.855,0.51,-0.26,0.86,20.26,15.01,-14.59
2026-07-21 03:20:21.856,0.51,-0.26,0.86,20.26,15.01,-14.59
2026-07-21 03:20:21.856,0.49,-0.26,0.87,18.86,14.34,-9.28
2026-07-21 03:20:21.915,0.49,-0.26,0.87,18.86,14.34,-9.28
2026-07-21 03:20:21.915,0.49,-0.23,0.87,27.47,4.46,-9.77
2026-07-21 03:20:21.917,0.49,-0.23,0.87,37.9,-7.51,-7.26
2026-07-21 03:20:21.978,0.52,-0.18,0.86,37.9,-7.51,-7.26
2026-07-21 03:20:21.978,0.54,-0.17,0.83,33.57,-12.15,-0.24
2026-07-21 03:20:22.036,0.54,-0.17,0.83,33.57,-12.15,-0.24
2026-07-21 03:20:22.037,0.55,-0.17,0.82,23.13,-7.14,3.66
2026-07-21 03:20:22.038,0.55,-0.17,0.82,23.13,-7.14,3.66
2026-07-21 03:20:22.154,0.55,-0.15,0.81,18.19,-2.5,1.59
2026-07-21 03:20:22.156,0.55,-0.15,0.81,18.19,-2.5,1.59
2026-07-21 03:20:22.156,0.54,-0.14,0.82,9.46,1.95,-1.04
2026-07-21 03:20:22.156,0.54,-0.14,0.82,9.46,1.95,-1.04
2026-07-21 03:20:22.157,0.51,-0.16,0.85,-5.31,12.27,0.24
2026-07-21 03:20:22.225,0.49,-0.17,0.88,-9.03,15.08,1.28
2026-07-21 03:20:22.225,0.49,-0.17,0.88,-9.03,15.08,1.28
2026-07-21 03:20:22.225,0.49,-0.17,0.87,-1.83,5.74,-0.06
2026-07-21 03:20:22.276,0.49,-0.17,0.87,-1.83,5.74,-0.06
2026-07-21 03:20:22.276,0.5,-0.16,0.87,3.48,-0.24,-1.22
2026-07-21 03:20:22.276,0.5,-0.16,0.87,3.48,-0.24,-1.22
2026-07-21 03:20:22.343,0.51,-0.15,0.86,3.85,2.56,-2.26
2026-07-21 03:20:22.343,0.51,-0.15,0.86,3.85,2.56,-2.26
2026-07-21 03:20:22.343,0.5,-0.15,0.85,-0.24,9.09,-3.54
2026-07-21 03:20:22.397,0.5,-0.15,0.85,-0.24,9.09,-3.54
2026-07-21 03:20:22.397,0.49,-0.16,0.86,-4.7,11.72,-4.21
2026-07-21 03:20:22.457,0.48,-0.16,0.87,-4.52,6.41,-4.03
2026-07-21 03:20:22.458,0.48,-0.16,0.87,-4.52,6.41,-4.03
2026-07-21 03:20:22.458,0.49,-0.16,0.86,-0.73,-1.46,-3.05
2026-07-21 03:20:22.516,0.49,-0.16,0.86,-0.73,-1.46,-3.05
2026-07-21 03:20:22.516,0.5,-0.16,0.86,1.1,-5.68,-2.01
2026-07-21 03:20:22.516,0.5,-0.16,0.86,1.1,-5.68,-2.01
2026-07-21 03:20:22.575,0.5,-0.16,0.87,-1.1,-3.78,-2.08
2026-07-21 03:20:22.577,0.5,-0.16,0.87,-1.1,-3.78,-2.08
2026-07-21 03:20:22.635,0.5,-0.16,0.87,-3.23,0.67,-2.32
2026-07-21 03:20:22.635,0.5,-0.16,0.87,-3.23,0.67,-2.32
2026-07-21 03:20:22.636,0.49,-0.16,0.87,-3.54,1.83,-2.44
2026-07-21 03:20:22.695,0.49,-0.16,0.86,-4.09,-0.37,-2.93
2026-07-21 03:20:22.695,0.49,-0.16,0.86,-4.09,-0.37,-2.93
2026-07-21 03:20:22.696,0.5,-0.17,0.86,-5.74,-1.28,-3.48
2026-07-21 03:20:22.759,0.5,-0.17,0.86,-5.74,-1.28,-3.48
2026-07-21 03:20:22.760,0.5,-0.17,0.87,-8.12,3.23,-3.23
2026-07-21 03:20:22.760,0.5,-0.17,0.87,-8.12,3.23,-3.23
2026-07-21 03:20:22.816,0.5,-0.18,0.87,-9.52,8.48,-1.71
2026-07-21 03:20:22.816,0.5,-0.18,0.87,-9.52,8.48,-1.71
2026-07-21 03:20:22.877,0.49,-0.19,0.87,-7.75,8.91,0.12
2026-07-21 03:20:22.877,0.49,-0.19,0.87,-7.75,8.91,0.12
2026-07-21 03:20:22.877,0.48,-0.19,0.87,-2.69,5.07,0.43
2026-07-21 03:20:22.935,0.48,-0.18,0.87,2.01,1.22,-0.24
2026-07-21 03:20:22.940,0.48,-0.18,0.87,2.01,1.22,-0.24
2026-07-21 03:20:22.941,0.48,-0.18,0.87,3.48,-0.31,-0.73
2026-07-21 03:20:23.004,0.48,-0.18,0.87,3.48,-0.31,-0.73
2026-07-21 03:20:23.004,0.48,-0.18,0.87,4.58,-0.12,-1.95
2026-07-21 03:20:23.005,0.48,-0.18,0.87,4.58,-0.12,-1.95
2026-07-21 03:20:23.061,0.49,-0.17,0.87,5.43,1.22,-3.36
2026-07-21 03:20:23.062,0.49,-0.17,0.87,5.43,1.22,-3.36
2026-07-21 03:20:23.175,0.48,-0.16,0.87,2.38,2.87,-2.38
2026-07-21 03:20:23.175,0.48,-0.16,0.87,2.38,2.87,-2.38
2026-07-21 03:20:23.177,0.48,-0.17,0.88,-1.77,4.33,0.12
2026-07-21 03:20:23.177,0.48,-0.17,0.88,-3.54,5.68,1.46
2026-07-21 03:20:23.177,0.47,-0.17,0.88,-3.54,5.68,1.46
2026-07-21 03:20:23.178,0.47,-0.17,0.88,-4.21,8.12,1.59
2026-07-21 03:20:23.239,0.47,-0.17,0.88,-4.21,8.12,1.59
2026-07-21 03:20:23.239,0.46,-0.18,0.88,-7.45,12.88,1.65
2026-07-21 03:20:23.239,0.46,-0.18,0.88,-7.45,12.88,1.65
2026-07-21 03:20:23.296,0.45,-0.19,0.88,-11.78,16.54,1.89
2026-07-21 03:20:23.296,0.45,-0.19,0.88,-11.78,16.54,1.89
2026-07-21 03:20:23.356,0.44,-0.19,0.88,-14.4,17.82,1.89
2026-07-21 03:20:23.356,0.44,-0.19,0.88,-14.4,17.82,1.89
2026-07-21 03:20:23.357,0.42,-0.2,0.88,-17.33,22.16,3.97
2026-07-21 03:20:23.418,0.39,-0.22,0.89,-22.16,30.46,10.86
2026-07-21 03:20:23.418,0.39,-0.22,0.89,-22.16,30.46,10.86
2026-07-21 03:20:23.475,0.36,-0.22,0.9,-27.77,31.07,23.25
2026-07-21 03:20:23.475,0.36,-0.22,0.9,-27.77,31.07,23.25
2026-07-21 03:20:23.475,0.37,-0.24,0.85,-52.19,21.67,36.5
2026-07-21 03:20:23.541,0.37,-0.24,0.85,-110.84,22.95,42.85
2026-07-21 03:20:23.541,0.36,-0.35,0.76,-110.84,22.95,42.85
2026-07-21 03:20:23.596,0.23,-0.55,0.71,-174.74,41.99,53.59
2026-07-21 03:20:23.597,0.23,-0.55,0.71,-174.74,41.99,53.59
2026-07-21 03:20:23.597,0.18,-0.69,0.72,-185.85,39.79,69.03
2026-07-21 03:20:23.666,0.18,-0.69,0.72,-185.85,39.79,69.03
2026-07-21 03:20:23.666,0.24,-0.76,0.75,-133.54,-0.18,53.77
2026-07-21 03:20:23.666,0.24,-0.76,0.75,-133.54,-0.18,53.77
2026-07-21 03:20:23.726,0.2,-0.82,0.78,-70.31,-12.63,32.41
2026-07-21 03:20:23.727,0.1,-0.82,0.76,-26.31,12.27,45.53
2026-07-21 03:20:23.776,0.1,-0.82,0.76,-26.31,12.27,45.53
2026-07-21 03:20:23.776,0.09,-0.77,0.7,-4.7,14.1,66.16
2026-07-21 03:20:23.776,0.09,-0.77,0.7,-4.7,14.1,66.16
2026-07-21 03:20:23.835,0.14,-0.74,0.63,-3.42,-7.75,64.94
2026-07-21 03:20:23.836,0.14,-0.74,0.63,-3.42,-7.75,64.94
2026-07-21 03:20:23.836,0.15,-0.74,0.6,-5.8,-20.14,42.91
2026-07-21 03:20:23.896,0.15,-0.74,0.6,-4.7,-17.46,23.38
2026-07-21 03:20:23.897,0.12,-0.73,0.6,-4.7,-17.46,23.38
2026-07-21 03:20:23.956,0.09,-0.73,0.63,-7.87,-18.07,16.17
2026-07-21 03:20:23.956,0.09,-0.73,0.63,-7.87,-18.07,16.17
2026-07-21 03:20:23.956,0.11,-0.75,0.64,-19.78,-26.25,9.03
2026-07-21 03:20:24.016,0.11,-0.75,0.64,-19.78,-26.25,9.03
2026-07-21 03:20:24.016,0.12,-0.8,0.62,-31.01,-24.78,1.89
2026-07-21 03:20:24.017,0.12,-0.8,0.62,-31.01,-24.78,1.89
2026-07-21 03:20:24.076,0.1,-0.83,0.58,-34.24,-18.31,-0.55
2026-07-21 03:20:24.076,0.1,-0.83,0.58,-37.54,-30.33,-12.7
2026-07-21 03:20:24.136,0.12,-0.84,0.54,-37.54,-30.33,-12.7
2026-07-21 03:20:24.136,0.18,-0.85,0.5,-43.15,-56.7,-34.85
2026-07-21 03:20:24.137,0.18,-0.85,0.5,-43.15,-56.7,-34.85
2026-07-21 03:20:24.198,0.24,-0.86,0.49,-20.63,-55.6,-47.3
2026-07-21 03:20:24.198,0.24,-0.86,0.49,-20.63,-55.6,-47.3
2026-07-21 03:20:24.198,0.28,-0.81,0.54,38.21,-21.06,-44.43
2026-07-21 03:20:24.257,0.28,-0.81,0.54,38.21,-21.06,-44.43
2026-07-21 03:20:24.257,0.3,-0.76,0.59,73.0,-0.43,-32.78
2026-07-21 03:20:24.319,0.32,-0.74,0.62,61.52,-7.45,-25.09
2026-07-21 03:20:24.319,0.32,-0.74,0.62,61.52,-7.45,-25.09
2026-07-21 03:20:24.319,0.33,-0.72,0.64,38.82,-20.2,-26.31
2026-07-21 03:20:24.375,0.33,-0.72,0.64,38.82,-20.2,-26.31
2026-07-21 03:20:24.376,0.32,-0.71,0.66,21.85,-24.29,-24.05
2026-07-21 03:20:24.377,0.32,-0.71,0.66,21.85,-24.29,-24.05
2026-07-21 03:20:24.435,0.31,-0.7,0.67,12.94,-26.06,-14.95
2026-07-21 03:20:24.436,0.33,-0.69,0.66,7.02,-36.99,-8.12
2026-07-21 03:20:24.496,0.33,-0.69,0.66,7.02,-36.99,-8.12
2026-07-21 03:20:24.496,0.35,-0.68,0.63,-4.21,-47.79,-4.03
2026-07-21 03:20:24.496,0.35,-0.68,0.63,-4.21,-47.79,-4.03
2026-07-21 03:20:24.615,0.35,-0.69,0.57,-25.09,-54.5,2.38
2026-07-21 03:20:24.616,0.35,-0.69,0.57,-25.09,-54.5,2.38
2026-07-21 03:20:24.616,0.34,-0.77,0.5,-49.13,-66.89,14.16
2026-07-21 03:20:24.617,0.34,-0.77,0.5,-49.13,-66.89,14.16
2026-07-21 03:20:24.617,0.34,-0.85,0.43,-66.22,-82.4,27.59
2026-07-21 03:20:24.676,0.34,-0.85,0.43,-77.03,-94.18,35.77
2026-07-21 03:20:24.679,0.33,-0.91,0.36,-77.03,-94.18,35.77
2026-07-21 03:20:24.679,0.35,-0.93,0.3,-81.91,-105.53,38.94
2026-07-21 03:20:24.736,0.35,-0.93,0.3,-81.91,-105.53,38.94
2026-07-21 03:20:24.737,0.41,-0.94,0.22,-81.05,-122.25,38.7
2026-07-21 03:20:24.737,0.41,-0.94,0.22,-81.05,-122.25,38.7
2026-07-21 03:20:24.796,0.47,-0.98,0.14,-73.43,-129.88,34.36
2026-07-21 03:20:24.797,0.47,-0.98,0.14,-47.73,-107.18,26.86
2026-07-21 03:20:24.856,0.44,-1.0,0.09,-47.73,-107.18,26.86
2026-07-21 03:20:24.857,0.4,-0.98,0.05,-13.67,-75.5,17.76
2026-07-21 03:20:24.858,0.4,-0.98,0.05,-13.67,-75.5,17.76
2026-07-21 03:20:24.921,0.44,-0.98,0.01,-0.31,-65.73,10.25
2026-07-21 03:20:24.921,0.44,-0.98,0.01,-0.31,-65.73,10.25
2026-07-21 03:20:24.978,0.53,-1.01,-0.04,-6.77,-72.51,2.87
2026-07-21 03:20:24.978,0.53,-1.01,-0.04,-6.77,-72.51,2.87
2026-07-21 03:20:24.978,0.61,-1.05,-0.1,-11.78,-75.32,-11.54
2026-07-21 03:20:25.036,0.61,-1.05,-0.1,-11.23,-61.77,-39.18
2026-07-21 03:20:25.037,0.63,-1.1,-0.11,-11.23,-61.77,-39.18
2026-07-21 03:20:25.037,0.54,-1.12,-0.12,-16.91,-49.56,-74.16
2026-07-21 03:20:25.096,0.54,-1.12,-0.12,-16.91,-49.56,-74.16
2026-07-21 03:20:25.096,0.43,-1.11,-0.16,-47.91,-66.89,-91.86
2026-07-21 03:20:25.097,0.43,-1.11,-0.16,-47.91,-66.89,-91.86
2026-07-21 03:20:25.156,0.41,-1.07,-0.26,-105.35,-119.2,-90.15
2026-07-21 03:20:25.157,0.41,-1.07,-0.26,-105.35,-119.2,-90.15
2026-07-21 03:20:25.215,0.39,-0.9,-0.43,-146.55,-169.62,-88.2
2026-07-21 03:20:25.215,0.31,-0.65,-0.61,-147.46,-171.57,-68.97
2026-07-21 03:20:25.215,0.31,-0.65,-0.61,-147.46,-171.57,-68.97
2026-07-21 03:20:25.276,0.23,-0.41,-0.72,-143.37,-139.71,-25.82
2026-07-21 03:20:25.277,0.23,-0.41,-0.72,-143.37,-139.71,-25.82
2026-07-21 03:20:25.335,0.18,-0.24,-0.74,-162.41,-105.65,18.86
2026-07-21 03:20:25.337,0.18,-0.24,-0.74,-162.41,-105.65,18.86
2026-07-21 03:20:25.337,0.2,-0.18,-0.71,-173.95,-61.89,65.49
2026-07-21 03:20:25.396,0.36,-0.21,-0.74,-148.62,3.97,114.81
2026-07-21 03:20:25.396,0.36,-0.21,-0.74,-148.62,3.97,114.81
2026-07-21 03:20:25.456,0.66,-0.29,-0.81,-115.97,71.23,145.81
2026-07-21 03:20:25.456,0.66,-0.29,-0.81,-115.97,71.23,145.81
2026-07-21 03:20:25.456,1.04,-0.31,-0.88,-100.34,108.52,139.59
2026-07-21 03:20:25.515,1.38,-0.29,-0.93,-91.13,117.49,97.05
2026-07-21 03:20:25.515,1.38,-0.29,-0.93,-91.13,117.49,97.05
2026-07-21 03:20:25.639,1.54,-0.27,-0.89,-86.49,112.79,32.84
2026-07-21 03:20:25.639,1.54,-0.27,-0.89,-86.49,112.79,32.84
2026-07-21 03:20:25.640,1.44,-0.27,-0.74,-88.81,97.84,-34.61
2026-07-21 03:20:25.640,1.44,-0.27,-0.74,-88.81,97.84,-34.61
2026-07-21 03:20:25.641,1.19,-0.24,-0.54,-79.04,80.38,-86.3
2026-07-21 03:20:25.642,1.19,-0.24,-0.54,-49.74,59.27,-116.03
2026-07-21 03:20:25.698,0.95,-0.17,-0.38,-49.74,59.27,-116.03
2026-07-21 03:20:25.699,0.76,-0.06,-0.3,-23.01,23.86,-134.34
2026-07-21 03:20:25.700,0.76,-0.06,-0.3,-23.01,23.86,-134.34
2026-07-21 03:20:25.758,0.61,0.07,-0.3,-3.23,-13.18,-144.04
2026-07-21 03:20:25.758,0.61,0.07,-0.3,-3.23,-13.18,-144.04
2026-07-21 03:20:25.825,0.51,0.15,-0.36,20.51,-30.7,-135.38
2026-07-21 03:20:25.825,0.51,0.15,-0.36,20.51,-30.7,-135.38
2026-07-21 03:20:25.825,0.51,0.15,-0.36,20.51,-30.7,-135.38
2026-07-21 03:20:25.875,0.51,0.15,-0.36,20.51,-30.7,-135.38
2026-07-21 03:20:25.876,0.49,0.09,-0.46,50.9,-33.75,-85.02
2026-07-21 03:20:25.876,0.49,0.09,-0.46,47.67,-42.42,-73.06
2026-07-21 03:20:25.936,0.51,0.05,-0.49,47.67,-42.42,-73.06
2026-07-21 03:20:25.937,0.52,0.04,-0.51,46.69,-44.31,-68.48
2026-07-21 03:20:25.996,0.52,0.04,-0.51,46.69,-44.31,-68.48
2026-07-21 03:20:25.996,0.54,0.03,-0.54,51.39,-39.92,-67.08
2026-07-21 03:20:25.996,0.54,0.03,-0.54,51.39,-39.92,-67.08
2026-07-21 03:20:26.055,0.58,0.03,-0.61,57.5,-36.19,-69.95
2026-07-21 03:20:26.055,0.58,0.03,-0.61,57.5,-36.19,-69.95
2026-07-21 03:20:26.055,0.59,0.03,-0.7,66.47,-30.52,-76.66
2026-07-21 03:20:26.118,0.58,0.03,-0.77,72.69,-25.88,-86.3
2026-07-21 03:20:26.118,0.58,0.03,-0.77,72.69,-25.88,-86.3
2026-07-21 03:20:26.176,0.52,-0.02,-0.82,71.41,-25.21,-97.17
2026-07-21 03:20:26.176,0.52,-0.02,-0.82,71.41,-25.21,-97.17
2026-07-21 03:20:26.176,0.43,-0.13,-0.86,69.7,-25.15,-103.45
2026-07-21 03:20:26.236,0.43,-0.13,-0.86,69.7,-25.15,-103.45
2026-07-21 03:20:26.236,0.33,-0.25,-0.94,72.2,-27.1,-105.35
2026-07-21 03:20:26.296,0.25,-0.28,-1.08,73.67,-35.52,-109.86
2026-07-21 03:20:26.296,0.25,-0.28,-1.08,73.67,-35.52,-109.86
2026-07-21 03:20:26.296,0.19,-0.24,-1.25,66.83,-43.82,-116.76
2026-07-21 03:20:26.355,0.19,-0.24,-1.25,66.83,-43.82,-116.76
2026-07-21 03:20:26.355,0.11,-0.14,-1.35,52.12,-33.2,-115.3
2026-07-21 03:20:26.357,0.11,-0.14,-1.35,52.12,-33.2,-115.3
2026-07-21 03:20:26.416,0.02,-0.07,-1.31,35.83,6.71,-94.54
2026-07-21 03:20:26.416,0.02,-0.07,-1.31,35.83,6.71,-94.54
2026-07-21 03:20:26.418,-0.04,-0.05,-1.15,21.91,55.3,-57.5
2026-07-21 03:20:26.476,-0.05,-0.07,-0.99,14.47,76.48,-18.07
2026-07-21 03:20:26.478,-0.05,-0.07,-0.99,14.47,76.48,-18.07
2026-07-21 03:20:26.539,0.0,-0.09,-0.96,16.6,54.57,12.82
2026-07-21 03:20:26.539,0.0,-0.09,-0.96,16.6,54.57,12.82
2026-07-21 03:20:26.539,0.07,-0.09,-1.03,23.86,6.47,31.01
2026-07-21 03:20:26.662,0.07,-0.09,-1.03,23.86,6.47,31.01
2026-07-21 03:20:26.663,0.08,-0.11,-1.08,28.44,-35.1,40.59
2026-07-21 03:20:26.663,0.08,-0.11,-1.08,24.29,-50.84,49.01
2026-07-21 03:20:26.663,0.03,-0.19,-1.04,24.29,-50.84,49.01
2026-07-21 03:20:26.663,-0.02,-0.28,-0.95,15.32,-44.86,60.24
2026-07-21 03:20:26.724,-0.02,-0.28,-0.95,15.32,-44.86,60.24
2026-07-21 03:20:26.724,-0.04,-0.31,-0.87,11.05,-29.42,69.82
2026-07-21 03:20:26.724,-0.04,-0.31,-0.87,11.05,-29.42,69.82
2026-07-21 03:20:26.779,-0.08,-0.32,-0.79,14.95,-10.56,74.83
2026-07-21 03:20:26.779,-0.08,-0.32,-0.79,14.95,-10.56,74.83
2026-07-21 03:20:26.836,-0.12,-0.38,-0.71,24.78,6.53,81.05
2026-07-21 03:20:26.836,-0.12,-0.5,-0.64,39.0,16.11,93.99
2026-07-21 03:20:26.837,-0.12,-0.5,-0.64,39.0,16.11,93.99
2026-07-21 03:20:26.896,-0.07,-0.59,-0.66,56.46,14.16,108.46
2026-07-21 03:20:26.896,-0.07,-0.59,-0.66,56.46,14.16,108.46
2026-07-21 03:20:26.896,-0.09,-0.61,-0.78,69.34,2.75,116.33
2026-07-21 03:20:26.955,-0.09,-0.61,-0.78,69.34,2.75,116.33
2026-07-21 03:20:26.956,-0.06,-0.83,-0.9,70.13,2.32,131.35
2026-07-21 03:20:26.956,-0.06,-0.83,-0.9,70.13,2.32,131.35
2026-07-21 03:20:27.017,0.14,-1.21,-0.96,68.6,18.98,160.71
2026-07-21 03:20:27.017,0.27,-1.3,-0.97,75.01,25.51,167.72
2026-07-21 03:20:27.078,0.27,-1.3,-0.97,75.01,25.51,167.72
2026-07-21 03:20:27.078,0.22,-1.12,-1.02,84.9,9.22,143.01
2026-07-21 03:20:27.079,0.22,-1.12,-1.02,84.9,9.22,143.01
2026-07-21 03:20:27.136,0.13,-0.98,-1.08,87.28,-19.53,123.54
2026-07-21 03:20:27.138,0.13,-0.98,-1.08,87.28,-19.53,123.54
2026-07-21 03:20:27.258,0.07,-0.97,-1.15,79.83,-52.92,117.25
2026-07-21 03:20:27.258,0.02,-1.0,-1.15,67.14,-77.82,105.71
2026-07-21 03:20:27.258,0.02,-1.0,-1.15,67.14,-77.82,105.71
2026-07-21 03:20:27.258,-0.06,-1.01,-1.02,54.87,-75.2,89.17
2026-07-21 03:20:27.258,-0.06,-1.01,-1.02,54.87,-75.2,89.17
2026-07-21 03:20:27.259,-0.13,-0.98,-0.89,46.14,-52.92,76.78
2026-07-21 03:20:27.316,-0.13,-0.98,-0.89,46.14,-52.92,76.78
2026-07-21 03:20:27.316,-0.13,-0.93,-0.78,36.19,-29.3,69.89
2026-07-21 03:20:27.377,-0.13,-0.93,-0.78,31.37,-6.41,66.04
2026-07-21 03:20:27.378,-0.1,-0.88,-0.63,31.37,-6.41,66.04
2026-07-21 03:20:27.378,-0.04,-0.8,-0.5,35.46,6.35,55.54
2026-07-21 03:20:27.435,-0.04,-0.8,-0.5,35.46,6.35,55.54
2026-07-21 03:20:27.436,0.04,-0.7,-0.45,39.06,3.66,32.84
2026-07-21 03:20:27.496,0.04,-0.7,-0.45,39.06,3.66,32.84
2026-07-21 03:20:27.496,0.11,-0.65,-0.43,37.78,0.43,4.27
2026-07-21 03:20:27.497,0.14,-0.67,-0.36,35.4,7.87,-23.74
2026-07-21 03:20:27.556,0.14,-0.67,-0.36,35.4,7.87,-23.74
2026-07-21 03:20:27.556,0.11,-0.76,-0.29,37.66,17.33,-51.27
2026-07-21 03:20:27.557,0.11,-0.76,-0.29,37.66,17.33,-51.27
2026-07-21 03:20:27.618,0.03,-0.88,-0.28,47.61,18.68,-79.1
2026-07-21 03:20:27.619,0.03,-0.88,-0.28,47.61,18.68,-79.1
2026-07-21 03:20:27.677,-0.06,-0.98,-0.3,57.43,13.73,-98.57
2026-07-21 03:20:27.677,-0.06,-0.98,-0.3,55.05,5.68,-104.92
2026-07-21 03:20:27.677,-0.11,-1.03,-0.32,55.05,5.68,-104.92
2026-07-21 03:20:27.736,-0.15,-1.04,-0.31,44.56,-1.89,-106.51
2026-07-21 03:20:27.741,-0.15,-1.04,-0.31,44.56,-1.89,-106.51
2026-07-21 03:20:27.796,-0.19,-0.99,-0.3,37.29,-7.63,-108.76
2026-07-21 03:20:27.797,-0.19,-0.99,-0.3,37.29,-7.63,-108.76
2026-07-21 03:20:27.797,-0.21,-0.92,-0.3,32.84,-16.42,-109.44
2026-07-21 03:20:27.857,-0.21,-0.92,-0.3,32.84,-16.42,-109.44
2026-07-21 03:20:27.858,-0.21,-0.87,-0.33,28.87,-23.99,-104.86
2026-07-21 03:20:27.858,-0.21,-0.85,-0.35,27.04,-22.16,-92.96
2026-07-21 03:20:27.916,-0.21,-0.85,-0.35,27.04,-22.16,-92.96
2026-07-21 03:20:27.916,-0.21,-0.84,-0.35,25.45,-15.56,-76.42
2026-07-21 03:20:27.975,-0.21,-0.84,-0.35,25.45,-15.56,-76.42
2026-07-21 03:20:27.976,-0.2,-0.82,-0.35,20.57,-11.66,-59.94
2026-07-21 03:20:27.976,-0.2,-0.82,-0.35,20.57,-11.66,-59.94
2026-07-21 03:20:28.100,-0.19,-0.81,-0.35,14.04,-9.28,-43.76
2026-07-21 03:20:28.100,-0.19,-0.81,-0.35,10.38,-4.88,-25.57
2026-07-21 03:20:28.101,-0.18,-0.82,-0.35,10.38,-4.88,-25.57
2026-07-21 03:20:28.101,-0.19,-0.85,-0.34,8.12,2.14,-6.65
2026-07-21 03:20:28.101,-0.19,-0.85,-0.34,8.12,2.14,-6.65
2026-07-21 03:20:28.163,-0.2,-0.89,-0.3,6.65,10.07,11.84
2026-07-21 03:20:28.163,-0.2,-0.89,-0.3,6.65,10.07,11.84
2026-07-21 03:20:28.164,-0.21,-0.92,-0.26,10.93,17.58,31.74
2026-07-21 03:20:28.215,-0.21,-0.92,-0.26,10.93,17.58,31.74
2026-07-21 03:20:28.215,-0.22,-0.95,-0.25,15.01,25.76,48.1
2026-07-21 03:20:28.216,-0.22,-0.95,-0.25,15.01,25.76,48.1
2026-07-21 03:20:28.275,-0.22,-0.96,-0.22,3.42,37.66,54.14
2026-07-21 03:20:28.276,-0.22,-0.97,-0.17,-19.23,54.44,59.08
2026-07-21 03:20:28.276,-0.22,-0.97,-0.17,-19.23,54.44,59.08
2026-07-21 03:20:28.395,-0.21,-0.99,-0.12,-33.45,70.31,73.43
2026-07-21 03:20:28.395,-0.21,-0.99,-0.12,-33.45,70.31,73.43
2026-07-21 03:20:28.396,-0.19,-1.05,-0.1,-30.94,79.16,92.35
2026-07-21 03:20:28.396,-0.19,-1.05,-0.1,-30.94,79.16,92.35
2026-07-21 03:20:28.398,-0.19,-1.13,-0.14,-11.54,94.12,109.25
2026-07-21 03:20:28.455,-0.19,-1.13,-0.14,-11.54,94.12,109.25
2026-07-21 03:20:28.456,-0.19,-1.13,-0.14,-11.54,94.12,109.25
2026-07-21 03:20:28.456,-0.19,-1.13,-0.14,-11.54,94.12,109.25
2026-07-21 03:20:28.516,-0.25,-1.16,-0.12,32.35,180.42,114.5
2026-07-21 03:20:28.516,-0.25,-1.16,-0.12,32.41,197.94,100.71
2026-07-21 03:20:28.516,-0.27,-1.08,-0.07,32.41,197.94,100.71
2026-07-21 03:20:28.580,-0.26,-1.04,-0.1,17.58,168.46,85.57
2026-07-21 03:20:28.580,-0.26,-1.04,-0.1,17.58,168.46,85.57
2026-07-21 03:20:28.635,-0.25,-1.06,-0.16,-8.67,112.43,72.75
2026-07-21 03:20:28.635,-0.25,-1.06,-0.16,-8.67,112.43,72.75
2026-07-21 03:20:28.636,-0.24,-1.07,-0.2,-29.97,72.69,70.37
2026-07-21 03:20:28.697,-0.24,-1.07,-0.2,-29.97,72.69,70.37
2026-07-21 03:20:28.697,-0.16,-1.05,-0.24,-37.72,55.48,80.02
2026-07-21 03:20:28.756,-0.06,-1.02,-0.29,-39.31,46.51,89.72
2026-07-21 03:20:28.756,-0.06,-1.02,-0.29,-39.31,46.51,89.72
2026-07-21 03:20:28.757,-0.0,-1.01,-0.28,-38.27,47.12,92.47
2026-07-21 03:20:28.816,-0.0,-1.01,-0.28,-38.27,47.12,92.47
2026-07-21 03:20:28.816,0.04,-1.03,-0.24,-35.4,47.3,89.72
2026-07-21 03:20:28.817,0.04,-1.03,-0.24,-35.4,47.3,89.72
2026-07-21 03:20:28.876,0.1,-1.05,-0.22,-34.18,30.03,79.53
2026-07-21 03:20:28.877,0.16,-1.07,-0.21,-33.39,1.34,57.62
2026-07-21 03:20:28.935,0.16,-1.07,-0.21,-33.39,1.34,57.62
2026-07-21 03:20:28.935,0.15,-1.06,-0.17,-28.44,-22.52,25.09
2026-07-21 03:20:28.935,0.15,-1.06,-0.17,-28.44,-22.52,25.09
2026-07-21 03:20:28.996,0.08,-1.05,-0.14,-15.99,-33.94,-11.41
2026-07-21 03:20:28.997,0.08,-1.05,-0.14,-15.99,-33.94,-11.41
2026-07-21 03:20:28.998,-0.03,-1.01,-0.11,2.87,-34.55,-43.95
2026-07-21 03:20:29.125,-0.03,-1.01,-0.11,2.87,-34.55,-43.95
2026-07-21 03:20:29.126,-0.14,-0.99,-0.1,20.08,-36.25,-67.5
2026-07-21 03:20:29.126,-0.21,-1.01,-0.1,26.37,-51.94,-83.86
2026-07-21 03:20:29.126,-0.21,-1.01,-0.1,26.37,-51.94,-83.86
2026-07-21 03:20:29.127,-0.27,-1.08,-0.11,22.64,-75.26,-96.98
2026-07-21 03:20:29.175,-0.27,-1.08,-0.11,22.64,-75.26,-96.98
2026-07-21 03:20:29.176,-0.35,-1.26,-0.16,12.76,-99.79,-108.46
2026-07-21 03:20:29.176,-0.35,-1.26,-0.16,12.76,-99.79,-108.46
2026-07-21 03:20:29.236,-0.42,-1.43,-0.21,3.6,-122.8,-123.29
2026-07-21 03:20:29.237,-0.42,-1.43,-0.21,11.78,-129.46,-144.23
2026-07-21 03:20:29.296,-0.5,-1.42,-0.2,11.78,-129.46,-144.23
2026-07-21 03:20:29.298,-0.5,-1.26,-0.18,32.53,-131.84,-158.81
2026-07-21 03:20:29.299,-0.5,-1.26,-0.18,32.53,-131.84,-158.81
2026-07-21 03:20:29.357,-0.35,-1.08,-0.18,38.45,-150.09,-157.78
2026-07-21 03:20:29.357,-0.35,-1.08,-0.18,38.45,-150.09,-157.78
2026-07-21 03:20:29.418,-0.22,-1.0,-0.17,28.56,-157.84,-156.62
2026-07-21 03:20:29.419,-0.22,-1.0,-0.17,30.09,-127.99,-165.95
2026-07-21 03:20:29.419,-0.27,-1.04,-0.23,30.09,-127.99,-165.95
2026-07-21 03:20:29.476,-0.4,-1.1,-0.35,51.09,-66.16,-169.62
2026-07-21 03:20:29.476,-0.4,-1.1,-0.35,51.09,-66.16,-169.62
2026-07-21 03:20:29.540,-0.46,-1.04,-0.36,71.59,15.56,-144.53
2026-07-21 03:20:29.541,-0.46,-1.04,-0.36,71.59,15.56,-144.53
2026-07-21 03:20:29.541,-0.4,-0.84,-0.22,71.11,88.75,-87.95
2026-07-21 03:20:29.597,-0.28,-0.62,-0.07,52.12,114.07,-26.55
2026-07-21 03:20:29.598,-0.28,-0.62,-0.07,52.12,114.07,-26.55
2026-07-21 03:20:29.598,-0.21,-0.51,-0.03,28.75,85.02,15.87
2026-07-21 03:20:29.656,-0.21,-0.51,-0.03,28.75,85.02,15.87
2026-07-21 03:20:29.656,-0.2,-0.55,-0.09,4.27,28.2,42.3
2026-07-21 03:20:29.715,-0.2,-0.55,-0.09,4.27,28.2,42.3
2026-07-21 03:20:29.716,-0.21,-0.71,-0.24,-22.64,-25.94,67.08
2026-07-21 03:20:29.716,-0.19,-0.96,-0.41,-54.81,-48.77,95.09
2026-07-21 03:20:29.776,-0.19,-0.96,-0.41,-54.81,-48.77,95.09
2026-07-21 03:20:29.778,-0.17,-1.22,-0.47,-94.73,-23.74,121.7
2026-07-21 03:20:29.778,-0.17,-1.22,-0.47,-94.73,-23.74,121.7
2026-07-21 03:20:29.837,-0.15,-1.4,-0.35,-124.08,42.18,144.53
2026-07-21 03:20:29.849,-0.15,-1.4,-0.35,-124.08,42.18,144.53
2026-07-21 03:20:29.896,-0.19,-1.45,-0.17,-118.96,118.16,157.35
2026-07-21 03:20:29.896,-0.19,-1.45,-0.17,-84.47,156.74,146.06
2026-07-21 03:20:29.897,-0.25,-1.41,-0.09,-84.47,156.74,146.06
2026-07-21 03:20:29.959,-0.23,-1.24,-0.11,-44.31,134.7,114.26
2026-07-21 03:20:29.959,-0.23,-1.24,-0.11,-44.31,134.7,114.26
2026-07-21 03:20:30.016,-0.11,-1.02,-0.15,-21.18,74.58,82.76
2026-07-21 03:20:30.016,-0.11,-1.02,-0.15,-21.18,74.58,82.76
2026-07-21 03:20:30.016,-0.05,-0.95,-0.22,-24.23,8.67,58.47
2026-07-21 03:20:30.076,-0.05,-0.95,-0.22,-24.23,8.67,58.47
2026-07-21 03:20:30.076,-0.06,-1.05,-0.35,-36.99,-38.82,39.25
2026-07-21 03:20:30.076,-0.05,-1.12,-0.43,-38.27,-40.1,32.65
2026-07-21 03:20:30.135,-0.05,-1.12,-0.43,-38.27,-40.1,32.65
2026-07-21 03:20:30.138,-0.01,-1.04,-0.36,-20.26,16.36,43.52
2026-07-21 03:20:30.139,-0.01,-1.04,-0.36,-20.26,16.36,43.52
2026-07-21 03:20:30.195,0.01,-0.9,-0.24,1.71,75.62,53.22
2026-07-21 03:20:30.196,0.01,-0.9,-0.24,1.71,75.62,53.22
2026-07-21 03:20:30.262,0.01,-0.85,-0.18,2.56,71.53,42.05
2026-07-21 03:20:30.262,0.01,-0.85,-0.18,2.56,71.53,42.05
2026-07-21 03:20:30.262,-0.0,-0.89,-0.17,-10.56,24.9,20.39
2026-07-21 03:20:30.326,-0.03,-0.94,-0.16,-13.67,-7.08,6.65
2026-07-21 03:20:30.326,-0.03,-0.94,-0.16,-13.67,-7.08,6.65
2026-07-21 03:20:30.376,-0.06,-0.99,-0.12,-5.49,-14.47,1.95
2026-07-21 03:20:30.376,-0.06,-0.99,-0.12,-5.49,-14.47,1.95
2026-07-21 03:20:30.376,-0.09,-1.03,-0.09,4.64,-23.8,-3.36
2026-07-21 03:20:30.437,-0.09,-1.03,-0.09,4.64,-23.8,-3.36
2026-07-21 03:20:30.437,-0.13,-1.12,-0.14,11.23,-50.29,-16.36
2026-07-21 03:20:30.438,-0.13,-1.12,-0.14,11.23,-50.29,-16.36
2026-07-21 03:20:30.557,-0.15,-1.25,-0.23,8.67,-88.81,-36.93
2026-07-21 03:20:30.558,-0.15,-1.25,-0.23,0.55,-119.81,-61.89
2026-07-21 03:20:30.559,-0.1,-1.34,-0.28,0.55,-119.81,-61.89
2026-07-21 03:20:30.559,-0.1,-1.33,-0.25,6.35,-114.2,-95.15
2026-07-21 03:20:30.559,-0.1,-1.33,-0.25,6.35,-114.2,-95.15
2026-07-21 03:20:30.618,-0.25,-1.27,-0.24,38.39,-79.59,-141.6
2026-07-21 03:20:30.618,-0.25,-1.27,-0.24,38.39,-79.59,-141.6
2026-07-21 03:20:30.618,-0.44,-1.23,-0.32,71.78,-62.5,-188.05
2026-07-21 03:20:30.676,-0.44,-1.23,-0.32,71.78,-62.5,-188.05
2026-07-21 03:20:30.676,-0.51,-1.15,-0.38,77.33,-72.2,-207.76
2026-07-21 03:20:30.736,-0.45,-1.0,-0.35,61.1,-72.33,-187.13
2026-07-21 03:20:30.736,-0.45,-1.0,-0.35,61.1,-72.33,-187.13
2026-07-21 03:20:30.736,-0.35,-0.82,-0.27,43.27,-48.1,-140.38
2026-07-21 03:20:30.806,-0.35,-0.82,-0.27,43.27,-48.1,-140.38
2026-07-21 03:20:30.806,-0.28,-0.69,-0.19,28.69,-21.67,-90.58
2026-07-21 03:20:30.806,-0.28,-0.69,-0.19,28.69,-21.67,-90.58
2026-07-21 03:20:30.856,-0.25,-0.66,-0.14,14.28,-7.63,-48.58
2026-07-21 03:20:30.857,-0.25,-0.66,-0.14,3.11,-3.23,-14.1
2026-07-21 03:20:30.857,-0.26,-0.7,-0.13,3.11,-3.23,-14.1
2026-07-21 03:20:30.917,-0.26,-0.76,-0.16,-4.21,-5.55,16.72
2026-07-21 03:20:30.917,-0.26,-0.76,-0.16,-4.21,-5.55,16.72
2026-07-21 03:20:30.976,-0.25,-0.86,-0.2,-11.66,-9.77,45.35
2026-07-21 03:20:30.976,-0.25,-0.86,-0.2,-11.66,-9.77,45.35
2026-07-21 03:20:31.035,-0.26,-0.99,-0.23,-20.14,-3.97,69.95
2026-07-21 03:20:31.035,-0.26,-0.99,-0.23,-20.14,-3.97,69.95
2026-07-21 03:20:31.036,-0.31,-1.11,-0.21,-25.76,23.38,91.13
2026-07-21 03:20:31.036,-0.31,-1.11,-0.21,-25.76,23.38,91.13
2026-07-21 03:20:31.096,-0.33,-1.13,-0.14,-24.35,62.74,112.12
2026-07-21 03:20:31.096,-0.25,-1.06,-0.08,-18.86,81.48,129.94
2026-07-21 03:20:31.156,-0.25,-1.06,-0.08,-18.86,81.48,129.94
2026-07-21 03:20:31.157,-0.14,-1.03,-0.12,-18.86,57.74,133.0
2026-07-21 03:20:31.157,-0.14,-1.03,-0.12,-18.86,57.74,133.0
2026-07-21 03:20:31.217,-0.13,-1.11,-0.26,-26.37,9.58,113.83
2026-07-21 03:20:31.217,-0.13,-1.11,-0.26,-26.37,9.58,113.83
2026-07-21 03:20:31.218,-0.17,-1.26,-0.37,-31.62,-18.68,87.65
2026-07-21 03:20:31.276,-0.13,-1.32,-0.34,-21.79,5.98,85.33
2026-07-21 03:20:31.277,-0.13,-1.32,-0.34,-21.79,5.98,85.33
2026-07-21 03:20:31.339,0.01,-1.22,-0.2,-1.04,62.13,104.37
2026-07-21 03:20:31.339,0.01,-1.22,-0.2,-1.04,62.13,104.37
2026-07-21 03:20:31.339,0.12,-1.08,-0.1,5.13,81.79,104.92
2026-07-21 03:20:31.401,0.12,-1.08,-0.1,5.13,81.79,104.92
2026-07-21 03:20:31.401,0.18,-1.02,-0.08,-12.15,42.05,74.28
2026-07-21 03:20:31.401,0.18,-1.02,-0.08,-12.15,42.05,74.28
2026-07-21 03:20:31.456,0.17,-1.07,-0.14,-30.21,-5.19,35.28
2026-07-21 03:20:31.456,0.05,-1.15,-0.19,-25.51,-7.51,1.59
2026-07-21 03:20:31.636,0.05,-1.15,-0.19,-25.51,-7.51,1.59
2026-07-21 03:20:31.636,-0.14,-1.15,-0.21,0.92,26.0,-28.02
2026-07-21 03:20:31.636,-0.14,-1.15,-0.21,0.92,26.0,-28.02
2026-07-21 03:20:31.636,-0.32,-1.06,-0.22,27.4,42.05,-55.97
2026-07-21 03:20:31.636,-0.32,-1.06,-0.22,27.4,42.05,-55.97
2026-07-21 03:20:31.637,-0.41,-0.93,-0.26,34.97,11.72,-84.66
2026-07-21 03:20:31.638,-0.43,-0.82,-0.3,28.32,-33.14,-104.49
2026-07-21 03:20:31.638,-0.43,-0.82,-0.3,28.32,-33.14,-104.49
2026-07-21 03:20:31.695,-0.46,-0.71,-0.31,27.34,-41.44,-96.25
2026-07-21 03:20:31.695,-0.46,-0.71,-0.31,27.34,-41.44,-96.25
2026-07-21 03:20:31.697,-0.48,-0.6,-0.3,32.17,-16.72,-60.55
2026-07-21 03:20:31.756,-0.48,-0.6,-0.3,32.17,-16.72,-60.55
2026-07-21 03:20:31.756,-0.44,-0.51,-0.26,26.43,3.11,-16.72
2026-07-21 03:20:31.816,-0.44,-0.51,-0.26,26.43,3.11,-16.72
2026-07-21 03:20:31.816,-0.37,-0.39,-0.26,13.37,7.81,12.82
2026-07-21 03:20:31.817,-0.32,-0.42,-0.31,-1.59,16.66,25.88
2026-07-21 03:20:31.875,-0.32,-0.42,-0.31,-1.59,16.66,25.88
2026-07-21 03:20:31.876,-0.35,-0.72,-0.5,-23.32,47.18,37.05
2026-07-21 03:20:31.876,-0.35,-0.72,-0.5,-23.32,47.18,37.05
2026-07-21 03:20:31.936,-0.43,-1.13,-0.93,-47.12,92.9,47.91
2026-07-21 03:20:31.936,-0.43,-1.13,-0.93,-47.12,92.9,47.91
2026-07-21 03:20:31.996,-0.42,-1.43,-1.6,-63.6,130.43,58.41
2026-07-21 03:20:31.996,-0.42,-1.43,-1.6,-93.02,97.29,46.94
2026-07-21 03:20:31.996,-0.28,-1.72,-2.37,-93.02,97.29,46.94
2026-07-21 03:20:32.056,-0.34,-2.07,-2.57,-144.65,64.88,16.42
2026-07-21 03:20:32.057,-0.34,-2.07,-2.57,-144.65,64.88,16.42
2026-07-21 03:20:32.119,-0.55,-2.16,-1.89,-170.23,167.36,13.92
2026-07-21 03:20:32.119,-0.55,-2.16,-1.89,-170.23,167.36,13.92
2026-07-21 03:20:32.119,-0.53,-1.74,-0.97,-159.36,284.3,21.12
2026-07-21 03:20:32.176,-0.53,-1.74,-0.97,-159.36,284.3,21.12
2026-07-21 03:20:32.177,-0.53,-1.74,-0.97,-159.36,284.3,21.12
2026-07-21 03:20:32.177,-0.53,-1.74,-0.97,-159.36,284.3,21.12
2026-07-21 03:20:32.236,0.11,-0.51,-0.08,-158.14,176.51,-29.3
2026-07-21 03:20:32.237,0.11,-0.51,-0.08,-166.99,70.74,-60.36
2026-07-21 03:20:32.237,0.24,-0.46,-0.12,-166.99,70.74,-60.36
2026-07-21 03:20:32.307,0.2,-0.73,-0.24,-179.08,0.24,-89.54
2026-07-21 03:20:32.307,0.2,-0.73,-0.24,-179.08,0.24,-89.54
2026-07-21 03:20:32.360,0.06,-0.96,-0.27,-186.52,-2.08,-113.1
2026-07-21 03:20:32.360,0.06,-0.96,-0.27,-186.52,-2.08,-113.1
2026-07-21 03:20:32.360,-0.12,-0.91,-0.24,-174.13,44.37,-128.3
2026-07-21 03:20:32.415,-0.12,-0.91,-0.24,-174.13,44.37,-128.3
2026-07-21 03:20:32.416,-0.23,-0.64,-0.13,-149.48,90.15,-130.49
2026-07-21 03:20:32.416,-0.26,-0.16,0.13,-119.02,131.53,-113.89
2026-07-21 03:20:32.477,-0.26,-0.16,0.13,-119.02,131.53,-113.89
2026-07-21 03:20:32.477,-0.22,0.41,0.4,-64.39,176.82,-72.63
2026-07-21 03:20:32.602,-0.22,0.41,0.4,-64.39,176.82,-72.63
2026-07-21 03:20:32.603,-0.1,0.65,0.25,18.07,155.7,-8.97
2026-07-21 03:20:32.603,-0.1,0.65,0.25,18.07,155.7,-8.97
2026-07-21 03:20:32.603,0.01,0.31,-0.32,96.37,7.45,44.31
2026-07-21 03:20:32.603,-0.04,-0.47,-0.68,137.76,-160.77,67.69
2026-07-21 03:20:32.603,-0.04,-0.47,-0.68,137.76,-160.77,67.69
2026-07-21 03:20:32.716,-0.23,-1.18,-0.6,166.44,-198.85,93.26
2026-07-21 03:20:32.716,-0.23,-1.18,-0.6,166.44,-198.85,93.26
2026-07-21 03:20:32.717,-0.35,-1.43,-0.44,203.43,-165.95,119.38
2026-07-21 03:20:32.717,-0.35,-1.43,-0.44,203.43,-165.95,119.38
2026-07-21 03:20:32.717,-0.27,-1.29,-0.41,217.65,-192.32,106.02
2026-07-21 03:20:32.780,-0.09,-1.02,-0.51,214.42,-255.25,59.02
2026-07-21 03:20:32.780,-0.09,-1.02,-0.51,214.42,-255.25,59.02
2026-07-21 03:20:32.836,0.01,-0.79,-0.66,222.29,-264.71,16.05
2026-07-21 03:20:32.836,0.01,-0.79,-0.66,222.29,-264.71,16.05
2026-07-21 03:20:32.839,-0.05,-0.73,-0.84,227.48,-197.08,-5.62
2026-07-21 03:20:32.897,-0.05,-0.73,-0.84,227.48,-197.08,-5.62
2026-07-21 03:20:32.897,-0.3,-0.84,-1.28,209.23,-83.74,-7.93
2026-07-21 03:20:32.956,-0.55,-0.98,-2.2,169.07,30.7,14.65
2026-07-21 03:20:32.957,-0.55,-0.98,-2.2,169.07,30.7,14.65
2026-07-21 03:20:32.957,-0.66,-1.03,-3.37,106.93,58.84,27.1
2026-07-21 03:20:33.018,-0.66,-1.03,-3.37,106.93,58.84,27.1
2026-07-21 03:20:33.018,-0.74,-1.49,-3.73,-5.74,49.44,25.33
2026-07-21 03:20:33.019,-0.74,-1.49,-3.73,-5.74,49.44,25.33
2026-07-21 03:20:33.076,-0.59,-2.21,-2.92,-133.36,154.17,75.13
2026-07-21 03:20:33.076,-0.21,-2.27,-2.0,-200.32,240.97,93.57
2026-07-21 03:20:33.144,-0.21,-2.27,-2.0,-200.32,240.97,93.57
2026-07-21 03:20:33.145,0.1,-1.68,-1.55,-214.6,188.35,9.77
2026-07-21 03:20:33.145,0.1,-1.68,-1.55,-214.6,188.35,9.77
2026-07-21 03:20:33.199,0.26,-1.01,-1.33,-203.06,138.55,-62.5
2026-07-21 03:20:33.199,0.26,-1.01,-1.33,-203.06,138.55,-62.5
2026-07-21 03:20:33.199,0.24,-0.8,-1.18,-193.12,150.27,-80.69
2026-07-21 03:20:33.315,0.01,-1.12,-1.0,-209.05,183.04,-86.3
2026-07-21 03:20:33.316,0.01,-1.12,-1.0,-209.05,183.04,-86.3
2026-07-21 03:20:33.316,-0.24,-1.52,-0.79,-229.49,216.31,-98.14
2026-07-21 03:20:33.319,-0.24,-1.52,-0.79,-229.49,216.31,-98.14
2026-07-21 03:20:33.319,-0.42,-1.65,-0.67,-235.29,221.44,-130.9
2026-07-21 03:20:33.435,-0.42,-1.65,-0.67,-235.29,221.44,-130.9
2026-07-21 03:20:33.435,-0.48,-1.51,-0.62,-238.4,189.39,-170.0
2026-07-21 03:20:33.436,-0.51,-1.17,-0.38,-240.11,156.8,-182.0
2026-07-21 03:20:33.436,-0.51,-1.17,-0.38,-240.11,156.8,-182.0
2026-07-21 03:20:33.437,-0.73,-0.44,0.51,-232.12,159.36,-166.02
2026-07-21 03:20:33.497,-0.73,-0.44,0.51,-232.12,159.36,-166.02
2026-07-21 03:20:33.497,-1.08,0.54,1.79,-197.75,153.56,-140.87
2026-07-21 03:20:33.556,-1.26,1.0,2.4,-104.25,71.9,-96.44
2026-07-21 03:20:33.557,-1.26,1.0,2.4,-104.25,71.9,-96.44
2026-07-21 03:20:33.558,-1.2,0.41,1.77,48.58,-64.51,-24.84
2026-07-21 03:20:33.626,-1.2,0.41,1.77,48.58,-64.51,-24.84
2026-07-21 03:20:33.626,-0.91,-0.89,0.22,219.06,-193.91,49.5
2026-07-21 03:20:33.626,-0.91,-0.89,0.22,219.06,-193.91,49.5
2026-07-21 03:20:33.675,-0.48,-1.99,-1.24,351.32,-268.01,91.19
2026-07-21 03:20:33.675,-0.05,-2.34,-1.79,408.39,-266.42,87.65
2026-07-21 03:20:33.761,-0.05,-2.34,-1.79,408.39,-266.42,87.65
2026-07-21 03:20:33.762,0.27,-2.09,-1.44,399.72,-195.5,71.9
2026-07-21 03:20:33.765,0.27,-2.09,-1.44,399.72,-195.5,71.9
2026-07-21 03:20:33.795,0.29,-1.63,-0.83,362.37,-113.53,50.48
2026-07-21 03:20:33.797,0.29,-1.63,-0.83,362.37,-113.53,50.48
2026-07-21 03:20:33.859,0.01,-1.28,-0.69,336.98,-91.25,14.28
2026-07-21 03:20:33.859,-0.19,-1.06,-1.14,326.11,-98.45,-3.42
2026-07-21 03:20:33.859,-0.19,-1.06,-1.14,326.11,-98.45,-3.42
2026-07-21 03:20:33.916,0.0,-1.16,-1.96,284.73,-27.04,33.26
2026-07-21 03:20:33.916,0.0,-1.16,-1.96,284.73,-27.04,33.26
2026-07-21 03:20:33.916,0.33,-0.95,-3.12,209.47,49.38,49.01
2026-07-21 03:20:34.036,0.33,-0.95,-3.12,209.47,49.38,49.01
2026-07-21 03:20:34.036,0.34,-0.65,-3.91,62.01,-8.24,-33.08
2026-07-21 03:20:34.037,0.34,-0.65,-3.91,62.01,-8.24,-33.08
2026-07-21 03:20:34.037,0.34,-0.65,-3.91,62.01,-8.24,-33.08
2026-07-21 03:20:34.037,0.34,-0.65,-3.91,62.01,-8.24,-33.08
2026-07-21 03:20:34.095,0.53,-2.14,-2.53,-329.71,310.42,120.67
2026-07-21 03:20:34.095,0.67,-1.87,-1.87,-318.24,310.3,73.91
2026-07-21 03:20:34.095,0.67,-1.87,-1.87,-318.24,310.3,73.91
2026-07-21 03:20:34.156,0.5,-1.01,-1.48,-241.58,162.96,-69.03
2026-07-21 03:20:34.156,0.5,-1.01,-1.48,-241.58,162.96,-69.03
2026-07-21 03:20:34.216,0.37,-0.42,-1.11,-203.98,104.98,-114.01
2026-07-21 03:20:34.218,0.37,-0.42,-1.11,-203.98,104.98,-114.01
2026-07-21 03:20:34.218,0.27,-0.41,-0.82,-218.02,157.53,-83.44
2026-07-21 03:20:34.278,0.19,-0.76,-0.68,-257.14,214.78,-64.15
2026-07-21 03:20:34.278,0.19,-0.76,-0.68,-257.14,214.78,-64.15
2026-07-21 03:20:34.278,0.14,-0.96,-0.68,-276.61,237.24,-68.91
2026-07-21 03:20:34.336,0.14,-0.96,-0.68,-276.61,237.24,-68.91
2026-07-21 03:20:34.336,0.17,-0.88,-0.75,-279.97,244.87,-77.7
2026-07-21 03:20:34.396,0.17,-0.88,-0.75,-279.97,244.87,-77.7
2026-07-21 03:20:34.396,0.2,-0.67,-0.75,-297.36,247.44,-67.99
2026-07-21 03:20:34.396,0.1,-0.51,-0.65,-330.14,248.05,-26.67
2026-07-21 03:20:34.456,0.1,-0.51,-0.65,-330.14,248.05,-26.67
2026-07-21 03:20:34.457,-0.16,-0.46,-0.38,-339.72,253.54,37.6
2026-07-21 03:20:34.457,-0.16,-0.46,-0.38,-339.72,253.54,37.6
2026-07-21 03:20:34.527,-0.49,-0.31,0.25,-216.86,249.21,118.59
2026-07-21 03:20:34.527,-0.49,-0.31,0.25,-216.86,249.21,118.59
2026-07-21 03:20:34.575,-0.67,0.05,0.97,20.08,200.74,187.93
2026-07-21 03:20:34.576,-0.58,0.42,1.24,195.8,83.98,238.16
2026-07-21 03:20:34.576,-0.58,0.42,1.24,195.8,83.98,238.16
2026-07-21 03:20:34.636,-0.24,0.51,0.95,232.3,-99.18,284.91
2026-07-21 03:20:34.637,-0.24,0.51,0.95,232.3,-99.18,284.91
2026-07-21 03:20:34.696,0.16,0.31,0.38,164.0,-278.02,289.31
2026-07-21 03:20:34.696,0.16,0.31,0.38,164.0,-278.02,289.31
2026-07-21 03:20:34.696,0.16,0.31,0.38,164.0,-278.02,289.31
2026-07-21 03:20:34.756,0.16,0.31,0.38,164.0,-278.02,289.31
2026-07-21 03:20:34.756,0.62,-0.19,-0.62,-105.53,-333.92,162.96
2026-07-21 03:20:34.757,0.57,-0.27,-0.81,-205.81,-271.18,109.07
2026-07-21 03:20:34.817,0.57,-0.27,-0.81,-205.81,-271.18,109.07
2026-07-21 03:20:34.818,0.47,-0.15,-0.86,-161.74,-240.23,63.48
2026-07-21 03:20:34.879,0.47,-0.15,-0.86,-161.74,-240.23,63.48
2026-07-21 03:20:34.879,0.34,-0.07,-0.87,-34.48,-228.58,50.78
2026-07-21 03:20:34.880,0.34,-0.07,-0.87,-34.48,-228.58,50.78
2026-07-21 03:20:34.937,0.23,-0.05,-1.03,35.64,-231.45,46.08
2026-07-21 03:20:34.937,0.17,0.01,-1.33,30.09,-275.51,4.27
2026-07-21 03:20:34.937,0.17,0.01,-1.33,30.09,-275.51,4.27
2026-07-21 03:20:35.066,0.05,-0.05,-1.61,3.36,-315.61,-40.71
2026-07-21 03:20:35.066,0.05,-0.05,-1.61,3.36,-315.61,-40.71
2026-07-21 03:20:35.066,-0.16,-0.16,-1.68,10.01,-317.57,-57.92
2026-07-21 03:20:35.066,-0.16,-0.16,-1.68,10.01,-317.57,-57.92
2026-07-21 03:20:35.067,-0.44,-0.23,-1.59,56.82,-323.61,-74.28
2026-07-21 03:20:35.116,-0.44,-0.23,-1.59,99.55,-337.59,-65.31
2026-07-21 03:20:35.116,-0.71,-0.39,-1.41,99.55,-337.59,-65.31
2026-07-21 03:20:35.175,-0.92,-0.69,-1.24,102.29,-298.22,-3.36
2026-07-21 03:20:35.176,-0.92,-0.69,-1.24,102.29,-298.22,-3.36
2026-07-21 03:20:35.176,-0.97,-0.94,-1.25,88.68,-220.4,67.93
2026-07-21 03:20:35.235,-0.97,-0.94,-1.25,88.68,-220.4,67.93
2026-07-21 03:20:35.238,-0.81,-0.99,-1.37,92.53,-162.78,123.84
2026-07-21 03:20:35.238,-0.81,-0.99,-1.37,121.52,-108.28,172.97
2026-07-21 03:20:35.356,-0.61,-0.91,-1.4,121.52,-108.28,172.97
2026-07-21 03:20:35.357,-0.53,-0.79,-1.24,172.79,-20.08,215.64
2026-07-21 03:20:35.357,-0.53,-0.79,-1.24,172.79,-20.08,215.64
2026-07-21 03:20:35.357,-0.58,-0.66,-1.0,224.12,78.67,235.11
2026-07-21 03:20:35.359,-0.58,-0.66,-1.0,224.12,78.67,235.11
2026-07-21 03:20:35.476,-0.66,-0.54,-0.81,250.0,152.89,219.6
2026-07-21 03:20:35.476,-0.69,-0.47,-0.71,235.78,191.96,183.84
2026-07-21 03:20:35.476,-0.69,-0.47,-0.71,235.78,191.96,183.84
2026-07-21 03:20:35.476,-0.67,-0.51,-0.68,173.77,197.2,151.92
2026-07-21 03:20:35.478,-0.67,-0.51,-0.68,173.77,197.2,151.92
2026-07-21 03:20:35.599,-0.62,-0.62,-0.64,82.58,175.17,131.59
2026-07-21 03:20:35.599,-0.58,-0.71,-0.54,24.41,147.22,126.4
2026-07-21 03:20:35.613,-0.58,-0.71,-0.54,24.41,147.22,126.4
2026-07-21 03:20:35.614,-0.56,-0.71,-0.41,37.66,133.18,121.95
2026-07-21 03:20:35.614,-0.56,-0.71,-0.41,37.66,133.18,121.95
2026-07-21 03:20:35.658,-0.53,-0.64,-0.31,76.72,122.68,83.5
2026-07-21 03:20:35.658,-0.53,-0.64,-0.31,76.72,122.68,83.5
2026-07-21 03:20:35.658,-0.5,-0.56,-0.26,91.49,100.1,8.36
2026-07-21 03:20:35.720,-0.52,-0.55,-0.2,75.99,65.12,-74.71
2026-07-21 03:20:35.720,-0.52,-0.55,-0.2,75.99,65.12,-74.71
2026-07-21 03:20:35.776,-0.58,-0.61,-0.11,46.39,22.95,-129.76
2026-07-21 03:20:35.776,-0.58,-0.61,-0.11,46.39,22.95,-129.76
2026-07-21 03:20:35.776,-0.67,-0.69,-0.03,31.92,-24.72,-133.85
2026-07-21 03:20:35.835,-0.67,-0.69,-0.03,31.92,-24.72,-133.85
2026-07-21 03:20:35.836,-0.78,-0.82,-0.0,48.65,-81.3,-120.24
2026-07-21 03:20:35.896,-0.78,-0.82,-0.0,73.73,-151.67,-124.21
2026-07-21 03:20:35.897,-0.83,-1.04,-0.08,73.73,-151.67,-124.21
2026-07-21 03:20:35.897,-0.88,-1.24,-0.25,93.32,-226.14,-131.96
2026-07-21 03:20:35.955,-0.88,-1.24,-0.25,93.32,-226.14,-131.96
2026-07-21 03:20:35.956,-1.01,-1.33,-0.35,116.46,-271.79,-115.8
2026-07-21 03:20:35.956,-1.01,-1.33,-0.35,116.46,-271.79,-115.8
2026-07-21 03:20:36.026,-1.11,-1.42,-0.39,146.48,-275.51,-70.98
2026-07-21 03:20:36.027,-1.13,-1.4,-0.51,175.72,-249.27,-52.0
2026-07-21 03:20:36.076,-1.13,-1.4,-0.51,175.72,-249.27,-52.0
2026-07-21 03:20:36.077,-1.09,-1.08,-0.57,199.58,-203.98,-84.9
2026-07-21 03:20:36.077,-1.09,-1.08,-0.57,199.58,-203.98,-84.9
2026-07-21 03:20:36.139,-0.95,-0.63,-0.54,193.12,-164.49,-136.5
2026-07-21 03:20:36.139,-0.95,-0.63,-0.54,193.12,-164.49,-136.5
2026-07-21 03:20:36.195,-0.73,-0.32,-0.5,152.95,-128.91,-160.7
2026-07-21 03:20:36.195,-0.56,-0.32,-0.33,124.76,-66.28,-101.99
2026-07-21 03:20:36.197,-0.56,-0.32,-0.33,124.76,-66.28,-101.99
2026-07-21 03:20:36.255,-0.51,-0.57,-0.01,118.59,9.95,20.75
2026-07-21 03:20:36.256,-0.51,-0.57,-0.01,118.59,9.95,20.75
2026-07-21 03:20:36.256,-0.57,-0.77,0.29,117.98,78.92,123.29
2026-07-21 03:20:36.318,-0.57,-0.77,0.29,117.98,78.92,123.29
2026-07-21 03:20:36.319,-0.61,-0.77,0.5,109.01,149.23,176.15
2026-07-21 03:20:36.375,-0.64,-0.71,0.53,47.73,204.35,197.69
2026-07-21 03:20:36.376,-0.64,-0.71,0.53,47.73,204.35,197.69
2026-07-21 03:20:36.378,-0.77,-0.7,0.37,-55.91,194.64,197.33
2026-07-21 03:20:36.507,-0.77,-0.7,0.37,-55.91,194.64,197.33
2026-07-21 03:20:36.507,-0.85,-0.63,0.28,-80.57,94.48,175.23
2026-07-21 03:20:36.507,-0.85,-0.63,0.28,-80.57,94.48,175.23
2026-07-21 03:20:36.507,-0.83,-0.55,0.33,-31.56,-12.94,136.11
2026-07-21 03:20:36.507,-0.8,-0.51,0.39,-11.96,-37.41,95.89
2026-07-21 03:20:36.556,-0.8,-0.51,0.39,-11.96,-37.41,95.89
2026-07-21 03:20:36.556,-0.8,-0.51,0.46,-28.44,-0.92,52.19
2026-07-21 03:20:36.556,-0.8,-0.51,0.46,-28.44,-0.92,52.19
2026-07-21 03:20:36.615,-0.83,-0.56,0.61,-38.82,33.75,-25.76
2026-07-21 03:20:36.616,-0.83,-0.56,0.61,-38.82,33.75,-25.76
2026-07-21 03:20:36.736,-0.86,-0.73,0.85,-30.76,8.97,-143.62
2026-07-21 03:20:36.738,-0.83,-0.96,1.16,-20.75,-79.65,-226.32
2026-07-21 03:20:36.741,-0.83,-0.96,1.16,-20.75,-79.65,-226.32
2026-07-21 03:20:36.741,-0.76,-1.12,1.37,-9.95,-175.84,-213.38
2026-07-21 03:20:36.741,-0.76,-1.12,1.37,-9.95,-175.84,-213.38
2026-07-21 03:20:36.800,-0.69,-1.04,1.33,26.61,-234.68,-145.57
2026-07-21 03:20:36.800,-0.69,-1.04,1.33,26.61,-234.68,-145.57
2026-07-21 03:20:36.800,-0.62,-0.81,1.22,70.5,-258.73,-83.07
2026-07-21 03:20:36.861,-0.59,-0.6,1.3,63.9,-254.88,-30.64
2026-07-21 03:20:36.861,-0.59,-0.6,1.3,63.9,-254.88,-30.64
2026-07-21 03:20:36.861,-0.66,-0.42,1.38,-11.23,-253.11,29.42
2026-07-21 03:20:36.924,-0.66,-0.42,1.38,-11.23,-253.11,29.42
2026-07-21 03:20:36.924,-0.66,-0.48,1.2,-138.12,-305.91,47.79
2026-07-21 03:20:37.041,-0.66,-0.48,1.2,-138.12,-305.91,47.79
2026-07-21 03:20:37.041,-0.56,-0.72,0.81,-209.72,-375.43,-0.37
2026-07-21 03:20:37.041,-0.45,-0.83,0.37,-135.99,-396.36,-60.18
2026-07-21 03:20:37.041,-0.45,-0.83,0.37,-135.99,-396.36,-60.18
2026-07-21 03:20:37.041,-0.36,-0.75,0.02,14.89,-372.25,-100.1
2026-07-21 03:20:37.041,-0.36,-0.75,0.02,14.89,-372.25,-100.1
2026-07-21 03:20:37.217,-0.29,-0.58,-0.19,158.02,-330.14,-104.2
2026-07-21 03:20:37.218,-0.29,-0.58,-0.19,158.02,-330.14,-104.2
2026-07-21 03:20:37.218,-0.14,-0.54,-0.33,230.29,-290.59,-56.34
2026-07-21 03:20:37.218,0.08,-0.69,-0.4,173.1,-254.46,12.88
2026-07-21 03:20:37.219,0.08,-0.69,-0.4,173.1,-254.46,12.88
2026-07-21 03:20:37.219,0.3,-0.8,-0.38,62.44,-189.76,41.75
2026-07-21 03:20:37.219,0.3,-0.8,-0.38,62.44,-189.76,41.75
2026-07-21 03:20:37.280,0.46,-0.8,-0.27,3.97,-97.29,18.86
2026-07-21 03:20:37.281,0.46,-0.8,-0.27,3.97,-97.29,18.86
2026-07-21 03:20:37.281,0.58,-0.76,-0.11,-2.14,-23.56,-18.25
2026-07-21 03:20:37.335,0.58,-0.76,-0.11,21.61,14.28,-40.71
2026-07-21 03:20:37.336,0.67,-0.7,0.05,21.61,14.28,-40.71
2026-07-21 03:20:37.396,0.77,-0.64,0.15,55.97,25.82,-46.94
2026-07-21 03:20:37.397,0.77,-0.64,0.15,55.97,25.82,-46.94
2026-07-21 03:20:37.397,0.84,-0.58,0.19,68.18,22.58,-40.04
2026-07-21 03:20:37.579,0.84,-0.58,0.19,68.18,22.58,-40.04
2026-07-21 03:20:37.580,0.86,-0.56,0.21,50.29,14.53,-24.78
2026-07-21 03:20:37.580,0.86,-0.56,0.21,50.29,14.53,-24.78
2026-07-21 03:20:37.580,0.84,-0.56,0.19,25.94,4.64,-10.56
2026-07-21 03:20:37.581,0.79,-0.57,0.13,10.44,-5.43,-1.71
2026-07-21 03:20:37.584,0.79,-0.57,0.13,10.44,-5.43,-1.71
2026-07-21 03:20:37.585,0.74,-0.58,0.07,5.68,-10.31,1.22
2026-07-21 03:20:37.585,0.74,-0.58,0.07,5.68,-10.31,1.22
2026-07-21 03:20:37.643,0.7,-0.58,0.04,12.27,-5.8,-1.4
2026-07-21 03:20:37.644,0.7,-0.58,0.04,12.27,-5.8,-1.4
2026-07-21 03:20:37.644,0.65,-0.56,0.04,26.92,6.29,-8.97
2026-07-21 03:20:37.704,0.59,-0.51,0.02,36.01,17.27,-21.67
2026-07-21 03:20:37.704,0.59,-0.51,0.02,36.01,17.27,-21.67
2026-07-21 03:20:37.760,0.49,-0.41,-0.01,17.46,18.01,-40.22
2026-07-21 03:20:37.761,0.49,-0.41,-0.01,17.46,18.01,-40.22
2026-07-21 03:20:37.761,0.35,-0.27,0.01,-11.54,26.43,-34.36
2026-07-21 03:20:37.815,0.35,-0.27,0.01,-11.54,26.43,-34.36
2026-07-21 03:20:37.816,0.2,-0.13,0.04,-20.2,56.95,6.59
2026-07-21 03:20:37.816,0.2,-0.13,0.04,-20.2,56.95,6.59
2026-07-21 03:20:37.937,0.1,-0.07,0.09,-33.63,66.77,6.41
2026-07-21 03:20:37.937,0.21,-0.13,0.2,-54.63,58.29,-60.12
2026-07-21 03:20:37.937,0.21,-0.13,0.2,-54.63,58.29,-60.12
2026-07-21 03:20:37.937,0.36,-0.2,0.26,-34.24,93.57,-129.7
2026-07-21 03:20:37.938,0.36,-0.2,0.26,-34.24,93.57,-129.7
2026-07-21 03:20:38.002,0.3,-0.17,0.19,16.05,161.25,-149.54
2026-07-21 03:20:38.002,0.3,-0.17,0.19,16.05,161.25,-149.54
2026-07-21 03:20:38.002,0.11,-0.07,0.07,61.77,235.9,-103.82
2026-07-21 03:20:38.116,-0.2,-0.0,0.08,96.19,312.01,-39.0
2026-07-21 03:20:38.116,-0.2,-0.0,0.08,96.19,312.01,-39.0
2026-07-21 03:20:38.116,-0.71,0.07,0.38,98.94,350.22,-14.95
2026-07-21 03:20:38.117,-0.71,0.07,0.38,98.94,350.22,-14.95
2026-07-21 03:20:38.117,-0.83,0.13,0.52,82.7,268.49,11.05
2026-07-21 03:20:38.236,-0.83,0.13,0.52,82.7,268.49,11.05
2026-07-21 03:20:38.238,-0.69,0.07,1.05,40.77,162.41,104.31
2026-07-21 03:20:38.238,-0.42,-0.59,2.64,-56.52,195.31,189.21
2026-07-21 03:20:38.238,-0.42,-0.59,2.64,-56.52,195.31,189.21
2026-07-21 03:20:38.238,0.32,-1.43,3.68,-92.1,207.34,219.6
2026-07-21 03:20:38.296,0.32,-1.43,3.68,-92.1,207.34,219.6
2026-07-21 03:20:38.296,0.58,-1.36,3.33,-20.51,84.11,182.19
2026-07-21 03:20:38.299,0.58,-1.36,3.33,-20.51,84.11,182.19
2026-07-21 03:20:38.357,0.06,-0.63,2.56,26.37,-24.84,75.68
2026-07-21 03:20:38.357,-0.49,-0.09,2.07,18.31,-38.39,-4.64
2026-07-21 03:20:38.421,-0.49,-0.09,2.07,18.31,-38.39,-4.64
2026-07-21 03:20:38.421,-0.71,-0.0,1.84,11.54,-15.32,-10.86
2026-07-21 03:20:38.422,-0.71,-0.0,1.84,11.54,-15.32,-10.86
2026-07-21 03:20:38.538,-0.64,-0.15,1.65,11.17,-18.86,24.54
2026-07-21 03:20:38.539,-0.64,-0.15,1.65,11.17,-18.86,24.54
2026-07-21 03:20:38.539,-0.52,-0.31,1.46,-26.67,-51.33,36.07
2026-07-21 03:20:38.539,-0.52,-0.31,1.46,-26.67,-51.33,36.07
2026-07-21 03:20:38.539,-0.42,-0.31,1.21,-66.47,-77.58,1.71
2026-07-21 03:20:38.655,-0.3,-0.19,0.85,-31.01,-64.51,-42.24
2026-07-21 03:20:38.656,-0.3,-0.19,0.85,-31.01,-64.51,-42.24
2026-07-21 03:20:38.656,-0.22,-0.08,0.58,56.4,-8.42,-65.19
2026-07-21 03:20:38.657,-0.22,-0.08,0.58,56.4,-8.42,-65.19
2026-07-21 03:20:38.657,-0.23,0.07,0.53,160.77,54.81,-58.41
2026-07-21 03:20:38.657,-0.23,0.07,0.53,160.77,54.81,-58.41
2026-07-21 03:20:38.895,-0.24,0.15,0.51,197.14,59.33,-18.01
2026-07-21 03:20:38.895,-0.24,0.15,0.51,67.02,-11.29,25.33
2026-07-21 03:20:38.895,-0.15,0.0,0.43,67.02,-11.29,25.33
2026-07-21 03:20:38.895,-0.05,-0.14,0.37,-91.06,-80.08,25.76
2026-07-21 03:20:38.901,-0.05,-0.14,0.37,-91.06,-80.08,25.76
2026-07-21 03:20:38.901,0.02,-0.08,0.38,-106.75,-88.26,2.01
2026-07-21 03:20:38.902,0.02,-0.08,0.38,-106.75,-88.26,2.01
2026-07-21 03:20:38.902,0.07,-0.0,0.45,-64.27,-61.4,-6.59
2026-07-21 03:20:38.902,0.07,-0.0,0.45,-64.27,-61.4,-6.59
2026-07-21 03:20:38.902,0.11,-0.05,0.59,-64.27,-36.68,-3.97
2026-07-21 03:20:38.902,0.11,-0.05,0.59,-64.27,-36.68,-3.97
2026-07-21 03:20:39.017,0.11,-0.05,0.59,-64.27,-36.68,-3.97
2026-07-21 03:20:39.017,0.11,-0.05,0.59,-64.27,-36.68,-3.97
2026-07-21 03:20:39.017,0.12,-0.14,0.81,-47.97,-18.13,-20.14
2026-07-21 03:20:39.017,0.12,-0.14,0.81,-47.97,-18.13,-20.14
2026-07-21 03:20:39.017,0.11,-0.13,0.86,-31.19,-25.7,-31.19
2026-07-21 03:20:39.140,0.12,-0.13,0.89,-15.56,-31.37,-33.02
2026-07-21 03:20:39.140,0.12,-0.13,0.89,-15.56,-31.37,-33.02
2026-07-21 03:20:39.140,0.15,-0.15,0.87,-6.29,-36.13,-28.08
2026-07-21 03:20:39.140,0.15,-0.15,0.87,-6.29,-36.13,-28.08
2026-07-21 03:20:39.140,0.19,-0.17,0.83,0.0,-38.45,-23.74
2026-07-21 03:20:39.140,0.19,-0.17,0.83,0.0,-38.45,-23.74
2026-07-21 03:20:39.201,0.21,-0.17,0.83,2.26,-32.04,-23.13
2026-07-21 03:20:39.201,0.21,-0.17,0.83,2.26,-32.04,-23.13
2026-07-21 03:20:39.380,0.23,-0.19,0.86,-3.78,-21.06,-24.05
2026-07-21 03:20:39.381,0.24,-0.2,0.88,-4.58,-10.56,-24.78
2026-07-21 03:20:39.381,0.24,-0.2,0.88,-4.58,-10.56,-24.78
2026-07-21 03:20:39.381,0.25,-0.2,0.91,0.12,-2.08,-25.57
2026-07-21 03:20:39.381,0.25,-0.2,0.91,0.12,-2.08,-25.57
2026-07-21 03:20:39.382,0.25,-0.2,0.94,-2.93,2.87,-26.18
2026-07-21 03:20:39.382,0.25,-0.2,0.94,-2.93,2.87,-26.18
2026-07-21 03:20:39.382,0.26,-0.21,0.95,-5.86,4.15,-26.12
2026-07-21 03:20:39.437,0.26,-0.21,0.95,-5.86,4.15,-26.12
2026-07-21 03:20:39.437,0.27,-0.19,0.95,0.92,4.82,-25.94
2026-07-21 03:20:39.437,0.27,-0.16,0.94,6.9,6.59,-25.76
2026-07-21 03:20:39.496,0.27,-0.16,0.94,6.9,6.59,-25.76
2026-07-21 03:20:39.497,0.28,-0.15,0.94,4.09,8.12,-24.35
2026-07-21 03:20:39.556,0.28,-0.15,0.94,4.09,8.12,-24.35
2026-07-21 03:20:39.557,0.28,-0.15,0.95,0.61,8.67,-21.85
2026-07-21 03:20:39.558,0.28,-0.15,0.95,0.61,8.67,-21.85
2026-07-21 03:20:39.617,0.28,-0.15,0.96,2.87,8.91,-19.84
2026-07-21 03:20:39.617,0.27,-0.14,0.98,4.27,9.16,-18.74
2026-07-21 03:20:39.618,0.27,-0.14,0.98,4.27,9.16,-18.74
2026-07-21 03:20:39.683,0.26,-0.15,0.99,1.83,8.42,-18.07
2026-07-21 03:20:39.683,0.26,-0.15,0.99,1.83,8.42,-18.07
2026-07-21 03:20:39.979,0.25,-0.15,0.99,0.67,5.0,-17.21
2026-07-21 03:20:39.979,0.25,-0.15,0.99,0.67,5.0,-17.21
2026-07-21 03:20:39.979,0.26,-0.15,0.97,-1.95,-1.1,-15.44
2026-07-21 03:20:39.980,0.26,-0.15,0.97,-1.95,-1.1,-15.44
2026-07-21 03:20:39.980,0.27,-0.17,0.96,-11.29,-6.23,-13.85
2026-07-21 03:20:39.981,0.27,-0.17,0.96,-11.29,-6.23,-13.85
2026-07-21 03:20:39.981,0.27,-0.19,0.95,-21.12,-8.24,-16.11
2026-07-21 03:20:39.981,0.28,-0.21,0.92,-26.55,-12.21,-25.33
2026-07-21 03:20:39.982,0.28,-0.21,0.92,-26.55,-12.21,-25.33
2026-07-21 03:20:39.982,0.31,-0.21,0.9,-22.64,-14.04,-41.44
2026-07-21 03:20:39.982,0.31,-0.21,0.9,-22.64,-14.04,-41.44
2026-07-21 03:20:39.983,0.31,-0.15,0.96,1.16,-3.05,-56.03
2026-07-21 03:20:39.983,0.31,-0.15,0.96,1.16,-3.05,-56.03
2026-07-21 03:20:39.983,0.27,-0.1,0.99,8.24,1.34,-59.75
2026-07-21 03:20:40.039,0.27,-0.1,0.99,8.24,1.34,-59.75
2026-07-21 03:20:40.039,0.27,-0.11,0.97,-10.68,-19.04,-56.82
2026-07-21 03:20:40.096,0.33,-0.12,0.9,-24.48,-45.35,-52.73
2026-07-21 03:20:40.096,0.33,-0.12,0.9,-24.48,-45.35,-52.73
2026-07-21 03:20:40.097,0.38,-0.15,0.83,-42.48,-52.25,-45.47
2026-07-21 03:20:40.215,0.38,-0.15,0.83,-42.48,-52.25,-45.47
2026-07-21 03:20:40.216,0.4,-0.23,0.72,-54.44,-31.01,-32.47
2026-07-21 03:20:40.216,0.4,-0.23,0.72,-54.44,-31.01,-32.47
2026-07-21 03:20:40.216,0.37,-0.27,0.6,-34.24,4.03,-17.03
2026-07-21 03:20:40.217,0.37,-0.27,0.6,1.28,35.77,-8.12
2026-07-21 03:20:40.217,0.29,-0.25,0.48,1.28,35.77,-8.12
2026-07-21 03:20:40.283,0.18,-0.23,0.42,12.33,61.28,-0.98
2026-07-21 03:20:40.283,0.18,-0.23,0.42,12.33,61.28,-0.98
2026-07-21 03:20:40.397,0.07,-0.24,0.4,-7.63,89.17,20.63
2026-07-21 03:20:40.408,0.07,-0.24,0.4,-7.63,89.17,20.63
2026-07-21 03:20:40.408,-0.07,-0.28,0.42,-45.41,131.96,46.81
2026-07-21 03:20:40.408,-0.07,-0.28,0.42,-45.41,131.96,46.81
2026-07-21 03:20:40.408,-0.37,-0.35,0.49,-114.01,194.4,59.51
2026-07-21 03:20:40.455,-0.72,-0.58,0.62,-218.44,242.61,67.57
2026-07-21 03:20:40.456,-0.72,-0.58,0.62,-218.44,242.61,67.57
2026-07-21 03:20:40.456,-0.91,-0.87,0.72,-299.01,246.7,90.45
2026-07-21 03:20:40.516,-0.91,-0.87,0.72,-299.01,246.7,90.45
2026-07-21 03:20:40.516,-0.94,-1.03,0.66,-319.58,217.77,116.21
2026-07-21 03:20:40.517,-0.94,-1.03,0.66,-319.58,217.77,116.21
2026-07-21 03:20:40.636,-0.92,-1.04,0.5,-296.75,164.43,115.6
2026-07-21 03:20:40.636,-0.92,-0.97,0.35,-211.85,114.99,98.27
2026-07-21 03:20:40.636,-0.92,-0.97,0.35,-211.85,114.99,98.27
2026-07-21 03:20:40.636,-0.92,-0.86,0.24,-81.85,93.26,84.05
2026-07-21 03:20:40.637,-0.92,-0.86,0.24,-81.85,93.26,84.05
2026-07-21 03:20:40.696,-0.91,-0.77,0.19,23.07,91.37,74.04
2026-07-21 03:20:40.697,-0.91,-0.77,0.19,23.07,91.37,74.04
2026-07-21 03:20:40.758,-0.92,-0.7,0.17,68.91,98.02,70.37
2026-07-21 03:20:40.758,-0.92,-0.7,0.17,68.91,98.02,70.37
2026-07-21 03:20:40.758,-0.92,-0.7,0.17,68.91,98.02,70.37
2026-07-21 03:20:40.758,-0.92,-0.7,0.17,68.91,98.02,70.37
2026-07-21 03:20:40.822,-0.89,-0.76,0.17,12.27,69.09,91.43
2026-07-21 03:20:40.822,-0.89,-0.76,0.17,12.27,69.09,91.43
2026-07-21 03:20:40.824,-0.89,-0.76,0.17,12.27,69.09,91.43
2026-07-21 03:20:40.880,-0.89,-0.76,0.17,12.27,69.09,91.43
2026-07-21 03:20:40.880,-0.78,-0.89,0.07,-69.03,-9.03,89.66
2026-07-21 03:20:41.002,-0.78,-0.89,0.07,-63.54,-25.27,67.26
2026-07-21 03:20:41.002,-0.73,-0.88,0.05,-63.54,-25.27,67.26
2026-07-21 03:20:41.003,-0.71,-0.83,0.05,-40.1,-25.15,39.49
2026-07-21 03:20:41.003,-0.71,-0.83,0.05,-40.1,-25.15,39.49
2026-07-21 03:20:41.003,-0.7,-0.78,0.05,-27.4,-23.13,11.05
2026-07-21 03:20:41.003,-0.7,-0.78,0.05,-27.4,-23.13,11.05
2026-07-21 03:20:41.059,-0.69,-0.73,0.06,-37.35,-28.87,-14.95
2026-07-21 03:20:41.059,-0.69,-0.73,0.06,-37.35,-28.87,-14.95
2026-07-21 03:20:41.116,-0.69,-0.7,0.05,-62.13,-40.1,-37.78
2026-07-21 03:20:41.116,-0.73,-0.74,0.02,-90.64,-48.34,-58.78
2026-07-21 03:20:41.117,-0.73,-0.74,0.02,-90.64,-48.34,-58.78
2026-07-21 03:20:41.183,-0.78,-0.82,0.01,-106.81,-49.8,-71.66
2026-07-21 03:20:41.183,-0.78,-0.82,0.01,-106.81,-49.8,-71.66
2026-07-21 03:20:41.237,-0.79,-0.85,0.01,-99.18,-44.37,-71.35
2026-07-21 03:20:41.237,-0.79,-0.85,0.01,-99.18,-44.37,-71.35
2026-07-21 03:20:41.237,-0.83,-0.86,-0.0,-83.8,-34.0,-78.8
2026-07-21 03:20:41.355,-0.88,-0.9,0.01,-70.37,-28.44,-118.84
2026-07-21 03:20:41.355,-0.88,-0.9,0.01,-70.37,-28.44,-118.84
2026-07-21 03:20:41.357,-0.87,-1.01,0.03,-34.85,-20.94,-194.76
2026-07-21 03:20:41.357,-0.87,-1.01,0.03,-34.85,-20.94,-194.76
2026-07-21 03:20:41.357,-0.76,-1.12,0.03,35.1,6.29,-282.71
2026-07-21 03:20:41.358,-0.76,-1.12,0.03,35.1,6.29,-282.71
2026-07-21 03:20:41.476,-0.64,-1.11,0.03,101.99,28.87,-315.73
2026-07-21 03:20:41.476,-0.64,-1.11,0.03,101.99,28.87,-315.73
2026-07-21 03:20:41.477,-0.64,-1.11,0.03,101.99,28.87,-315.73
2026-07-21 03:20:41.477,-0.64,-1.11,0.03,101.99,28.87,-315.73
2026-07-21 03:20:41.477,-0.65,-0.68,0.03,94.42,-40.22,-160.28
2026-07-21 03:20:41.596,-0.65,-0.68,0.03,46.75,-95.46,-91.8
2026-07-21 03:20:41.598,-0.63,-0.61,-0.02,46.75,-95.46,-91.8
2026-07-21 03:20:41.598,-0.53,-0.66,-0.04,1.46,-134.09,-46.02
2026-07-21 03:20:41.598,-0.53,-0.66,-0.04,1.46,-134.09,-46.02
2026-07-21 03:20:41.599,-0.42,-0.73,-0.02,-30.21,-130.98,-9.16
2026-07-21 03:20:41.656,-0.42,-0.73,-0.02,-30.21,-130.98,-9.16
2026-07-21 03:20:41.656,-0.37,-0.76,0.0,-37.6,-86.3,24.29
2026-07-21 03:20:41.656,-0.43,-0.76,0.03,-19.29,-25.21,46.45
2026-07-21 03:20:41.716,-0.43,-0.76,0.03,-19.29,-25.21,46.45
2026-07-21 03:20:41.716,-0.55,-0.74,0.07,9.83,35.22,53.04
2026-07-21 03:20:41.837,-0.55,-0.74,0.07,9.83,35.22,53.04
2026-07-21 03:20:41.837,-0.65,-0.76,0.13,30.03,83.92,61.28
2026-07-21 03:20:41.837,-0.65,-0.76,0.13,30.03,83.92,61.28
2026-07-21 03:20:41.837,-0.68,-0.84,0.18,34.73,104.92,94.85
2026-07-21 03:20:41.837,-0.68,-0.97,0.21,36.62,100.4,149.35
2026-07-21 03:20:41.851,-0.68,-0.97,0.21,36.62,100.4,149.35
2026-07-21 03:20:41.895,-0.66,-1.09,0.24,42.42,92.22,193.3
2026-07-21 03:20:41.896,-0.66,-1.09,0.24,42.42,92.22,193.3
2026-07-21 03:20:42.016,-0.63,-1.19,0.27,44.92,99.79,204.1
2026-07-21 03:20:42.016,-0.63,-1.19,0.27,44.92,99.79,204.1
2026-07-21 03:20:42.016,-0.6,-1.22,0.31,43.4,121.4,187.38
2026-07-21 03:20:42.019,-0.56,-1.18,0.34,49.07,135.74,157.35
2026-07-21 03:20:42.020,-0.56,-1.18,0.34,49.07,135.74,157.35
2026-07-21 03:20:42.078,-0.49,-1.1,0.32,67.87,126.71,115.23
2026-07-21 03:20:42.078,-0.49,-1.1,0.32,67.87,126.71,115.23
2026-07-21 03:20:42.078,-0.4,-1.02,0.27,87.1,100.1,71.96
2026-07-21 03:20:42.197,-0.4,-1.02,0.27,87.1,100.1,71.96
2026-07-21 03:20:42.197,-0.33,-0.94,0.22,92.22,73.0,40.59
2026-07-21 03:20:42.198,-0.33,-0.94,0.22,92.22,73.0,40.59
2026-07-21 03:20:42.198,-0.29,-0.87,0.18,78.0,52.73,20.02
2026-07-21 03:20:42.198,-0.28,-0.85,0.17,44.92,31.49,9.46
2026-07-21 03:20:42.198,-0.28,-0.85,0.17,44.92,31.49,9.46
2026-07-21 03:20:42.256,-0.3,-0.94,0.18,3.42,6.59,3.36
2026-07-21 03:20:42.257,-0.3,-0.94,0.18,3.42,6.59,3.36
2026-07-21 03:20:42.316,-0.36,-1.11,0.21,-31.37,-7.81,-13.06
2026-07-21 03:20:42.317,-0.36,-1.11,0.21,-31.37,-7.81,-13.06
2026-07-21 03:20:42.317,-0.39,-1.26,0.25,-45.35,-6.65,-45.84
2026-07-21 03:20:42.380,-0.39,-1.26,0.25,-45.35,-6.65,-45.84
2026-07-21 03:20:42.381,-0.41,-1.29,0.25,-31.07,1.1,-86.36
2026-07-21 03:20:42.506,-0.46,-1.24,0.2,-1.28,8.12,-128.54
2026-07-21 03:20:42.506,-0.46,-1.24,0.2,-1.28,8.12,-128.54
2026-07-21 03:20:42.508,-0.52,-1.16,0.13,24.72,8.06,-166.81
2026-07-21 03:20:42.508,-0.52,-1.16,0.13,24.72,8.06,-166.81
2026-07-21 03:20:42.508,-0.59,-1.09,0.02,42.72,12.33,-196.35
2026-07-21 03:20:42.509,-0.59,-1.09,0.02,42.72,12.33,-196.35
2026-07-21 03:20:42.556,-0.6,-0.99,-0.09,61.58,12.57,-182.25
2026-07-21 03:20:42.568,-0.6,-0.99,-0.09,61.58,12.57,-182.25
2026-07-21 03:20:42.568,-0.52,-0.92,-0.09,73.18,-18.98,-123.17
2026-07-21 03:20:42.622,-0.48,-0.99,-0.01,54.75,-67.69,-86.73
2026-07-21 03:20:42.622,-0.48,-0.99,-0.01,54.75,-67.69,-86.73
2026-07-21 03:20:42.736,-0.47,-1.13,0.07,10.44,-113.71,-85.75
2026-07-21 03:20:42.737,-0.47,-1.13,0.07,10.44,-113.71,-85.75
2026-07-21 03:20:42.737,-0.38,-1.27,0.11,-37.41,-154.48,-86.91
2026-07-21 03:20:42.738,-0.38,-1.27,0.11,-37.41,-154.48,-86.91
2026-07-21 03:20:42.738,-0.27,-1.34,0.13,-69.09,-171.57,-94.24
2026-07-21 03:20:42.738,-0.27,-1.34,0.13,-68.48,-143.92,-121.64
2026-07-21 03:20:42.797,-0.27,-1.27,0.12,-68.48,-143.92,-121.64
2026-07-21 03:20:42.801,-0.34,-1.05,0.07,-40.04,-90.52,-139.77
2026-07-21 03:20:42.918,-0.34,-1.05,0.07,-40.04,-90.52,-139.77
2026-07-21 03:20:42.919,-0.39,-0.79,-0.01,-18.62,-48.71,-115.84
2026-07-21 03:20:42.919,-0.39,-0.79,-0.01,-18.62,-48.71,-115.84
2026-07-21 03:20:42.919,-0.39,-0.62,-0.07,-24.54,-23.07,-62.01
2026-07-21 03:20:42.919,-0.39,-0.62,-0.07,-30.58,3.97,-21.3
2026-07-21 03:20:42.976,-0.34,-0.55,-0.07,-30.58,3.97,-21.3
2026-07-21 03:20:42.976,-0.31,-0.52,-0.03,-18.98,36.99,-6.29
2026-07-21 03:20:42.982,-0.31,-0.52,-0.03,-18.98,36.99,-6.29
2026-07-21 03:20:43.105,-0.3,-0.55,0.0,-2.32,65.92,8.42
2026-07-21 03:20:43.106,-0.3,-0.55,0.0,-2.32,65.92,8.42
2026-07-21 03:20:43.106,-0.32,-0.64,0.03,12.39,86.67,41.02
2026-07-21 03:20:43.106,-0.32,-0.64,0.03,12.39,86.67,41.02
2026-07-21 03:20:43.106,-0.34,-0.78,0.07,18.86,102.11,87.77
2026-07-21 03:20:43.215,-0.36,-0.95,0.13,11.84,109.31,129.03
2026-07-21 03:20:43.216,-0.36,-0.95,0.13,11.84,109.31,129.03
2026-07-21 03:20:43.216,-0.41,-1.11,0.16,7.69,117.37,150.7
2026-07-21 03:20:43.217,-0.41,-1.11,0.16,7.69,117.37,150.7
2026-07-21 03:20:43.217,-0.51,-1.23,0.22,25.94,145.39,159.42
2026-07-21 03:20:43.217,-0.51,-1.23,0.22,25.94,145.39,159.42
2026-07-21 03:20:43.336,-0.62,-1.31,0.38,47.91,177.06,169.37
2026-07-21 03:20:43.337,-0.62,-1.31,0.38,45.23,174.68,175.23
2026-07-21 03:20:43.337,-0.66,-1.37,0.56,45.23,174.68,175.23
2026-07-21 03:20:43.338,-0.63,-1.36,0.64,33.69,143.01,155.76
2026-07-21 03:20:43.339,-0.63,-1.36,0.64,33.69,143.01,155.76
2026-07-21 03:20:43.456,-0.49,-1.22,0.6,43.15,119.93,111.33
2026-07-21 03:20:43.457,-0.49,-1.22,0.6,43.15,119.93,111.33
2026-07-21 03:20:43.459,-0.27,-1.08,0.48,76.54,105.35,61.1
2026-07-21 03:20:43.459,-0.27,-1.08,0.48,76.54,105.35,61.1
2026-07-21 03:20:43.459,-0.04,-0.99,0.37,118.23,65.43,2.44
2026-07-21 03:20:43.587,-0.01,-0.97,0.3,138.85,35.83,-62.13
2026-07-21 03:20:43.587,-0.01,-0.97,0.3,138.85,35.83,-62.13
2026-07-21 03:20:43.588,-0.21,-0.94,0.29,141.66,59.81,-102.11
2026-07-21 03:20:43.588,-0.21,-0.94,0.29,141.66,59.81,-102.11
2026-07-21 03:20:43.588,-0.4,-0.84,0.32,136.23,103.03,-102.42
2026-07-21 03:20:43.636,-0.45,-0.73,0.33,107.73,127.75,-72.39
2026-07-21 03:20:43.636,-0.45,-0.73,0.33,107.73,127.75,-72.39
2026-07-21 03:20:43.636,-0.41,-0.69,0.27,65.92,122.38,-27.89
2026-07-21 03:20:43.755,-0.41,-0.69,0.27,65.92,122.38,-27.89
2026-07-21 03:20:43.755,-0.38,-0.77,0.16,29.66,93.51,5.31
2026-07-21 03:20:43.756,-0.38,-0.77,0.16,29.66,93.51,5.31
2026-07-21 03:20:43.756,-0.36,-0.9,0.14,14.34,49.99,18.98
2026-07-21 03:20:43.757,-0.34,-0.98,0.27,26.18,26.73,26.67
2026-07-21 03:20:43.816,-0.34,-0.98,0.27,26.18,26.73,26.67
2026-07-21 03:20:43.816,-0.33,-0.93,0.41,52.55,44.43,28.63
2026-07-21 03:20:43.817,-0.33,-0.93,0.41,52.55,44.43,28.63
2026-07-21 03:20:43.936,-0.29,-0.84,0.43,75.5,54.69,14.1
2026-07-21 03:20:43.936,-0.29,-0.84,0.43,75.5,54.69,14.1
2026-07-21 03:20:43.937,-0.25,-0.81,0.36,77.7,38.33,-11.41
2026-07-21 03:20:43.937,-0.25,-0.81,0.36,77.7,38.33,-11.41
2026-07-21 03:20:43.937,-0.24,-0.86,0.32,58.53,30.4,-38.39
2026-07-21 03:20:43.999,-0.26,-0.91,0.35,42.85,51.03,-64.76
2026-07-21 03:20:43.999,-0.26,-0.91,0.35,42.85,51.03,-64.76
2026-07-21 03:20:44.120,-0.29,-0.93,0.39,46.08,86.49,-83.98
2026-07-21 03:20:44.120,-0.29,-0.93,0.39,46.08,86.49,-83.98
2026-07-21 03:20:44.121,-0.32,-0.95,0.39,56.52,104.43,-91.06
2026-07-21 03:20:44.121,-0.32,-0.95,0.39,56.52,104.43,-91.06
2026-07-21 03:20:44.121,-0.32,-0.99,0.34,59.75,92.96,-86.24
2026-07-21 03:20:44.121,-0.32,-1.04,0.3,51.15,70.31,-77.58
2026-07-21 03:20:44.176,-0.32,-1.04,0.3,51.15,70.31,-77.58
2026-07-21 03:20:44.176,-0.35,-1.08,0.32,31.31,52.55,-75.2
2026-07-21 03:20:44.178,-0.35,-1.08,0.32,31.31,52.55,-75.2
2026-07-21 03:20:44.295,-0.36,-1.07,0.36,14.1,41.81,-78.86
2026-07-21 03:20:44.476,-0.36,-1.07,0.36,14.1,41.81,-78.86
2026-07-21 03:20:44.476,-0.33,-1.01,0.38,9.52,36.74,-84.35
2026-07-21 03:20:44.476,-0.33,-1.01,0.38,9.52,36.74,-84.35
2026-07-21 03:20:44.476,-0.3,-0.98,0.35,8.61,34.79,-88.2
2026-07-21 03:20:44.478,-0.27,-0.96,0.31,8.54,35.95,-82.34
2026-07-21 03:20:44.478,-0.27,-0.96,0.31,8.54,35.95,-82.34
2026-07-21 03:20:44.478,-0.26,-0.9,0.3,13.98,44.43,-77.39
2026-07-21 03:20:44.479,-0.26,-0.9,0.3,13.98,44.43,-77.39
2026-07-21 03:20:44.480,-0.27,-0.82,0.37,23.13,64.51,-86.73
2026-07-21 03:20:44.480,-0.27,-0.82,0.37,23.13,64.51,-86.73
2026-07-21 03:20:44.481,-0.26,-0.78,0.53,39.06,77.39,-93.99
2026-07-21 03:20:44.481,-0.26,-0.78,0.53,39.06,77.39,-93.99
2026-07-21 03:20:44.536,-0.19,-0.84,0.6,64.21,46.26,-89.72
2026-07-21 03:20:44.537,-0.1,-0.93,0.46,83.01,4.64,-81.85
2026-07-21 03:20:44.595,-0.1,-0.93,0.46,83.01,4.64,-81.85
2026-07-21 03:20:44.596,-0.05,-0.98,0.25,68.36,9.64,-80.38
2026-07-21 03:20:44.596,-0.05,-0.98,0.25,68.36,9.64,-80.38
2026-07-21 03:20:44.656,0.0,-1.01,0.15,15.99,47.55,-84.17
2026-07-21 03:20:44.656,0.0,-1.01,0.15,15.99,47.55,-84.17
2026-07-21 03:20:44.656,0.12,-1.05,0.17,-47.85,93.99,-81.05
2026-07-21 03:20:44.717,0.19,-0.98,0.33,-85.45,148.25,-65.55
2026-07-21 03:20:44.777,0.19,-0.98,0.33,-85.45,148.25,-65.55
2026-07-21 03:20:44.777,0.21,-0.78,0.5,-70.01,185.61,-35.28
2026-07-21 03:20:44.778,0.21,-0.78,0.5,-70.01,185.61,-35.28
2026-07-21 03:20:44.778,0.21,-0.58,0.52,-19.84,156.13,-1.77
2026-07-21 03:20:44.897,0.21,-0.58,0.52,-19.84,156.13,-1.77
2026-07-21 03:20:44.897,0.23,-0.5,0.42,9.77,67.93,22.16
2026-07-21 03:20:44.897,0.23,-0.5,0.42,9.77,67.93,22.16
2026-07-21 03:20:44.897,0.31,-0.55,0.42,-2.26,-6.9,36.38
2026-07-21 03:20:44.897,0.43,-0.7,0.57,-20.02,-34.18,32.59
2026-07-21 03:20:44.960,0.43,-0.7,0.57,-20.02,-34.18,32.59
2026-07-21 03:20:44.960,0.58,-0.98,0.82,-18.92,-52.43,3.66
2026-07-21 03:20:44.960,0.58,-0.98,0.82,-18.92,-52.43,3.66
2026-07-21 03:20:45.018,0.72,-1.52,1.19,-0.85,-85.39,-47.18
2026-07-21 03:20:45.018,0.72,-1.52,1.19,-0.85,-85.39,-47.18
2026-07-21 03:20:45.018,0.8,-2.24,1.53,16.78,-137.39,-100.1
2026-07-21 03:20:45.076,0.63,-2.5,1.55,27.34,-197.08,-153.02
2026-07-21 03:20:45.076,0.63,-2.5,1.55,27.34,-197.08,-153.02
2026-07-21 03:20:45.138,0.16,-1.89,1.14,52.73,-219.3,-213.38
2026-07-21 03:20:45.138,0.16,-1.89,1.14,52.73,-219.3,-213.38
2026-07-21 03:20:45.138,-0.31,-0.87,0.54,73.73,-218.87,-243.35
2026-07-21 03:20:45.196,-0.31,-0.87,0.54,73.73,-218.87,-243.35
2026-07-21 03:20:45.196,-0.53,-0.13,0.04,58.84,-220.21,-208.92
2026-07-21 03:20:45.324,-0.5,0.12,-0.21,33.94,-187.13,-127.75
2026-07-21 03:20:45.325,-0.5,0.12,-0.21,33.94,-187.13,-127.75
2026-07-21 03:20:45.325,-0.4,0.09,-0.31,34.61,-106.87,-42.42
2026-07-21 03:20:45.325,-0.4,0.09,-0.31,34.61,-106.87,-42.42
2026-07-21 03:20:45.325,-0.33,0.02,-0.31,42.54,-9.09,11.72
2026-07-21 03:20:45.325,-0.33,0.02,-0.31,42.54,-9.09,11.72
2026-07-21 03:20:45.383,-0.3,-0.12,-0.16,10.5,75.81,35.52
2026-07-21 03:20:45.384,-0.3,-0.12,-0.16,10.5,75.81,35.52
2026-07-21 03:20:45.436,-0.1,-0.53,0.12,-52.73,131.29,60.0
2026-07-21 03:20:45.436,0.39,-1.18,0.49,-99.3,164.92,86.55
2026-07-21 03:20:45.436,0.39,-1.18,0.49,-99.3,164.92,86.55
2026-07-21 03:20:45.494,1.12,-1.84,0.93,-118.1,189.03,117.43
2026-07-21 03:20:45.495,1.12,-1.84,0.93,-118.1,189.03,117.43
2026-07-21 03:20:45.495,1.74,-2.1,1.16,-117.55,182.37,141.72
2026-07-21 03:20:45.556,1.74,-1.65,0.94,-83.25,139.53,105.59
2026-07-21 03:20:45.556,1.74,-1.65,0.94,-83.25,139.53,105.59
2026-07-21 03:20:45.616,1.26,-0.85,0.51,-32.53,84.11,28.02
2026-07-21 03:20:45.617,1.26,-0.85,0.51,-32.53,84.11,28.02
2026-07-21 03:20:45.617,0.79,-0.27,0.18,-4.82,29.17,-25.15
2026-07-21 03:20:45.676,0.79,-0.27,0.18,-4.82,29.17,-25.15
2026-07-21 03:20:45.676,0.51,-0.07,0.01,4.27,-22.71,-42.6
2026-07-21 03:20:45.736,0.51,-0.07,0.01,11.96,-65.55,-50.42
2026-07-21 03:20:45.736,0.44,-0.16,-0.02,11.96,-65.55,-50.42
2026-07-21 03:20:45.736,0.59,-0.36,0.1,21.42,-86.61,-68.91
2026-07-21 03:20:45.803,0.59,-0.36,0.1,21.42,-86.61,-68.91
2026-07-21 03:20:45.803,1.01,-0.72,0.35,23.8,-107.91,-93.08
2026-07-21 03:20:45.803,1.01,-0.72,0.35,23.8,-107.91,-93.08
2026-07-21 03:20:45.855,1.61,-1.31,0.67,19.53,-151.79,-116.33
2026-07-21 03:20:45.856,1.61,-1.31,0.67,19.53,-151.79,-116.33
2026-07-21 03:20:45.976,1.83,-1.75,0.87,21.0,-197.14,-142.33
2026-07-21 03:20:45.976,1.21,-1.48,0.75,39.06,-203.06,-182.56
2026-07-21 03:20:45.981,1.21,-1.48,0.75,39.06,-203.06,-182.56
2026-07-21 03:20:45.981,0.23,-0.71,0.29,75.5,-161.99,-218.81
2026-07-21 03:20:45.981,0.23,-0.71,0.29,75.5,-161.99,-218.81
2026-07-21 03:20:46.037,-0.36,-0.07,-0.22,91.92,-94.79,-191.04
2026-07-21 03:20:46.037,-0.36,-0.07,-0.22,91.92,-94.79,-191.04
2026-07-21 03:20:46.038,-0.52,0.09,-0.36,47.49,11.54,-103.88
2026-07-21 03:20:46.097,-0.57,-0.03,-0.14,-32.71,127.01,-20.87
2026-07-21 03:20:46.097,-0.57,-0.03,-0.14,-32.71,127.01,-20.87
2026-07-21 03:20:46.097,-0.52,-0.11,0.06,-88.68,174.19,38.45
2026-07-21 03:20:46.219,-0.52,-0.11,0.06,-88.68,174.19,38.45
2026-07-21 03:20:46.219,-0.37,-0.15,0.02,-89.72,158.75,66.71
2026-07-21 03:20:46.220,-0.37,-0.15,0.02,-89.72,158.75,66.71
2026-07-21 03:20:46.220,0.19,-0.54,0.26,-87.04,156.01,67.57
2026-07-21 03:20:46.220,1.53,-1.43,1.23,-161.74,198.24,102.36
2026-07-21 03:20:46.276,1.53,-1.43,1.23,-161.74,198.24,102.36
2026-07-21 03:20:46.279,2.62,-1.95,1.97,-222.66,234.62,143.8
2026-07-21 03:20:46.341,2.62,-1.95,1.97,-222.66,234.62,143.8
2026-07-21 03:20:46.342,2.47,-1.5,1.6,-141.66,190.8,113.77
2026-07-21 03:20:46.342,2.47,-1.5,1.6,-141.66,190.8,113.77
2026-07-21 03:20:46.400,1.67,-0.77,0.71,-14.83,77.21,57.43
2026-07-21 03:20:46.401,0.93,-0.31,0.08,38.39,-22.64,29.79
2026-07-21 03:20:46.401,0.93,-0.31,0.08,38.39,-22.64,29.79
2026-07-21 03:20:46.516,0.51,-0.16,-0.14,29.54,-76.48,21.06
2026-07-21 03:20:46.516,0.51,-0.16,-0.14,29.54,-76.48,21.06
2026-07-21 03:20:46.516,0.41,-0.21,-0.06,0.43,-105.96,16.3
2026-07-21 03:20:46.520,0.41,-0.21,-0.06,0.43,-105.96,16.3
2026-07-21 03:20:46.520,0.58,-0.4,0.16,-24.35,-128.66,3.72
2026-07-21 03:20:46.576,0.58,-0.4,0.16,-28.56,-149.41,-33.26
2026-07-21 03:20:46.576,0.82,-0.62,0.38,-28.56,-149.41,-33.26
2026-07-21 03:20:46.759,0.99,-0.79,0.49,-10.07,-172.24,-87.1
2026-07-21 03:20:46.760,0.99,-0.79,0.49,-10.07,-172.24,-87.1
2026-07-21 03:20:46.760,0.96,-0.81,0.52,-0.31,-181.64,-125.55
2026-07-21 03:20:46.760,0.96,-0.81,0.52,-0.31,-181.64,-125.55
2026-07-21 03:20:46.761,0.68,-0.6,0.45,-16.91,-140.5,-126.95
2026-07-21 03:20:46.761,0.68,-0.6,0.45,-16.91,-140.5,-126.95
2026-07-21 03:20:46.762,0.43,-0.33,0.31,-31.92,-45.78,-70.37
2026-07-21 03:20:46.763,0.32,-0.15,0.17,-20.94,49.87,24.05
2026-07-21 03:20:46.763,0.32,-0.15,0.17,-20.94,49.87,24.05
2026-07-21 03:20:46.823,0.26,-0.1,-0.03,13.79,100.59,88.68
2026-07-21 03:20:46.824,0.26,-0.1,-0.03,13.79,100.59,88.68
2026-07-21 03:20:46.938,0.18,-0.16,-0.17,36.87,122.62,87.28
2026-07-21 03:20:46.938,0.18,-0.16,-0.17,36.87,122.62,87.28
2026-07-21 03:20:46.938,0.21,-0.36,-0.05,10.74,145.75,40.53
2026-07-21 03:20:46.938,0.44,-0.69,0.24,-45.78,170.35,4.46
2026-07-21 03:20:46.938,0.44,-0.69,0.24,-45.78,170.35,4.46
2026-07-21 03:20:46.996,0.84,-1.06,0.5,-103.88,165.65,22.64
2026-07-21 03:20:46.996,0.84,-1.06,0.5,-103.88,165.65,22.64
2026-07-21 03:20:46.996,1.17,-1.28,0.71,-138.67,138.67,62.01
2026-07-21 03:20:47.056,1.17,-1.28,0.71,-138.67,138.67,62.01
2026-07-21 03:20:47.056,1.22,-1.2,0.79,-106.75,123.84,56.64
2026-07-21 03:20:47.236,1.17,-0.97,0.74,-35.52,96.56,22.83
2026-07-21 03:20:47.237,1.17,-0.97,0.74,-35.52,96.56,22.83
2026-07-21 03:20:47.237,1.24,-0.89,0.72,7.45,43.15,11.05
2026-07-21 03:20:47.237,1.24,-0.89,0.72,7.45,43.15,11.05
2026-07-21 03:20:47.237,1.31,-0.92,0.69,21.24,-11.9,15.87
2026-07-21 03:20:47.237,1.31,-0.92,0.69,21.24,-11.9,15.87
2026-07-21 03:20:47.238,1.11,-0.81,0.5,34.24,-61.95,7.26
2026-07-21 03:20:47.238,1.11,-0.81,0.5,34.24,-61.95,7.26
2026-07-21 03:20:47.240,0.75,-0.59,0.25,53.41,-104.74,-18.55
2026-07-21 03:20:47.299,0.52,-0.49,0.12,70.37,-129.27,-43.82
2026-07-21 03:20:47.299,0.52,-0.49,0.12,70.37,-129.27,-43.82
2026-07-21 03:20:47.359,0.49,-0.5,0.13,73.18,-142.76,-61.89
2026-07-21 03:20:47.359,0.49,-0.5,0.13,73.18,-142.76,-61.89
2026-07-21 03:20:47.359,0.54,-0.54,0.17,64.76,-159.48,-77.88
2026-07-21 03:20:47.427,0.54,-0.54,0.17,64.76,-159.48,-77.88
2026-07-21 03:20:47.427,0.62,-0.57,0.14,55.54,-175.17,-88.81
2026-07-21 03:20:47.427,0.62,-0.57,0.14,55.54,-175.17,-88.81
2026-07-21 03:20:47.536,0.75,-0.61,0.11,26.73,-181.09,-78.86
2026-07-21 03:20:47.537,0.85,-0.65,0.13,-34.42,-164.37,-46.14
2026-07-21 03:20:47.537,0.85,-0.65,0.13,-34.42,-164.37,-46.14
2026-07-21 03:20:47.537,0.79,-0.63,0.13,-82.95,-107.85,-19.71
2026-07-21 03:20:47.537,0.79,-0.63,0.13,-82.95,-107.85,-19.71
2026-07-21 03:20:47.597,0.59,-0.5,0.09,-79.35,-14.53,-16.11
2026-07-21 03:20:47.597,0.38,-0.32,0.06,-45.78,83.44,-15.99
2026-07-21 03:20:47.656,0.38,-0.32,0.06,-45.78,83.44,-15.99
2026-07-21 03:20:47.656,0.27,-0.22,0.04,-23.56,142.15,6.77
2026-07-21 03:20:47.657,0.27,-0.22,0.04,-23.56,142.15,6.77
2026-07-21 03:20:47.716,0.27,-0.27,0.05,-28.75,143.98,53.83
2026-07-21 03:20:47.716,0.27,-0.27,0.05,-28.75,143.98,53.83
2026-07-21 03:20:47.778,0.34,-0.37,0.05,-47.06,117.61,96.92
2026-07-21 03:20:47.779,0.37,-0.41,0.04,-55.48,102.6,109.68
2026-07-21 03:20:47.779,0.37,-0.41,0.04,-55.48,102.6,109.68
2026-07-21 03:20:47.837,0.32,-0.42,0.05,-53.59,104.74,94.85
2026-07-21 03:20:47.837,0.32,-0.42,0.05,-53.59,104.74,94.85
2026-07-21 03:20:47.837,0.38,-0.62,0.18,-60.06,115.17,84.59
2026-07-21 03:20:47.958,0.38,-0.62,0.18,-60.06,115.17,84.59
2026-07-21 03:20:47.958,0.75,-1.17,0.53,-79.28,146.73,99.0
2026-07-21 03:20:47.958,0.75,-1.17,0.53,-85.75,208.5,116.58
2026-07-21 03:20:47.958,1.23,-1.78,0.99,-85.75,208.5,116.58
2026-07-21 03:20:47.958,1.39,-1.94,1.14,-64.39,229.25,111.27
2026-07-21 03:20:48.020,1.39,-1.94,1.14,-64.39,229.25,111.27
2026-07-21 03:20:48.020,1.06,-1.45,0.81,-33.2,141.48,69.58
2026-07-21 03:20:48.021,1.06,-1.45,0.81,-33.2,141.48,69.58
2026-07-21 03:20:48.079,0.56,-0.76,0.28,-4.7,17.09,10.44
2026-07-21 03:20:48.079,0.56,-0.76,0.28,-4.7,17.09,10.44
2026-07-21 03:20:48.135,0.24,-0.35,-0.09,18.25,-43.82,-24.66
2026-07-21 03:20:48.135,0.14,-0.25,-0.22,24.78,-31.13,-23.99
2026-07-21 03:20:48.137,0.14,-0.25,-0.22,24.78,-31.13,-23.99
2026-07-21 03:20:48.195,0.12,-0.33,-0.16,7.75,13.18,1.28
2026-07-21 03:20:48.377,0.12,-0.33,-0.16,7.75,13.18,1.28
2026-07-21 03:20:48.377,0.14,-0.52,-0.01,-24.72,50.78,38.94
2026-07-21 03:20:48.391,0.14,-0.52,-0.01,-24.72,50.78,38.94
2026-07-21 03:20:48.391,0.24,-0.86,0.16,-60.12,73.67,77.58
2026-07-21 03:20:48.391,0.24,-0.86,0.16,-60.12,73.67,77.58
2026-07-21 03:20:48.392,0.41,-1.32,0.33,-84.11,95.03,99.12
2026-07-21 03:20:48.392,0.53,-1.71,0.38,-69.46,114.99,76.6
2026-07-21 03:20:48.392,0.53,-1.71,0.38,-69.46,114.99,76.6
2026-07-21 03:20:48.392,0.48,-1.78,0.19,-16.6,116.39,13.31
2026-07-21 03:20:48.393,0.48,-1.78,0.19,-16.6,116.39,13.31
2026-07-21 03:20:48.435,0.25,-1.42,-0.03,12.45,93.26,-46.08
2026-07-21 03:20:48.436,0.25,-1.42,-0.03,12.45,93.26,-46.08
2026-07-21 03:20:48.499,-0.02,-1.04,-0.08,-15.26,58.84,-61.71
2026-07-21 03:20:48.500,-0.13,-1.01,0.04,-65.67,35.71,-29.85
2026-07-21 03:20:48.500,-0.13,-1.01,0.04,-65.67,35.71,-29.85
2026-07-21 03:20:48.557,-0.09,-1.12,0.27,-97.6,55.05,13.18
2026-07-21 03:20:48.557,-0.09,-1.12,0.27,-97.6,55.05,13.18
2026-07-21 03:20:48.616,-0.03,-1.07,0.45,-81.24,118.47,29.36
2026-07-21 03:20:48.617,-0.03,-1.07,0.45,-81.24,118.47,29.36
2026-07-21 03:20:48.617,-0.0,-0.9,0.49,-33.94,170.04,20.51
2026-07-21 03:20:48.677,-0.0,-0.9,0.49,-33.94,170.04,20.51
2026-07-21 03:20:48.677,0.01,-0.75,0.47,-9.58,155.15,11.78
2026-07-21 03:20:48.677,0.0,-0.67,0.44,-18.31,88.13,12.57
2026-07-21 03:20:48.739,0.0,-0.67,0.44,-18.31,88.13,12.57
2026-07-21 03:20:48.739,-0.04,-0.65,0.43,-26.37,31.92,13.18
2026-07-21 03:20:48.797,-0.04,-0.65,0.43,-26.37,31.92,13.18
2026-07-21 03:20:48.797,-0.13,-0.67,0.45,-11.78,24.66,5.37
2026-07-21 03:20:48.798,-0.13,-0.67,0.45,-11.78,24.66,5.37
2026-07-21 03:20:48.861,-0.27,-0.74,0.47,18.8,56.21,-7.63
2026-07-21 03:20:48.861,-0.27,-0.74,0.47,44.07,99.98,-11.84
2026-07-21 03:20:48.861,-0.38,-0.84,0.49,44.07,99.98,-11.84
2026-07-21 03:20:48.920,-0.41,-0.95,0.51,52.06,134.28,7.02
2026-07-21 03:20:48.920,-0.41,-0.95,0.51,52.06,134.28,7.02
2026-07-21 03:20:49.036,-0.36,-1.07,0.52,49.38,149.35,44.13
2026-07-21 03:20:49.037,-0.36,-1.07,0.52,49.38,149.35,44.13
2026-07-21 03:20:49.037,-0.2,-1.13,0.47,47.06,148.32,84.47
2026-07-21 03:20:49.037,-0.2,-1.13,0.47,47.06,148.32,84.47
2026-07-21 03:20:49.037,0.04,-1.08,0.39,47.36,132.14,116.58
2026-07-21 03:20:49.037,0.13,-1.13,0.31,43.33,85.75,122.31
2026-07-21 03:20:49.096,0.13,-1.13,0.31,43.33,85.75,122.31
2026-07-21 03:20:49.100,0.02,-1.3,0.24,27.95,5.19,99.79
2026-07-21 03:20:49.159,0.02,-1.3,0.24,27.95,5.19,99.79
2026-07-21 03:20:49.159,-0.1,-1.39,0.19,10.74,-67.69,71.47
2026-07-21 03:20:49.160,-0.1,-1.39,0.19,10.74,-67.69,71.47
2026-07-21 03:20:49.219,-0.13,-1.31,0.1,10.86,-92.53,46.87
2026-07-21 03:20:49.220,-0.13,-1.31,0.1,23.01,-78.61,17.52
2026-07-21 03:20:49.224,-0.15,-1.15,0.0,23.01,-78.61,17.52
2026-07-21 03:20:49.276,-0.23,-0.95,-0.0,21.97,-44.92,-14.89
2026-07-21 03:20:49.282,-0.23,-0.95,-0.0,21.97,-44.92,-14.89
2026-07-21 03:20:49.576,-0.31,-0.79,0.08,1.71,0.49,-35.83
2026-07-21 03:20:49.576,-0.31,-0.79,0.08,1.71,0.49,-35.83
2026-07-21 03:20:49.576,-0.36,-0.7,0.21,-22.52,46.14,-36.74
2026-07-21 03:20:49.576,-0.36,-0.7,0.21,-22.52,46.14,-36.74
2026-07-21 03:20:49.577,-0.37,-0.71,0.34,-36.87,80.26,-18.55
2026-07-21 03:20:49.577,-0.34,-0.77,0.44,-38.39,90.21,15.38
2026-07-21 03:20:49.577,-0.34,-0.77,0.44,-38.39,90.21,15.38
2026-07-21 03:20:49.579,-0.29,-0.88,0.47,-34.48,66.65,60.79
2026-07-21 03:20:49.579,-0.29,-0.88,0.47,-34.48,66.65,60.79
2026-07-21 03:20:49.579,-0.26,-1.03,0.51,-31.74,17.76,106.75
2026-07-21 03:20:49.579,-0.26,-1.03,0.51,-31.74,17.76,106.75
2026-07-21 03:20:49.581,-0.26,-1.15,0.58,-17.7,-33.45,140.38
2026-07-21 03:20:49.581,-0.21,-1.19,0.68,14.04,-73.43,151.12
2026-07-21 03:20:49.581,-0.21,-1.19,0.68,14.04,-73.43,151.12
2026-07-21 03:20:49.700,-0.17,-1.12,0.79,30.15,-103.76,125.12
2026-07-21 03:20:49.700,-0.17,-1.12,0.79,30.15,-103.76,125.12
2026-07-21 03:20:49.700,-0.2,-0.97,0.86,8.24,-139.65,75.07
2026-07-21 03:20:49.701,-0.2,-0.97,0.86,8.24,-139.65,75.07
2026-07-21 03:20:49.701,-0.3,-0.81,0.93,-42.24,-191.96,32.35
2026-07-21 03:20:49.758,-0.51,-0.74,1.03,-106.99,-240.78,-0.79
2026-07-21 03:20:49.758,-0.51,-0.74,1.03,-106.99,-240.78,-0.79
2026-07-21 03:20:49.824,-0.7,-0.71,1.11,-152.77,-257.81,-38.21
2026-07-21 03:20:49.824,-0.7,-0.71,1.11,-152.77,-257.81,-38.21
2026-07-21 03:20:49.824,-0.73,-0.61,1.07,-144.65,-232.54,-80.75
2026-07-21 03:20:49.884,-0.73,-0.61,1.07,-144.65,-232.54,-80.75
2026-07-21 03:20:49.884,-0.67,-0.46,0.91,-88.2,-178.96,-115.66
2026-07-21 03:20:49.940,-0.59,-0.35,0.74,-25.21,-124.94,-127.38
2026-07-21 03:20:49.940,-0.59,-0.35,0.74,-25.21,-124.94,-127.38
2026-07-21 03:20:49.940,-0.55,-0.31,0.63,7.14,-89.72,-107.91
2026-07-21 03:20:49.999,-0.55,-0.31,0.63,7.14,-89.72,-107.91
2026-07-21 03:20:49.999,-0.52,-0.33,0.57,2.81,-75.93,-63.05
2026-07-21 03:20:50.000,-0.52,-0.33,0.57,2.81,-75.93,-63.05
2026-07-21 03:20:50.056,-0.47,-0.39,0.51,-10.07,-67.93,-12.45
2026-07-21 03:20:50.056,-0.42,-0.46,0.43,-2.5,-47.55,19.65
2026-07-21 03:20:50.117,-0.42,-0.46,0.43,-2.5,-47.55,19.65
2026-07-21 03:20:50.117,-0.38,-0.53,0.37,18.86,-15.38,32.35
2026-07-21 03:20:50.117,-0.38,-0.53,0.37,18.86,-15.38,32.35
2026-07-21 03:20:50.176,-0.36,-0.7,0.37,30.21,16.11,48.65
2026-07-21 03:20:50.176,-0.36,-0.7,0.37,30.21,16.11,48.65
2026-07-21 03:20:50.238,-0.36,-0.94,0.51,25.76,42.11,69.21
2026-07-21 03:20:50.238,-0.36,-0.94,0.51,25.76,42.11,69.21
2026-07-21 03:20:50.238,-0.32,-1.11,0.73,23.19,74.58,69.58
2026-07-21 03:20:50.300,-0.14,-1.11,0.84,36.93,114.87,51.33
2026-07-21 03:20:50.301,-0.14,-1.11,0.84,36.93,114.87,51.33
2026-07-21 03:20:50.301,0.01,-1.04,0.74,47.85,121.03,40.89
2026-07-21 03:20:50.423,0.01,-1.04,0.74,47.85,121.03,40.89
2026-07-21 03:20:50.423,-0.06,-1.03,0.58,23.56,64.51,55.79
2026-07-21 03:20:50.423,-0.06,-1.03,0.58,23.56,64.51,55.79
2026-07-21 03:20:50.426,-0.21,-1.04,0.51,-27.4,-12.45,87.77
2026-07-21 03:20:50.437,-0.31,-1.02,0.46,-55.79,-53.22,107.73
2026-07-21 03:20:50.537,-0.31,-1.02,0.46,-55.79,-53.22,107.73
2026-07-21 03:20:50.543,-0.35,-0.98,0.45,-51.88,-51.64,104.8
2026-07-21 03:20:50.543,-0.35,-0.98,0.45,-51.88,-51.64,104.8
2026-07-21 03:20:50.543,-0.35,-0.92,0.5,-47.67,-42.42,92.9
2026-07-21 03:20:50.544,-0.35,-0.92,0.5,-47.67,-42.42,92.9
2026-07-21 03:20:50.596,-0.28,-0.88,0.52,-47.85,-50.23,88.62
2026-07-21 03:20:50.596,-0.28,-0.88,0.52,-49.44,-62.56,97.84
2026-07-21 03:20:50.596,-0.18,-0.87,0.47,-49.44,-62.56,97.84
2026-07-21 03:20:50.656,-0.17,-0.83,0.43,-59.08,-63.23,103.88
2026-07-21 03:20:50.717,-0.17,-0.83,0.43,-59.08,-63.23,103.88
2026-07-21 03:20:50.717,-0.29,-0.76,0.44,-72.88,-56.15,96.68
2026-07-21 03:20:50.717,-0.29,-0.76,0.44,-72.88,-56.15,96.68
2026-07-21 03:20:50.717,-0.52,-0.73,0.46,-86.36,-55.18,95.46
2026-07-21 03:20:50.781,-0.52,-0.73,0.46,-86.36,-55.18,95.46
2026-07-21 03:20:50.782,-0.69,-0.7,0.52,-106.26,-61.89,115.05
2026-07-21 03:20:50.836,-0.71,-0.64,0.62,-129.46,-63.23,135.5
2026-07-21 03:20:50.839,-0.71,-0.64,0.62,-129.46,-63.23,135.5
2026-07-21 03:20:50.848,-0.75,-0.52,0.63,-131.59,-55.24,120.97
2026-07-21 03:20:50.848,-0.75,-0.52,0.63,-131.59,-55.24,120.97
2026-07-21 03:20:50.896,-0.88,-0.38,0.55,-112.98,-42.6,74.22
2026-07-21 03:20:50.897,-0.88,-0.38,0.55,-112.98,-42.6,74.22
2026-07-21 03:20:51.016,-0.97,-0.3,0.44,-94.91,-33.63,35.71
2026-07-21 03:20:51.016,-0.95,-0.34,0.35,-85.02,-29.66,33.39
2026-07-21 03:20:51.017,-0.95,-0.34,0.35,-85.02,-29.66,33.39
2026-07-21 03:20:51.018,-0.85,-0.44,0.35,-84.05,-19.96,52.73
2026-07-21 03:20:51.019,-0.85,-0.44,0.35,-84.05,-19.96,52.73
2026-07-21 03:20:51.076,-0.78,-0.54,0.4,-84.9,-0.67,58.59
2026-07-21 03:20:51.076,-0.78,-0.54,0.4,-84.9,-0.67,58.59
2026-07-21 03:20:51.077,-0.75,-0.6,0.44,-76.97,18.92,43.27
2026-07-21 03:20:51.196,-0.75,-0.6,0.44,-64.39,25.51,24.84
2026-07-21 03:20:51.196,-0.72,-0.62,0.4,-64.39,25.51,24.84
2026-07-21 03:20:51.196,-0.67,-0.62,0.38,-62.19,22.4,10.93
2026-07-21 03:20:51.196,-0.67,-0.62,0.38,-62.19,22.4,10.93
2026-07-21 03:20:51.260,-0.61,-0.59,0.48,-69.95,27.04,-7.51
2026-07-21 03:20:51.260,-0.61,-0.59,0.48,-69.95,27.04,-7.51
2026-07-21 03:20:51.260,-0.54,-0.57,0.68,-78.67,35.58,-24.35
2026-07-21 03:20:51.260,-0.54,-0.57,0.68,-78.67,35.58,-24.35
2026-07-21 03:20:51.316,-0.41,-0.61,0.83,-101.75,14.04,-1.28
2026-07-21 03:20:51.316,-0.13,-0.74,0.84,-154.24,-51.45,72.81
2026-07-21 03:20:51.317,-0.13,-0.74,0.84,-154.24,-51.45,72.81
2026-07-21 03:20:51.376,0.22,-0.9,0.8,-218.69,-124.63,148.99
2026-07-21 03:20:51.379,0.22,-0.9,0.8,-218.69,-124.63,148.99
2026-07-21 03:20:51.504,0.36,-1.02,0.91,-288.21,-181.64,187.68
2026-07-21 03:20:51.505,0.36,-1.02,0.91,-288.21,-181.64,187.68
2026-07-21 03:20:51.505,0.18,-1.29,1.31,-362.79,-218.63,184.63
2026-07-21 03:20:51.505,-0.05,-2.03,2.19,-452.15,-225.28,166.87
2026-07-21 03:20:51.617,-0.05,-2.03,2.19,-452.15,-225.28,166.87
2026-07-21 03:20:51.618,-0.41,-2.9,3.39,-558.9,-172.18,96.92
2026-07-21 03:20:51.618,-0.41,-2.9,3.39,-558.9,-172.18,96.92
2026-07-21 03:20:51.618,-1.38,-3.51,4.0,-561.77,-105.96,-119.6
2026-07-21 03:20:51.618,-2.81,-3.86,4.0,-409.18,-146.85,-411.9
2026-07-21 03:20:51.618,-2.81,-3.86,4.0,-409.18,-146.85,-411.9
2026-07-21 03:20:51.856,-3.68,-3.81,4.0,-259.64,-266.54,-598.0
2026-07-21 03:20:51.856,-3.68,-3.81,4.0,-259.64,-266.54,-598.0
2026-07-21 03:20:51.856,-3.51,-3.36,3.9,-191.1,-358.22,-627.9
2026-07-21 03:20:51.858,-3.02,-2.59,3.54,-161.07,-406.86,-569.5
2026-07-21 03:20:51.858,-3.02,-2.59,3.54,-161.07,-406.86,-569.5
2026-07-21 03:20:51.858,-2.88,-1.33,2.61,-156.56,-458.5,-458.0
2026-07-21 03:20:51.859,-2.88,-1.33,2.61,-156.56,-458.5,-458.0
2026-07-21 03:20:51.859,-2.76,0.03,1.18,-139.65,-450.13,-321.53
2026-07-21 03:20:51.860,-2.76,0.03,1.18,-139.65,-450.13,-321.53
2026-07-21 03:20:51.860,-2.11,0.62,0.11,-94.12,-308.17,-172.79
2026-07-21 03:20:52.039,-1.21,0.45,-0.26,-53.53,-138.12,-25.27
2026-07-21 03:20:52.039,-1.21,0.45,-0.26,-53.53,-138.12,-25.27
2026-07-21 03:20:52.039,-0.61,0.07,-0.28,-18.49,-34.55,57.19
2026-07-21 03:20:52.039,-0.61,0.07,-0.28,-18.49,-34.55,57.19
2026-07-21 03:20:52.039,-0.33,-0.18,-0.21,18.49,23.93,58.35
2026-07-21 03:20:52.040,-0.33,-0.18,-0.21,18.49,23.93,58.35
2026-07-21 03:20:52.040,-0.18,-0.31,-0.11,50.66,75.5,24.29
2026-07-21 03:20:52.040,-0.04,-0.51,-0.04,72.33,109.44,14.22
2026-07-21 03:20:52.162,-0.04,-0.51,-0.04,72.33,109.44,14.22
2026-07-21 03:20:52.163,0.15,-0.77,0.04,79.65,117.61,42.24
2026-07-21 03:20:52.163,0.15,-0.77,0.04,79.65,117.61,42.24
2026-07-21 03:20:52.165,0.36,-1.0,0.19,85.63,137.08,63.48
2026-07-21 03:20:52.175,0.36,-1.0,0.19,85.63,137.08,63.48
2026-07-21 03:20:52.175,0.52,-1.09,0.44,99.3,184.51,54.2
2026-07-21 03:20:52.276,0.52,-1.09,0.44,110.17,228.58,44.49
2026-07-21 03:20:52.276,0.57,-1.13,0.67,110.17,228.58,44.49
2026-07-21 03:20:52.277,0.56,-1.24,0.77,104.49,226.01,76.78
2026-07-21 03:20:52.277,0.56,-1.24,0.77,104.49,226.01,76.78
2026-07-21 03:20:52.277,0.59,-1.31,0.85,85.51,209.17,118.41
2026-07-21 03:20:52.397,0.59,-1.31,0.85,85.51,209.17,118.41
2026-07-21 03:20:52.397,0.63,-1.28,0.98,74.46,244.69,104.8
2026-07-21 03:20:52.398,0.63,-1.28,0.98,60.49,296.57,70.37
2026-07-21 03:20:52.398,0.66,-1.24,1.12,60.49,296.57,70.37
2026-07-21 03:20:52.399,0.69,-1.2,1.23,39.79,332.46,46.81
2026-07-21 03:20:52.457,0.69,-1.2,1.23,39.79,332.46,46.81
2026-07-21 03:20:52.457,0.64,-1.13,1.32,33.63,386.6,-2.26
2026-07-21 03:20:52.458,0.64,-1.13,1.32,33.63,386.6,-2.26
2026-07-21 03:20:52.515,0.48,-1.09,1.32,26.25,439.27,-76.17
2026-07-21 03:20:52.516,0.48,-1.09,1.32,26.25,439.27,-76.17
2026-07-21 03:20:52.637,0.28,-1.08,1.24,-3.54,457.89,-150.94
2026-07-21 03:20:52.637,0.07,-1.02,1.15,-38.88,460.88,-212.89
2026-07-21 03:20:52.640,0.07,-1.02,1.15,-38.88,460.88,-212.89
2026-07-21 03:20:52.641,-0.05,-0.9,1.08,-52.31,444.82,-234.74
2026-07-21 03:20:52.644,-0.05,-0.9,1.08,-52.31,444.82,-234.74
2026-07-21 03:20:52.756,-0.07,-0.79,1.04,-60.12,373.47,-199.28
2026-07-21 03:20:52.757,-0.07,-0.79,1.04,-60.12,373.47,-199.28
2026-07-21 03:20:52.757,-0.02,-0.75,1.02,-89.11,252.5,-121.52
2026-07-21 03:20:52.757,0.05,-0.76,1.0,-120.0,145.39,-54.99
2026-07-21 03:20:52.758,0.05,-0.76,1.0,-120.0,145.39,-54.99
2026-07-21 03:20:52.760,0.08,-0.76,0.98,-119.69,107.48,-52.06
2026-07-21 03:20:52.876,0.08,-0.76,0.98,-119.69,107.48,-52.06
2026-07-21 03:20:52.877,0.07,-0.73,0.92,-90.15,127.93,-106.26
2026-07-21 03:20:52.877,0.07,-0.73,0.92,-90.15,127.93,-106.26
2026-07-21 03:20:52.877,0.04,-0.67,0.84,-66.1,144.71,-165.16
2026-07-21 03:20:52.878,0.02,-0.61,0.75,-62.38,117.8,-179.44
2026-07-21 03:20:52.936,0.02,-0.61,0.75,-62.38,117.8,-179.44
2026-07-21 03:20:52.936,0.06,-0.6,0.62,-52.19,64.82,-136.54
2026-07-21 03:20:52.936,0.06,-0.6,0.62,-52.19,64.82,-136.54
2026-07-21 03:20:53.126,0.14,-0.64,0.48,-20.08,18.37,-67.32
2026-07-21 03:20:53.126,0.14,-0.64,0.48,-20.08,18.37,-67.32
2026-07-21 03:20:53.126,0.23,-0.71,0.34,17.52,-15.62,-5.74
2026-07-21 03:20:53.126,0.34,-0.83,0.24,42.66,-43.64,44.19
2026-07-21 03:20:53.126,0.34,-0.83,0.24,42.66,-43.64,44.19
2026-07-21 03:20:53.126,0.5,-0.99,0.23,50.42,-61.34,80.93
2026-07-21 03:20:53.126,0.5,-0.99,0.23,50.42,-61.34,80.93
2026-07-21 03:20:53.176,0.63,-1.11,0.3,47.61,-66.59,91.31
2026-07-21 03:20:53.177,0.63,-1.11,0.3,47.61,-66.59,91.31
2026-07-21 03:20:53.177,0.65,-1.14,0.38,49.8,-72.45,72.88
2026-07-21 03:20:53.236,0.65,-1.14,0.38,49.8,-72.45,72.88
2026-07-21 03:20:53.237,0.52,-1.12,0.39,61.89,-97.11,40.83
2026-07-21 03:20:53.237,0.36,-1.1,0.36,70.92,-142.09,18.74
2026-07-21 03:20:53.297,0.36,-1.1,0.36,70.92,-142.09,18.74
2026-07-21 03:20:53.300,0.26,-1.13,0.3,63.42,-187.19,10.13
2026-07-21 03:20:53.356,0.26,-1.13,0.3,63.42,-187.19,10.13
2026-07-21 03:20:53.358,0.21,-1.14,0.24,42.48,-220.64,-1.89
2026-07-21 03:20:53.358,0.21,-1.14,0.24,42.48,-220.64,-1.89
2026-07-21 03:20:53.416,0.19,-1.13,0.18,24.78,-243.53,-20.02
2026-07-21 03:20:53.416,0.21,-1.09,0.1,18.74,-246.58,-36.25
2026-07-21 03:20:53.416,0.21,-1.09,0.1,18.74,-246.58,-36.25
2026-07-21 03:20:53.542,0.24,-1.01,0.04,21.24,-207.03,-51.21
2026-07-21 03:20:53.542,0.24,-1.01,0.04,21.24,-207.03,-51.21
2026-07-21 03:20:53.542,0.29,-0.94,0.04,24.29,-114.69,-63.29
2026-07-21 03:20:53.543,0.29,-0.94,0.04,24.29,-114.69,-63.29
2026-07-21 03:20:53.543,0.47,-0.98,0.09,26.92,0.24,-61.89
2026-07-21 03:20:53.605,0.47,-0.98,0.09,27.4,67.2,-47.18
2026-07-21 03:20:53.606,0.94,-1.32,0.11,27.4,67.2,-47.18
2026-07-21 03:20:53.896,1.71,-1.87,0.09,36.19,40.59,-54.57
2026-07-21 03:20:53.896,1.71,-1.87,0.09,36.19,40.59,-54.57
2026-07-21 03:20:53.897,2.41,-2.39,0.34,72.94,-16.91,-108.95
2026-07-21 03:20:53.897,2.41,-2.39,0.34,72.94,-16.91,-108.95
2026-07-21 03:20:53.897,2.47,-2.69,0.95,93.14,-113.83,-197.08
2026-07-21 03:20:53.898,1.73,-2.43,1.58,58.59,-282.84,-292.3
2026-07-21 03:20:53.898,1.73,-2.43,1.58,58.59,-282.84,-292.3
2026-07-21 03:20:53.901,0.62,-1.67,1.97,-14.53,-418.46,-358.34
2026-07-21 03:20:53.901,0.62,-1.67,1.97,-14.53,-418.46,-358.34
2026-07-21 03:20:53.901,-0.26,-0.85,1.88,-94.36,-462.95,-382.63
2026-07-21 03:20:53.901,-0.26,-0.85,1.88,-94.36,-462.95,-382.63
2026-07-21 03:20:53.901,-0.66,-0.37,1.36,-125.55,-419.49,-383.2
2026-07-21 03:20:53.902,-0.78,-0.27,0.68,-77.51,-303.83,-370.42
2026-07-21 03:20:53.903,-0.78,-0.27,0.68,-77.51,-303.83,-370.42
2026-07-21 03:20:54.019,-0.86,-0.25,0.11,32.96,-164.43,-331.91
2026-07-21 03:20:54.019,-0.86,-0.25,0.11,32.96,-164.43,-331.91
2026-07-21 03:20:54.019,-1.01,-0.13,-0.24,134.83,-66.59,-265.62
2026-07-21 03:20:54.019,-1.01,-0.13,-0.24,134.83,-66.59,-265.62
2026-07-21 03:20:54.020,-1.01,-0.13,-0.24,134.83,-66.59,-265.62
2026-07-21 03:20:54.076,-1.01,-0.13,-0.24,134.83,-66.59,-265.62
2026-07-21 03:20:54.076,-1.07,-0.06,-0.7,166.32,-120.91,-49.01
2026-07-21 03:20:54.137,-0.71,-0.21,-1.33,182.98,-98.57,28.2
2026-07-21 03:20:54.137,-0.71,-0.21,-1.33,182.98,-98.57,28.2
2026-07-21 03:20:54.137,-0.24,-0.28,-1.61,121.4,15.08,3.17
2026-07-21 03:20:54.260,-0.24,-0.28,-1.61,121.4,15.08,3.17
2026-07-21 03:20:54.260,0.15,-0.16,-1.23,23.44,59.88,-49.44
2026-07-21 03:20:54.260,0.15,-0.16,-1.23,23.44,59.88,-49.44
2026-07-21 03:20:54.260,0.24,0.0,-0.93,7.08,22.16,-56.03
2026-07-21 03:20:54.260,0.24,0.0,-0.93,7.08,22.16,-56.03
2026-07-21 03:20:54.260,-0.04,0.03,-0.91,12.76,-17.58,-48.58
2026-07-21 03:20:54.316,-0.31,-0.0,-0.99,1.95,-36.01,-49.56
2026-07-21 03:20:54.316,-0.31,-0.0,-0.99,1.95,-36.01,-49.56
2026-07-21 03:20:54.496,-0.35,-0.0,-1.02,-5.8,-17.15,-57.98
2026-07-21 03:20:54.496,-0.35,-0.0,-1.02,-5.8,-17.15,-57.98
2026-07-21 03:20:54.499,-0.22,-0.0,-1.0,7.39,22.95,-71.35
2026-07-21 03:20:54.499,-0.22,-0.0,-1.0,7.39,22.95,-71.35
2026-07-21 03:20:54.499,-0.05,0.0,-0.97,31.13,43.52,-93.44
2026-07-21 03:20:54.499,-0.05,0.0,-0.97,31.13,43.52,-93.44
2026-07-21 03:20:54.499,0.02,-0.02,-0.96,49.74,34.55,-125.06
2026-07-21 03:20:54.500,0.05,-0.08,-0.96,61.89,12.63,-156.92
2026-07-21 03:20:54.556,0.05,-0.08,-0.96,61.89,12.63,-156.92
2026-07-21 03:20:54.624,0.06,-0.17,-0.94,73.18,-8.06,-187.74
2026-07-21 03:20:54.625,0.06,-0.17,-0.94,73.18,-8.06,-187.74
2026-07-21 03:20:54.625,0.07,-0.26,-0.92,82.82,-21.61,-223.63
2026-07-21 03:20:54.625,0.07,-0.26,-0.92,82.82,-21.61,-223.63
2026-07-21 03:20:54.685,0.08,-0.36,-0.9,81.97,-32.23,-268.62
2026-07-21 03:20:54.689,0.11,-0.47,-0.93,68.24,-43.15,-311.46
2026-07-21 03:20:54.689,0.11,-0.47,-0.93,68.24,-43.15,-311.46
2026-07-21 03:20:54.737,0.16,-0.53,-0.97,47.3,-46.63,-323.73
2026-07-21 03:20:54.737,0.16,-0.53,-0.97,47.3,-46.63,-323.73
2026-07-21 03:20:54.737,0.22,-0.49,-0.95,25.33,-42.18,-292.48
2026-07-21 03:20:54.796,0.22,-0.49,-0.95,25.33,-42.18,-292.48
2026-07-21 03:20:54.797,0.24,-0.4,-0.91,9.58,-39.43,-226.99
2026-07-21 03:20:54.859,0.2,-0.36,-0.95,4.46,-39.92,-140.32
2026-07-21 03:20:54.860,0.2,-0.36,-0.95,4.46,-39.92,-140.32
2026-07-21 03:20:54.860,0.17,-0.39,-0.99,0.31,-30.58,-47.3
2026-07-21 03:20:54.916,0.17,-0.39,-0.99,0.31,-30.58,-47.3
2026-07-21 03:20:54.917,0.19,-0.41,-0.97,-15.26,-5.49,45.1
2026-07-21 03:20:54.917,0.19,-0.41,-0.97,-15.26,-5.49,45.1
2026-07-21 03:20:54.979,0.19,-0.41,-0.95,-40.47,19.65,151.06
2026-07-21 03:20:54.979,0.19,-0.41,-0.95,-40.47,19.65,151.06
2026-07-21 03:20:55.039,0.12,-0.42,-0.95,-62.26,29.24,291.02
2026-07-21 03:20:55.039,-0.03,-0.47,-0.94,-68.18,32.1,452.76
2026-07-21 03:20:55.039,-0.03,-0.47,-0.94,-68.18,32.1,452.76
2026-07-21 03:20:55.216,-0.17,-0.53,-0.88,-57.62,47.79,597.05
2026-07-21 03:20:55.216,-0.17,-0.53,-0.88,-57.62,47.79,597.05
2026-07-21 03:20:55.220,-0.24,-0.56,-0.8,-38.51,74.1,690.19
2026-07-21 03:20:55.220,-0.24,-0.56,-0.8,-38.51,74.1,690.19
2026-07-21 03:20:55.220,-0.23,-0.55,-0.76,-10.74,99.98,711.55
2026-07-21 03:20:55.220,-0.16,-0.53,-0.78,29.3,116.21,670.17
2026-07-21 03:20:55.220,-0.16,-0.53,-0.78,29.3,116.21,670.17
2026-07-21 03:20:55.220,-0.11,-0.55,-0.85,74.28,115.54,590.7
2026-07-21 03:20:55.457,-0.11,-0.55,-0.85,74.28,115.54,590.7
2026-07-21 03:20:55.458,-0.06,-0.64,-0.91,103.27,107.79,496.4
2026-07-21 03:20:55.458,-0.06,-0.64,-0.91,103.27,107.79,496.4
2026-07-21 03:20:55.459,0.04,-0.68,-0.94,94.91,98.02,403.69
2026-07-21 03:20:55.459,0.12,-0.57,-0.95,54.69,76.23,312.93
2026-07-21 03:20:55.459,0.12,-0.57,-0.95,54.69,76.23,312.93
2026-07-21 03:20:55.459,0.11,-0.41,-0.94,10.07,42.18,225.16
2026-07-21 03:20:55.460,0.11,-0.41,-0.94,10.07,42.18,225.16
2026-07-21 03:20:55.460,0.02,-0.28,-0.95,-19.9,9.09,147.95
2026-07-21 03:20:55.461,0.02,-0.28,-0.95,-19.9,9.09,147.95
2026-07-21 03:20:55.516,-0.09,-0.22,-0.98,-31.92,-11.72,82.28
2026-07-21 03:20:55.516,-0.13,-0.23,-1.0,-28.87,-16.85,21.06
2026-07-21 03:20:55.517,-0.13,-0.23,-1.0,-28.87,-16.85,21.06
2026-07-21 03:20:55.756,-0.1,-0.27,-0.99,-19.96,-12.57,-40.83
2026-07-21 03:20:55.756,-0.1,-0.27,-0.99,-19.96,-12.57,-40.83
2026-07-21 03:20:55.757,-0.1,-0.31,-0.96,-20.14,-14.89,-102.05
2026-07-21 03:20:55.757,-0.1,-0.31,-0.96,-31.43,-29.91,-154.48
2026-07-21 03:20:55.757,-0.16,-0.32,-0.95,-31.43,-29.91,-154.48
2026-07-21 03:20:55.759,-0.2,-0.33,-0.95,-41.08,-50.35,-195.07
2026-07-21 03:20:55.759,-0.2,-0.33,-0.95,-41.08,-50.35,-195.07
2026-07-21 03:20:55.760,-0.21,-0.35,-0.93,-41.26,-72.27,-236.15
2026-07-21 03:20:55.766,-0.21,-0.35,-0.93,-41.26,-72.27,-236.15
2026-07-21 03:20:55.766,-0.27,-0.39,-0.89,-38.57,-91.92,-292.91
2026-07-21 03:20:55.935,-0.27,-0.39,-0.89,-38.57,-91.92,-292.91
2026-07-21 03:20:55.937,-0.36,-0.43,-0.86,-44.01,-95.64,-358.28
2026-07-21 03:20:55.937,-0.39,-0.41,-0.87,-57.19,-77.33,-407.41
2026-07-21 03:20:55.937,-0.39,-0.41,-0.87,-57.19,-77.33,-407.41
2026-07-21 03:20:55.937,-0.33,-0.33,-0.9,-65.31,-51.21,-425.35
2026-07-21 03:20:55.938,-0.33,-0.33,-0.9,-65.31,-51.21,-425.35
2026-07-21 03:20:55.938,-0.26,-0.24,-0.94,-59.33,-36.07,-413.02
2026-07-21 03:20:55.940,-0.26,-0.24,-0.94,-59.33,-36.07,-413.02
2026-07-21 03:20:56.124,-0.21,-0.16,-0.97,-39.12,-34.91,-376.71
2026-07-21 03:20:56.125,-0.2,-0.13,-0.98,-11.41,-36.99,-319.03
2026-07-21 03:20:56.125,-0.2,-0.13,-0.98,-11.41,-36.99,-319.03
2026-07-21 03:20:56.126,-0.21,-0.13,-0.98,10.8,-31.56,-240.3
2026-07-21 03:20:56.126,-0.21,-0.13,-0.98,10.8,-31.56,-240.3
2026-07-21 03:20:56.175,-0.19,-0.14,-0.97,17.82,-14.89,-154.42
2026-07-21 03:20:56.186,-0.19,-0.14,-0.97,17.82,-14.89,-154.42
2026-07-21 03:20:56.186,-0.14,-0.13,-0.97,8.54,6.53,-89.11
2026-07-21 03:20:56.186,-0.1,-0.13,-0.98,-8.24,27.16,-59.94
2026-07-21 03:20:56.186,-0.1,-0.13,-0.98,-8.24,27.16,-59.94
2026-07-21 03:20:56.476,-0.08,-0.12,-0.98,-18.55,45.78,-59.94
2026-07-21 03:20:56.476,-0.08,-0.12,-0.98,-18.55,45.78,-59.94
2026-07-21 03:20:56.476,-0.09,-0.1,-0.97,-14.59,61.83,-70.62
2026-07-21 03:20:56.476,-0.09,-0.1,-0.97,-14.59,61.83,-70.62
2026-07-21 03:20:56.478,-0.07,-0.08,-0.94,-1.46,73.79,-75.68
2026-07-21 03:20:56.478,-0.07,-0.08,-0.94,-1.46,73.79,-75.68
2026-07-21 03:20:56.479,-0.01,-0.06,-0.91,9.7,81.97,-68.73
2026-07-21 03:20:56.479,0.15,-0.06,-0.88,15.62,95.58,-58.29
2026-07-21 03:20:56.479,0.15,-0.06,-0.88,15.62,95.58,-58.29
2026-07-21 03:20:56.480,0.4,-0.09,-0.87,18.55,114.69,-55.73
2026-07-21 03:20:56.480,0.4,-0.09,-0.87,18.55,114.69,-55.73
2026-07-21 03:20:56.481,0.66,-0.11,-0.85,18.68,120.48,-59.14
2026-07-21 03:20:56.481,0.66,-0.11,-0.85,18.68,120.48,-59.14
2026-07-21 03:20:56.482,0.82,-0.11,-0.8,17.64,98.69,-57.37
2026-07-21 03:20:56.655,0.82,-0.11,-0.8,17.64,98.69,-57.37
2026-07-21 03:20:56.655,0.86,-0.11,-0.75,18.92,55.97,-44.68
2026-07-21 03:20:56.656,0.82,-0.15,-0.73,20.39,16.17,-29.6
2026-07-21 03:20:56.657,0.82,-0.15,-0.73,20.39,16.17,-29.6
2026-07-21 03:20:56.659,0.81,-0.21,-0.73,18.13,-0.55,-23.74
2026-07-21 03:20:56.659,0.81,-0.21,-0.73,18.13,-0.55,-23.74
2026-07-21 03:20:56.659,0.83,-0.26,-0.73,12.08,2.32,-25.76
2026-07-21 03:20:56.659,0.83,-0.26,-0.73,12.08,2.32,-25.76
2026-07-21 03:20:56.898,0.86,-0.28,-0.71,3.05,4.88,-23.74
2026-07-21 03:20:56.898,0.86,-0.28,-0.71,-6.84,-3.36,-11.11
2026-07-21 03:20:56.898,0.84,-0.25,-0.68,-6.84,-3.36,-11.11
2026-07-21 03:20:56.899,0.78,-0.21,-0.68,-14.28,-17.82,8.42
2026-07-21 03:20:56.899,0.78,-0.21,-0.68,-14.28,-17.82,8.42
2026-07-21 03:20:56.899,0.71,-0.21,-0.71,-15.44,-27.65,25.82
2026-07-21 03:20:56.899,0.71,-0.21,-0.71,-15.44,-27.65,25.82
2026-07-21 03:20:56.899,0.68,-0.23,-0.74,-8.54,-26.0,35.52
2026-07-21 03:20:56.900,0.68,-0.23,-0.74,-8.54,-26.0,35.52
2026-07-21 03:20:56.900,0.69,-0.28,-0.77,0.92,-18.19,39.55
2026-07-21 03:20:56.901,0.69,-0.28,-0.77,0.92,-18.19,39.55
2026-07-21 03:20:56.957,0.7,-0.32,-0.79,3.91,-14.53,41.02
2026-07-21 03:20:56.957,0.67,-0.33,-0.82,-2.38,-19.04,40.28
2026-07-21 03:20:57.015,0.67,-0.33,-0.82,-2.38,-19.04,40.28
2026-07-21 03:20:57.016,0.63,-0.3,-0.87,-13.49,-27.95,37.66
2026-07-21 03:20:57.016,0.63,-0.3,-0.87,-13.49,-27.95,37.66
2026-07-21 03:20:57.136,0.56,-0.26,-0.93,-23.01,-38.09,33.69
2026-07-21 03:20:57.137,0.56,-0.26,-0.93,-23.01,-38.09,33.69
2026-07-21 03:20:57.137,0.48,-0.22,-1.0,-25.02,-47.55,29.17
2026-07-21 03:20:57.143,0.4,-0.19,-1.0,-18.98,-54.38,24.84
2026-07-21 03:20:57.144,0.4,-0.19,-1.0,-18.98,-54.38,24.84
2026-07-21 03:20:57.195,0.3,-0.17,-0.91,-9.64,-58.29,21.97
2026-07-21 03:20:57.196,0.3,-0.17,-0.91,-9.64,-58.29,21.97
2026-07-21 03:20:57.196,0.21,-0.16,-0.77,-1.59,-59.57,22.89
2026-07-21 03:20:57.495,0.21,-0.16,-0.77,-1.59,-59.57,22.89
2026-07-21 03:20:57.495,0.1,-0.16,-0.63,-0.12,-62.56,26.31
2026-07-21 03:20:57.495,0.1,-0.16,-0.63,-0.12,-62.56,26.31
2026-07-21 03:20:57.497,-0.03,-0.18,-0.57,-4.46,-68.6,27.77
2026-07-21 03:20:57.497,-0.19,-0.22,-0.62,-9.64,-70.43,26.49
2026-07-21 03:20:57.497,-0.19,-0.22,-0.62,-9.64,-70.43,26.49
2026-07-21 03:20:57.498,-0.33,-0.26,-0.8,-15.81,-64.21,22.4
2026-07-21 03:20:57.499,-0.33,-0.26,-0.8,-15.81,-64.21,22.4
2026-07-21 03:20:57.500,-0.39,-0.31,-1.04,-20.26,-50.05,15.08
2026-07-21 03:20:57.500,-0.39,-0.31,-1.04,-20.26,-50.05,15.08
2026-07-21 03:20:57.500,-0.36,-0.36,-1.25,-16.05,-32.53,6.53
2026-07-21 03:20:57.501,-0.36,-0.36,-1.25,-4.7,-22.4,4.21
2026-07-21 03:20:57.504,-0.26,-0.35,-1.34,-4.7,-22.4,4.21
2026-07-21 03:20:57.556,-0.13,-0.3,-1.32,3.54,-22.4,13.0
2026-07-21 03:20:57.557,-0.13,-0.3,-1.32,3.54,-22.4,13.0
2026-07-21 03:20:57.557,-0.03,-0.2,-1.19,-1.59,-27.65,26.86
2026-07-21 03:20:57.616,-0.03,-0.2,-1.19,-1.59,-27.65,26.86
2026-07-21 03:20:57.616,0.02,-0.07,-1.05,-8.12,-24.72,38.21
2026-07-21 03:20:57.677,0.11,-0.06,-0.99,-1.59,1.53,42.3
2026-07-21 03:20:57.737,0.11,-0.06,-0.99,-1.59,1.53,42.3
2026-07-21 03:20:57.738,0.28,-0.12,-0.97,9.64,46.51,29.05
2026-07-21 03:20:57.738,0.28,-0.12,-0.97,9.64,46.51,29.05
2026-07-21 03:20:57.738,0.49,-0.21,-0.97,11.9,84.47,-2.81
2026-07-21 03:20:57.738,0.49,-0.21,-0.97,11.9,84.47,-2.81
2026-07-21 03:20:57.804,0.64,-0.24,-0.97,3.66,88.99,-31.62
2026-07-21 03:20:57.804,0.64,-0.24,-0.97,3.66,88.99,-31.62
2026-07-21 03:20:57.863,0.62,-0.2,-0.98,-5.19,57.01,-38.82
2026-07-21 03:20:57.863,0.46,-0.14,-0.98,-10.74,9.7,-26.79
2026-07-21 03:20:57.863,0.46,-0.14,-0.98,-10.74,9.7,-26.79
2026-07-21 03:20:57.977,0.27,-0.09,-0.94,-12.39,-24.6,-10.19
2026-07-21 03:20:57.978,0.27,-0.09,-0.94,-12.39,-24.6,-10.19
2026-07-21 03:20:57.978,0.15,-0.07,-0.85,-6.47,-32.29,-1.46
2026-07-21 03:20:57.978,0.15,-0.07,-0.85,-6.47,-32.29,-1.46
2026-07-21 03:20:57.978,0.12,-0.08,-0.76,4.46,-24.17,-0.92
2026-07-21 03:20:58.036,0.12,-0.08,-0.76,4.46,-24.17,-0.92
2026-07-21 03:20:58.037,0.14,-0.1,-0.69,11.35,-18.55,-0.37
2026-07-21 03:20:58.037,0.14,-0.1,-0.69,10.5,-22.89,5.25
2026-07-21 03:20:58.216,0.17,-0.09,-0.68,10.5,-22.89,5.25
2026-07-21 03:20:58.216,0.15,-0.08,-0.78,4.82,-32.23,15.62
2026-07-21 03:20:58.218,0.15,-0.08,-0.78,4.82,-32.23,15.62
2026-07-21 03:20:58.336,0.14,-0.11,-0.95,-3.85,-30.82,29.36
2026-07-21 03:20:58.396,0.14,-0.11,-0.95,-3.85,-30.82,29.36
2026-07-21 03:20:58.396,0.2,-0.21,-1.16,-14.47,-12.45,42.18
2026-07-21 03:20:58.516,0.2,-0.21,-1.16,-14.47,-12.45,42.18
2026-07-21 03:20:58.516,0.21,-0.29,-1.3,-31.98,-8.79,47.06
2026-07-21 03:20:58.516,0.21,-0.29,-1.3,-53.96,-43.27,47.73
2026-07-21 03:20:58.516,0.04,-0.22,-1.34,-53.96,-43.27,47.73
2026-07-21 03:20:58.516,-0.17,-0.09,-1.27,-55.54,-76.84,52.19
2026-07-21 03:20:58.517,-0.17,-0.09,-1.27,-55.54,-76.84,52.19
2026-07-21 03:20:58.518,-0.23,-0.05,-1.1,-20.2,-63.35,50.11
2026-07-21 03:20:58.519,-0.23,-0.05,-1.1,-20.2,-63.35,50.11
2026-07-21 03:20:58.519,-0.16,-0.14,-0.93,26.25,-19.04,34.61
2026-07-21 03:20:58.519,-0.16,-0.14,-0.93,26.25,-19.04,34.61
2026-07-21 03:20:58.520,-0.11,-0.24,-0.82,39.67,6.16,25.63
2026-07-21 03:20:58.521,-0.13,-0.23,-0.77,17.7,1.53,38.39
2026-07-21 03:20:58.521,-0.13,-0.23,-0.77,17.7,1.53,38.39
2026-07-21 03:20:58.521,-0.16,-0.18,-0.78,-8.06,-8.73,62.93
2026-07-21 03:20:58.523,-0.16,-0.18,-0.78,-8.06,-8.73,62.93
2026-07-21 03:20:58.576,-0.2,-0.16,-0.82,-16.72,-9.7,81.91
2026-07-21 03:20:58.576,-0.2,-0.16,-0.82,-16.72,-9.7,81.91
2026-07-21 03:20:58.576,-0.19,-0.2,-0.86,-6.84,-0.98,88.07
2026-07-21 03:20:58.816,-0.19,-0.2,-0.86,-6.84,-0.98,88.07
2026-07-21 03:20:58.817,-0.17,-0.27,-0.9,9.16,8.97,83.5
2026-07-21 03:20:58.817,-0.17,-0.27,-0.9,15.69,12.33,74.95
2026-07-21 03:20:58.817,-0.14,-0.32,-0.93,15.69,12.33,74.95
2026-07-21 03:20:58.817,-0.12,-0.33,-0.98,6.77,9.95,72.08
2026-07-21 03:20:58.818,-0.12,-0.33,-0.98,6.77,9.95,72.08
2026-07-21 03:20:58.819,-0.12,-0.27,-1.08,-15.26,0.73,71.29
2026-07-21 03:20:58.819,-0.12,-0.27,-1.08,-15.26,0.73,71.29
2026-07-21 03:20:58.819,-0.18,-0.12,-1.21,-46.33,-15.69,61.95
2026-07-21 03:20:58.820,-0.18,-0.12,-1.21,-46.33,-15.69,61.95
2026-07-21 03:20:58.821,-0.23,0.09,-1.26,-70.07,-27.04,43.95
2026-07-21 03:20:58.935,-0.23,0.09,-1.26,-70.07,-27.04,43.95
2026-07-21 03:20:58.935,-0.2,0.24,-1.18,-56.7,-23.93,23.01
2026-07-21 03:20:58.937,-0.13,0.22,-1.01,-5.25,-22.09,7.32
2026-07-21 03:20:58.937,-0.13,0.22,-1.01,-5.25,-22.09,7.32
2026-07-21 03:20:58.937,-0.13,0.07,-0.88,47.49,-37.9,-0.92
2026-07-21 03:20:58.997,-0.13,0.07,-0.88,47.49,-37.9,-0.92
2026-07-21 03:20:58.997,-0.21,-0.12,-0.87,64.88,-60.49,-5.62
2026-07-21 03:20:59.176,-0.21,-0.12,-0.87,64.88,-60.49,-5.62
2026-07-21 03:20:59.176,-0.29,-0.21,-0.95,38.7,-65.86,-9.52
2026-07-21 03:20:59.176,-0.29,-0.21,-0.95,38.7,-65.86,-9.52
2026-07-21 03:20:59.177,-0.31,-0.17,-0.98,-5.31,-42.24,-20.57
2026-07-21 03:20:59.248,-0.3,-0.05,-0.94,-43.52,-4.03,-34.91
2026-07-21 03:20:59.248,-0.3,-0.05,-0.94,-43.52,-4.03,-34.91
2026-07-21 03:20:59.248,-0.23,0.06,-0.86,-80.63,21.73,-31.31
2026-07-21 03:20:59.249,-0.23,0.06,-0.86,-80.63,21.73,-31.31
2026-07-21 03:20:59.249,-0.14,0.17,-0.81,-129.64,17.58,-14.83
2026-07-21 03:20:59.249,-0.14,0.17,-0.81,-129.64,17.58,-14.83
2026-07-21 03:20:59.249,-0.14,0.31,-0.78,-222.53,1.34,-9.4
2026-07-21 03:20:59.249,-0.14,0.31,-0.78,-222.53,1.34,-9.4
2026-07-21 03:20:59.357,-0.2,0.46,-0.75,-359.19,6.41,-0.79
2026-07-21 03:20:59.357,-0.13,0.65,-0.68,-410.28,21.12,42.48
2026-07-21 03:20:59.358,-0.13,0.65,-0.68,-410.28,21.12,42.48
2026-07-21 03:20:59.358,0.03,0.83,-0.49,-338.13,3.85,71.53
2026-07-21 03:20:59.358,0.03,0.83,-0.49,-338.13,3.85,71.53
2026-07-21 03:20:59.537,0.03,0.84,-0.25,-269.9,-45.29,-1.16
2026-07-21 03:20:59.538,0.03,0.84,-0.25,-269.9,-45.29,-1.16
2026-07-21 03:20:59.538,-0.13,0.78,-0.06,-246.83,-93.02,-129.03
2026-07-21 03:20:59.538,-0.13,0.78,-0.06,-236.39,-114.38,-213.5
2026-07-21 03:20:59.538,-0.32,0.72,0.06,-236.39,-114.38,-213.56
2026-07-21 03:20:59.539,-0.49,0.6,0.19,-239.32,-96.01,-239.26
2026-07-21 03:20:59.539,-0.49,0.6,0.19,-239.32,-96.01,-239.26
2026-07-21 03:20:59.539,-0.65,0.37,0.39,-238.95,-64.09,-231.26
2026-07-21 03:20:59.597,-0.65,0.37,0.39,-238.95,-64.09,-231.26
2026-07-21 03:20:59.597,-0.8,0.15,0.56,-167.54,-44.49,-192.69
2026-07-21 03:20:59.836,-0.9,0.08,0.63,-11.23,-23.56,-114.87
2026-07-21 03:20:59.836,-0.9,0.08,0.63,-11.23,-23.56,-114.87
2026-07-21 03:20:59.836,-1.05,0.17,0.62,152.71,-5.43,-37.84
2026-07-21 03:20:59.837,-1.05,0.17,0.62,152.71,-5.43,-37.84
2026-07-21 03:20:59.837,-1.37,0.33,0.57,242.61,-3.66,0.24
2026-07-21 03:20:59.838,-1.37,0.33,0.57,242.61,-3.66,0.24
2026-07-21 03:20:59.839,-1.61,0.37,0.44,249.76,-27.89,63.29
2026-07-21 03:20:59.955,-1.06,-0.04,-0.04,218.51,-61.04,268.62
2026-07-21 03:20:59.955,-1.06,-0.04,-0.04,218.51,-61.04,268.62
2026-07-21 03:20:59.955,0.09,-0.38,-0.35,171.08,29.24,579.28
2026-07-21 03:20:59.956,0.09,-0.38,-0.35,171.08,29.24,579.28
2026-07-21 03:20:59.957,0.96,-0.17,0.19,81.3,229.98,759.4
2026-07-21 03:20:59.957,0.96,-0.17,0.19,81.3,229.98,759.4
2026-07-21 03:20:59.957,1.31,0.27,0.79,-5.49,291.02,661.99
2026-07-21 03:20:59.962,1.26,0.72,0.69,-3.3,113.59,385.93
2026-07-21 03:21:00.256,1.26,0.72,0.69,-3.3,113.59,385.93
2026-07-21 03:21:00.256,0.94,0.88,0.05,83.44,-148.13,135.38
2026-07-21 03:21:00.257,0.94,0.88,0.05,83.44,-148.13,135.38
2026-07-21 03:21:00.260,0.63,0.63,-0.68,231.14,-295.41,65.12
2026-07-21 03:21:00.260,0.63,0.63,-0.68,231.14,-295.41,65.12
2026-07-21 03:21:00.260,0.58,0.13,-0.99,316.77,-256.16,164.98
2026-07-21 03:21:00.260,0.66,-0.46,-0.77,220.64,-102.05,290.22
2026-07-21 03:21:00.260,0.66,-0.46,-0.77,220.64,-102.05,290.22
2026-07-21 03:21:00.260,0.67,-0.86,-0.34,92.35,62.81,347.35
2026-07-21 03:21:00.260,0.67,-0.86,-0.34,92.35,62.81,347.35
2026-07-21 03:21:00.260,0.58,-0.9,-0.03,72.94,156.07,336.18
2026-07-21 03:21:00.261,0.58,-0.9,-0.03,72.94,156.07,336.18
2026-07-21 03:21:00.261,0.43,-0.82,0.1,81.67,152.47,281.31
2026-07-21 03:21:00.263,0.2,-0.86,0.15,68.3,113.59,257.51
2026-07-21 03:21:00.316,0.2,-0.86,0.15,68.3,113.59,257.51
2026-07-21 03:21:00.316,-0.03,-0.99,0.13,38.76,82.28,292.97
2026-07-21 03:21:00.556,-0.03,-0.99,0.13,38.76,82.28,292.97
2026-07-21 03:21:00.556,-0.21,-1.24,0.08,-12.08,61.58,320.37
2026-07-21 03:21:00.556,-0.21,-1.24,0.08,-12.08,61.58,320.37
2026-07-21 03:21:00.557,-0.35,-1.53,0.1,-6.71,72.33,335.33
2026-07-21 03:21:00.558,-0.48,-1.62,0.14,58.11,101.32,340.15
2026-07-21 03:21:00.558,-0.48,-1.62,0.14,58.11,101.32,340.15
2026-07-21 03:21:00.559,-0.56,-1.45,0.09,75.56,109.74,268.07
2026-07-21 03:21:00.559,-0.56,-1.45,0.09,75.56,109.74,268.07
2026-07-21 03:21:00.560,-0.55,-1.2,0.01,50.54,112.43,145.94
2026-07-21 03:21:00.560,-0.55,-1.2,0.01,50.54,112.43,145.94
2026-07-21 03:21:00.560,-0.51,-0.98,-0.04,36.19,134.58,59.27
2026-07-21 03:21:00.736,-0.53,-0.81,-0.02,44.07,176.7,26.0
2026-07-21 03:21:00.736,-0.53,-0.81,-0.02,44.07,176.7,26.0
2026-07-21 03:21:00.736,-0.62,-0.69,0.09,69.95,229.92,27.89
2026-07-21 03:21:00.855,-0.62,-0.69,0.09,69.95,229.92,27.89
2026-07-21 03:21:01.096,-0.73,-0.63,0.21,90.27,269.41,44.98
2026-07-21 03:21:01.097,-0.73,-0.63,0.21,90.27,269.41,44.98
2026-07-21 03:21:01.098,-0.78,-0.62,0.24,90.64,264.34,64.51
2026-07-21 03:21:01.099,-0.78,-0.62,0.24,76.17,218.38,80.32
2026-07-21 03:21:01.099,-0.78,-0.62,0.15,76.17,218.38,80.32
2026-07-21 03:21:01.099,-0.76,-0.63,0.04,56.7,168.09,92.53
2026-07-21 03:21:01.099,-0.76,-0.63,0.04,56.7,168.09,92.53
2026-07-21 03:21:01.099,-0.74,-0.67,-0.05,36.19,133.61,102.36
2026-07-21 03:21:01.099,-0.74,-0.67,-0.05,36.19,133.61,102.36
2026-07-21 03:21:01.100,-0.73,-0.73,-0.13,20.51,108.58,106.51
2026-07-21 03:21:01.100,-0.73,-0.73,-0.13,27.65,89.6,107.24
2026-07-21 03:21:01.102,-0.74,-0.75,-0.2,27.65,89.6,107.24
2026-07-21 03:21:01.102,-0.76,-0.73,-0.26,62.93,84.84,112.43
2026-07-21 03:21:01.103,-0.76,-0.73,-0.26,62.93,84.84,112.43
2026-07-21 03:21:01.103,-0.79,-0.72,-0.29,105.35,95.4,120.48
2026-07-21 03:21:01.104,-0.79,-0.72,-0.29,105.35,95.4,120.48
2026-07-21 03:21:01.104,-0.8,-0.73,-0.29,137.21,113.71,126.77
2026-07-21 03:21:01.105,-0.8,-0.73,-0.29,159.48,135.44,130.68
2026-07-21 03:21:01.105,-0.78,-0.73,-0.27,159.48,135.44,130.68
2026-07-21 03:21:01.105,-0.78,-0.71,-0.24,171.39,151.37,129.7
2026-07-21 03:21:01.217,-0.78,-0.71,-0.24,171.39,151.37,129.7
2026-07-21 03:21:01.217,-0.77,-0.7,-0.23,163.02,142.7,124.21
2026-07-21 03:21:01.217,-0.77,-0.7,-0.23,163.02,142.7,124.21
2026-07-21 03:21:01.217,-0.73,-0.7,-0.25,126.53,102.78,112.55
2026-07-21 03:21:01.397,-0.66,-0.73,-0.28,73.49,53.89,92.41
2026-07-21 03:21:01.398,-0.66,-0.73,-0.28,73.49,53.89,92.41
2026-07-21 03:21:01.399,-0.61,-0.78,-0.3,34.48,24.78,71.78
2026-07-21 03:21:01.399,-0.61,-0.78,-0.3,34.48,24.78,71.78
2026-07-21 03:21:01.400,-0.62,-0.82,-0.3,26.86,21.24,56.46
2026-07-21 03:21:01.400,-0.62,-0.82,-0.3,26.86,21.24,56.46
2026-07-21 03:21:01.401,-0.65,-0.85,-0.31,32.17,20.02,43.46
2026-07-21 03:21:01.401,-0.65,-0.85,-0.31,32.17,20.02,43.46
2026-07-21 03:21:01.402,-0.65,-0.9,-0.34,13.73,-0.55,24.48
2026-07-21 03:21:01.516,-0.7,-0.97,-0.42,-37.9,-25.94,-5.8
2026-07-21 03:21:01.516,-0.7,-0.97,-0.42,-37.9,-25.94,-5.8
2026-07-21 03:21:01.517,-0.79,-0.97,-0.49,-80.38,-39.92,-50.29
2026-07-21 03:21:01.517,-0.79,-0.97,-0.49,-80.38,-39.92,-50.29
2026-07-21 03:21:01.517,-0.84,-0.86,-0.49,-80.75,-55.6,-105.53
2026-07-21 03:21:01.640,-0.84,-0.86,-0.49,-80.75,-55.6,-105.53
2026-07-21 03:21:01.641,-0.87,-0.72,-0.43,-60.73,-81.97,-149.17
2026-07-21 03:21:01.642,-0.91,-0.6,-0.37,-47.67,-105.1,-170.7
2026-07-21 03:21:01.642,-0.91,-0.6,-0.37,-47.67,-105.1,-170.7
2026-07-21 03:21:01.642,-0.97,-0.56,-0.35,-55.05,-96.25,-180.42
2026-07-21 03:21:02.057,-0.97,-0.56,-0.35,-55.05,-96.25,-180.42
2026-07-21 03:21:02.057,-0.99,-0.57,-0.32,-73.85,-46.14,-177.55
2026-07-21 03:21:02.057,-0.93,-0.58,-0.25,-75.07,15.56,-157.47
2026-07-21 03:21:02.057,-0.93,-0.58,-0.25,-75.07,15.56,-157.47
2026-07-21 03:21:02.058,-0.84,-0.54,-0.18,-47.85,56.88,-129.94
2026-07-21 03:21:02.058,-0.84,-0.54,-0.18,-47.85,56.88,-129.94
2026-07-21 03:21:02.058,-0.78,-0.45,-0.14,-7.81,67.08,-103.88
2026-07-21 03:21:02.059,-0.78,-0.45,-0.14,-7.81,67.08,-103.88
2026-07-21 03:21:02.060,-0.73,-0.37,-0.12,20.14,50.78,-77.21
2026-07-21 03:21:02.060,-0.73,-0.37,-0.12,20.14,50.78,-77.21
2026-07-21 03:21:02.061,-0.69,-0.32,-0.13,21.36,17.82,-46.33
2026-07-21 03:21:02.061,-0.67,-0.33,-0.18,1.4,-20.45,-10.99
2026-07-21 03:21:02.063,-0.67,-0.33,-0.18,1.4,-20.45,-10.99
2026-07-21 03:21:02.063,-0.67,-0.4,-0.25,-21.18,-48.52,26.86
2026-07-21 03:21:02.063,-0.67,-0.4,-0.25,-21.18,-48.52,26.86
2026-07-21 03:21:02.063,-0.69,-0.49,-0.34,-32.53,-58.23,62.07
2026-07-21 03:21:02.064,-0.69,-0.49,-0.34,-32.53,-58.23,62.07
2026-07-21 03:21:02.065,-0.75,-0.58,-0.41,-30.4,-54.26,88.44
2026-07-21 03:21:02.065,-0.75,-0.58,-0.41,-13.55,-35.52,107.79
2026-07-21 03:21:02.176,-0.83,-0.66,-0.46,-13.55,-35.52,107.79
2026-07-21 03:21:02.177,-0.85,-0.71,-0.44,18.55,-0.24,129.21
2026-07-21 03:21:02.177,-0.85,-0.71,-0.44,18.55,-0.24,129.21
2026-07-21 03:21:02.177,-0.79,-0.74,-0.42,51.51,36.13,148.68
2026-07-21 03:21:02.177,-0.79,-0.74,-0.42,51.51,36.13,148.68
2026-07-21 03:21:02.357,-0.75,-0.77,-0.43,64.82,57.37,149.6
2026-07-21 03:21:02.358,-0.75,-0.77,-0.43,64.82,57.37,149.6
2026-07-21 03:21:02.358,-0.75,-0.82,-0.49,50.78,57.31,131.96
2026-07-21 03:21:02.358,-0.68,-0.88,-0.55,16.66,38.09,106.69
2026-07-21 03:21:02.358,-0.68,-0.88,-0.55,16.66,38.09,106.69
2026-07-21 03:21:02.358,-0.54,-0.91,-0.59,-6.9,19.04,77.58
2026-07-21 03:21:02.360,-0.54,-0.91,-0.59,-6.9,19.04,77.58
2026-07-21 03:21:02.420,-0.45,-0.87,-0.61,7.57,22.03,46.57
2026-07-21 03:21:02.420,-0.45,-0.87,-0.61,7.57,22.03,46.57
2026-07-21 03:21:02.421,-0.45,-0.78,-0.6,45.47,44.37,15.08
2026-07-21 03:21:02.596,-0.45,-0.78,-0.6,45.47,44.37,15.08
2026-07-21 03:21:02.596,-0.45,-0.78,-0.6,45.47,44.37,15.08
2026-07-21 03:21:02.597,-0.45,-0.78,-0.6,45.47,44.37,15.08
2026-07-21 03:21:02.597,-0.61,-0.65,-0.55,88.38,77.33,-38.64
2026-07-21 03:21:02.597,-0.61,-0.65,-0.55,77.27,65.67,-57.01
2026-07-21 03:21:02.598,-0.66,-0.57,-0.54,77.27,65.67,-57.01
2026-07-21 03:21:02.598,-0.64,-0.51,-0.55,39.79,33.45,-70.74
2026-07-21 03:21:02.599,-0.64,-0.51,-0.55,39.79,33.45,-70.74
2026-07-21 03:21:02.599,-0.59,-0.47,-0.57,-16.78,-10.8,-79.22
2026-07-21 03:21:02.657,-0.59,-0.47,-0.57,-16.78,-10.8,-79.22
2026-07-21 03:21:02.657,-0.54,-0.49,-0.62,-71.59,-53.34,-83.5
2026-07-21 03:21:02.784,-0.54,-0.49,-0.62,-71.59,-53.34,-83.5
2026-07-21 03:21:02.784,-0.53,-0.52,-0.68,-100.95,-75.07,-84.84
2026-07-21 03:21:02.784,-0.56,-0.55,-0.7,-93.69,-63.42,-75.74
2026-07-21 03:21:02.784,-0.56,-0.55,-0.7,-93.69,-63.42,-75.74
2026-07-21 03:21:02.784,-0.58,-0.57,-0.63,-58.78,-25.7,-50.42
2026-07-21 03:21:02.836,-0.58,-0.57,-0.63,-58.78,-25.7,-50.42
2026-07-21 03:21:02.837,-0.59,-0.57,-0.53,-19.35,10.19,-21.91
2026-07-21 03:21:02.837,-0.59,-0.57,-0.53,-19.35,10.19,-21.91
2026-07-21 03:21:02.897,-0.58,-0.55,-0.49,0.85,18.86,-8.79
2026-07-21 03:21:02.897,-0.56,-0.54,-0.5,-6.84,2.32,-13.18
2026-07-21 03:21:02.897,-0.56,-0.54,-0.5,-6.84,2.32,-13.18
2026-07-21 03:21:03.148,-0.56,-0.54,-0.54,-25.39,-15.81,-21.48
2026-07-21 03:21:03.148,-0.56,-0.54,-0.54,-25.39,-15.81,-21.48
2026-07-21 03:21:03.149,-0.57,-0.56,-0.55,-31.13,-19.41,-21.12
2026-07-21 03:21:03.149,-0.57,-0.56,-0.55,-31.13,-19.41,-21.12
2026-07-21 03:21:03.149,-0.58,-0.56,-0.57,-22.46,-15.26,-14.53
2026-07-21 03:21:03.149,-0.58,-0.56,-0.57,-22.46,-15.26,-14.53
2026-07-21 03:21:03.149,-0.57,-0.54,-0.6,-15.5,-16.05,-10.74
2026-07-21 03:21:03.149,-0.55,-0.52,-0.64,-19.41,-23.25,-12.51
2026-07-21 03:21:03.150,-0.55,-0.52,-0.64,-19.41,-23.25,-12.51
2026-07-21 03:21:03.150,-0.54,-0.51,-0.67,-26.98,-27.34,-15.26
2026-07-21 03:21:03.151,-0.54,-0.51,-0.67,-26.98,-27.34,-15.26
2026-07-21 03:21:03.196,-0.54,-0.5,-0.67,-24.84,-19.84,-11.17
2026-07-21 03:21:03.197,-0.54,-0.5,-0.67,-24.84,-19.84,-11.17
2026-07-21 03:21:03.376,-0.55,-0.5,-0.65,-11.66,-4.88,1.59
2026-07-21 03:21:03.376,-0.55,-0.5,-0.65,-0.31,5.25,15.44
2026-07-21 03:21:03.376,-0.54,-0.51,-0.63,-0.31,5.25,15.44
2026-07-21 03:21:03.377,-0.53,-0.53,-0.63,1.22,5.31,22.95
2026-07-21 03:21:03.377,-0.53,-0.53,-0.63,1.22,5.31,22.95
2026-07-21 03:21:03.377,-0.52,-0.56,-0.63,-2.87,1.53,23.93
2026-07-21 03:21:03.379,-0.52,-0.56,-0.63,-2.87,1.53,23.93
2026-07-21 03:21:03.380,-0.52,-0.58,-0.62,-3.3,2.08,22.77
2026-07-21 03:21:03.797,-0.52,-0.58,-0.62,-3.3,2.08,22.77
2026-07-21 03:21:03.798,-0.54,-0.6,-0.6,4.7,7.45,22.64
2026-07-21 03:21:03.798,-0.54,-0.6,-0.6,4.7,7.45,22.64
2026-07-21 03:21:03.798,-0.55,-0.59,-0.58,16.11,10.86,22.77
2026-07-21 03:21:03.798,-0.56,-0.57,-0.55,22.52,6.41,21.67
2026-07-21 03:21:03.798,-0.56,-0.57,-0.55,22.52,6.41,21.67
2026-07-21 03:21:03.798,-0.56,-0.56,-0.56,20.81,-5.0,19.17
2026-07-21 03:21:03.798,-0.56,-0.56,-0.56,20.81,-5.0,19.17
2026-07-21 03:21:03.799,-0.56,-0.56,-0.59,14.59,-14.04,14.65
2026-07-21 03:21:03.799,-0.56,-0.56,-0.59,14.59,-14.04,14.65
2026-07-21 03:21:03.800,-0.56,-0.55,-0.6,10.74,-12.63,11.54
2026-07-21 03:21:03.801,-0.56,-0.55,-0.6,10.74,-12.63,11.54
2026-07-21 03:21:03.803,-0.57,-0.55,-0.58,11.84,-4.46,12.33
2026-07-21 03:21:03.803,-0.58,-0.55,-0.57,13.43,2.38,10.13
2026-07-21 03:21:03.804,-0.58,-0.55,-0.57,13.43,2.38,10.13
2026-07-21 03:21:03.804,-0.58,-0.54,-0.56,9.03,6.1,1.59
2026-07-21 03:21:03.804,-0.58,-0.54,-0.56,9.03,6.1,1.59
2026-07-21 03:21:03.804,-0.56,-0.52,-0.57,-7.93,10.44,-10.74
2026-07-21 03:21:03.804,-0.56,-0.52,-0.57,-7.93,10.44,-10.74
2026-07-21 03:21:03.859,-0.55,-0.52,-0.59,-40.41,15.26,-25.02
2026-07-21 03:21:03.860,-0.53,-0.56,-0.59,-70.56,7.87,-36.5
2026-07-21 03:21:04.216,-0.53,-0.56,-0.59,-70.56,7.87,-36.5
2026-07-21 03:21:04.216,-0.5,-0.57,-0.57,-83.86,-16.54,-35.4
2026-07-21 03:21:04.216,-0.5,-0.57,-0.57,-83.86,-16.54,-35.4
2026-07-21 03:21:04.218,-0.54,-0.54,-0.58,-99.73,-35.03,-22.64
2026-07-21 03:21:04.218,-0.54,-0.54,-0.58,-99.73,-35.03,-22.64
2026-07-21 03:21:04.218,-0.62,-0.51,-0.64,-113.83,-30.09,-18.49
2026-07-21 03:21:04.221,-0.59,-0.43,-0.73,-92.9,-20.39,-29.42
2026-07-21 03:21:04.221,-0.59,-0.43,-0.73,-92.9,-20.39,-29.42
2026-07-21 03:21:04.221,-0.54,-0.31,-0.83,-60.36,-24.23,-47.18
2026-07-21 03:21:04.222,-0.54,-0.31,-0.83,-60.36,-24.23,-47.18
2026-07-21 03:21:04.222,-0.61,-0.23,-0.89,-57.86,-36.38,-68.3
2026-07-21 03:21:04.222,-0.61,-0.23,-0.89,-57.86,-36.38,-68.3
2026-07-21 03:21:04.222,-0.7,-0.18,-0.87,-48.77,-33.26,-71.47
2026-07-21 03:21:04.222,-0.7,-0.18,-0.87,-48.77,-33.26,-71.47
2026-07-21 03:21:04.223,-0.72,-0.12,-0.79,9.34,-6.77,-39.06
2026-07-21 03:21:04.224,-0.68,-0.08,-0.72,82.58,18.74,10.93
2026-07-21 03:21:04.340,-0.68,-0.08,-0.72,82.58,18.74,10.93
2026-07-21 03:21:04.340,-0.64,-0.12,-0.7,112.55,27.4,43.7
2026-07-21 03:21:04.340,-0.64,-0.12,-0.7,112.55,27.4,43.7
2026-07-21 03:21:04.340,-0.68,-0.22,-0.71,82.82,35.03,47.61
2026-07-21 03:21:04.341,-0.68,-0.22,-0.71,82.82,35.03,47.61
2026-07-21 03:21:04.456,-0.73,-0.33,-0.68,32.65,57.07,51.45
2026-07-21 03:21:04.457,-0.73,-0.33,-0.68,32.65,57.07,51.45
2026-07-21 03:21:04.457,-0.73,-0.33,-0.68,32.65,57.07,51.45
2026-07-21 03:21:04.457,-0.73,-0.33,-0.68,32.65,57.07,51.45
2026-07-21 03:21:04.457,-0.66,-0.41,-0.6,43.27,39.12,73.61
2026-07-21 03:21:04.458,-0.66,-0.41,-0.6,97.9,-25.63,48.03
2026-07-21 03:21:04.517,-0.67,-0.39,-0.55,97.9,-25.63,48.03
2026-07-21 03:21:04.517,-0.71,-0.43,-0.45,151.61,-77.76,-0.98
2026-07-21 03:21:04.517,-0.71,-0.43,-0.45,151.61,-77.76,-0.98
2026-07-21 03:21:04.636,-0.75,-0.53,-0.33,197.45,-73.55,-9.09
2026-07-21 03:21:04.636,-0.75,-0.53,-0.33,197.45,-73.55,-9.09
2026-07-21 03:21:04.637,-0.75,-0.61,-0.24,214.05,-9.34,46.39
2026-07-21 03:21:04.637,-0.75,-0.61,-0.24,214.05,-9.34,46.39
2026-07-21 03:21:04.638,-0.7,-0.67,-0.24,175.96,68.48,89.42
2026-07-21 03:21:04.822,-0.64,-0.71,-0.29,108.46,112.06,73.67
2026-07-21 03:21:04.823,-0.64,-0.71,-0.29,108.46,112.06,73.67
2026-07-21 03:21:04.823,-0.58,-0.73,-0.29,73.0,122.31,32.78
2026-07-21 03:21:04.823,-0.58,-0.73,-0.29,73.0,122.31,32.78
2026-07-21 03:21:04.823,-0.55,-0.71,-0.25,105.9,100.46,12.33
2026-07-21 03:21:04.823,-0.55,-0.71,-0.25,105.9,100.46,12.33
2026-07-21 03:21:04.824,-0.57,-0.73,-0.27,180.85,52.55,11.66
2026-07-21 03:21:04.824,-0.58,-0.83,-0.23,278.44,20.94,10.62
2026-07-21 03:21:04.941,-0.58,-0.83,-0.23,278.44,20.94,10.62
2026-07-21 03:21:04.941,-0.55,-0.82,0.03,400.39,34.24,9.4
2026-07-21 03:21:05.355,-0.55,-0.82,0.03,400.39,34.24,9.4
2026-07-21 03:21:05.355,-0.55,-0.58,0.41,488.83,72.27,11.6
2026-07-21 03:21:05.355,-0.55,-0.58,0.41,488.83,72.27,11.6
2026-07-21 03:21:05.358,-0.6,-0.38,0.68,446.35,74.83,26.12
2026-07-21 03:21:05.416,-0.6,-0.38,0.68,280.27,7.87,59.02
2026-07-21 03:21:05.416,-0.65,-0.37,0.79,280.27,7.87,59.02
2026-07-21 03:21:05.416,-0.7,-0.34,0.83,112.24,-76.23,102.23
2026-07-21 03:21:05.417,-0.7,-0.34,0.83,112.24,-76.23,102.23
2026-07-21 03:21:05.418,-0.72,-0.18,0.86,20.63,-99.55,142.4
2026-07-21 03:21:05.418,-0.72,-0.18,0.86,20.63,-99.55,142.4
2026-07-21 03:21:05.418,-0.65,-0.0,0.87,-5.0,-45.53,174.56
2026-07-21 03:21:05.419,-0.65,-0.0,0.87,-5.0,-45.53,174.56
2026-07-21 03:21:05.420,-0.53,0.1,0.81,-5.8,25.57,180.24
2026-07-21 03:21:05.420,-0.49,0.12,0.69,-6.41,49.26,137.94
2026-07-21 03:21:05.420,-0.49,0.12,0.69,-6.41,49.26,137.94
2026-07-21 03:21:05.421,-0.55,0.1,0.61,-19.41,29.11,97.84
2026-07-21 03:21:05.422,-0.55,0.1,0.61,-19.41,29.11,97.84
2026-07-21 03:21:05.422,-0.65,0.05,0.63,-47.61,8.73,112.18
2026-07-21 03:21:05.423,-0.65,0.05,0.63,-47.61,8.73,112.18
2026-07-21 03:21:05.423,-0.79,-0.0,0.68,-63.66,6.04,138.0
2026-07-21 03:21:05.424,-0.79,-0.0,0.68,-63.66,6.04,138.0
2026-07-21 03:21:05.424,-0.85,0.02,0.73,-40.95,16.72,125.85
2026-07-21 03:21:05.425,-0.81,0.09,0.78,-2.2,27.47,81.6
2026-07-21 03:21:05.425,-0.81,0.09,0.78,-2.2,27.47,81.6
2026-07-21 03:21:05.426,-0.76,0.08,0.77,10.5,13.79,24.35
2026-07-21 03:21:05.479,-0.76,0.08,0.77,10.5,13.79,24.35
2026-07-21 03:21:05.479,-0.74,0.08,0.61,-20.45,-25.76,-16.97
2026-07-21 03:21:05.536,-0.74,0.08,0.61,-20.45,-25.76,-16.97
2026-07-21 03:21:05.536,-0.71,0.1,0.47,-89.84,-50.05,-12.57
2026-07-21 03:21:05.836,-0.71,0.1,0.48,-158.2,-34.48,21.55
2026-07-21 03:21:05.837,-0.71,0.1,0.48,-158.2,-34.48,21.55
2026-07-21 03:21:05.838,-0.75,0.11,0.57,-174.62,10.44,34.79
2026-07-21 03:21:05.838,-0.75,0.11,0.57,-174.62,10.44,34.79
2026-07-21 03:21:05.840,-0.81,0.09,0.6,-126.71,72.08,12.88
2026-07-21 03:21:05.840,-0.81,0.09,0.6,-126.71,72.08,12.88
2026-07-21 03:21:05.841,-0.82,0.02,0.64,-23.44,84.53,-22.22
2026-07-21 03:21:05.841,-0.68,0.02,0.76,103.09,13.18,-47.61
2026-07-21 03:21:05.841,-0.68,0.02,0.76,103.09,13.18,-47.61
2026-07-21 03:21:05.842,-0.52,0.12,0.86,191.89,-52.43,-54.38
2026-07-21 03:21:05.843,-0.52,0.12,0.86,191.89,-52.43,-54.38
2026-07-21 03:21:05.843,-0.5,0.3,0.87,212.89,-63.17,-34.67
2026-07-21 03:21:05.843,-0.5,0.3,0.87,212.89,-63.17,-34.67
2026-07-21 03:21:05.844,-0.59,0.35,0.85,168.7,-41.14,30.64
2026-07-21 03:21:05.900,-0.71,0.12,0.84,79.83,9.34,120.97
2026-07-21 03:21:05.901,-0.71,0.12,0.84,79.83,9.34,120.97
2026-07-21 03:21:06.017,-0.83,-0.19,0.87,-5.43,61.4,175.48
2026-07-21 03:21:06.017,-0.83,-0.19,0.87,-5.43,61.4,175.48
2026-07-21 03:21:06.018,-0.97,-0.31,0.96,-67.14,78.86,149.48
2026-07-21 03:21:06.018,-0.97,-0.31,0.96,-67.14,78.86,149.48
2026-07-21 03:21:06.018,-1.01,-0.13,1.08,-125.98,67.38,46.87
2026-07-21 03:21:06.018,-1.01,-0.13,1.08,-197.57,47.49,-76.42
2026-07-21 03:21:06.258,-0.99,0.18,1.12,-197.57,47.49,-76.42
2026-07-21 03:21:06.258,-0.96,0.38,1.03,-256.41,28.5,-147.03
2026-07-21 03:21:06.258,-0.96,0.38,1.03,-256.41,28.5,-147.03
2026-07-21 03:21:06.258,-0.85,0.5,0.78,-241.46,3.72,-130.74
2026-07-21 03:21:06.258,-0.85,0.5,0.78,-241.46,3.72,-130.74
2026-07-21 03:21:06.259,-0.69,0.55,0.46,-176.57,-15.62,-62.19
2026-07-21 03:21:06.259,-0.69,0.55,0.46,-176.57,-15.62,-62.19
2026-07-21 03:21:06.259,-0.59,0.47,0.23,-140.69,-6.47,1.1
2026-07-21 03:21:06.260,-0.57,0.35,0.14,-120.97,15.14,33.39
2026-07-21 03:21:06.260,-0.57,0.35,0.14,-120.97,15.14,33.39
2026-07-21 03:21:06.378,-0.6,0.22,0.18,-76.17,24.72,40.95
2026-07-21 03:21:06.378,-0.6,0.22,0.18,-76.17,24.72,40.95
2026-07-21 03:21:06.379,-0.66,0.1,0.3,-14.89,19.1,37.9
2026-07-21 03:21:06.379,-0.66,0.1,0.3,-14.89,19.1,37.9
2026-07-21 03:21:06.379,-0.75,0.01,0.45,34.85,4.52,34.36
2026-07-21 03:21:06.379,-0.75,0.01,0.45,34.85,4.52,34.36
2026-07-21 03:21:06.436,-0.84,-0.09,0.56,62.68,-10.56,33.45
2026-07-21 03:21:06.437,-0.86,-0.16,0.62,78.98,-19.59,30.21
2026-07-21 03:21:06.496,-0.86,-0.16,0.62,78.98,-19.59,30.21
2026-07-21 03:21:06.496,-0.82,-0.16,0.64,90.15,-21.85,23.19
2026-07-21 03:21:06.497,-0.82,-0.16,0.64,90.15,-21.85,23.19
2026-07-21 03:21:06.560,-0.79,-0.08,0.64,88.44,-18.13,19.96
2026-07-21 03:21:06.560,-0.79,-0.08,0.64,88.44,-18.13,19.96
2026-07-21 03:21:06.803,-0.83,0.01,0.65,75.07,-9.16,29.85
2026-07-21 03:21:06.803,-0.9,0.01,0.69,61.65,-0.49,48.22
2026-07-21 03:21:06.803,-0.9,0.01,0.69,61.65,-0.49,48.22
