Timestamp,AccX,AccY,AccZ,GyroX,GyroY,GyroZ
2026-07-27 12:15:56.154,0.19,1.0,1.2,15.26,-72.75,52.67
2026-07-27 12:15:56.154,0.19,1.0,1.2,15.26,-72.75,52.67
2026-07-27 12:15:56.218,-0.07,0.58,1.03,39.73,-51.94,12.57
2026-07-27 12:15:56.218,-0.07,0.58,1.03,39.73,-51.94,12.57
2026-07-27 12:15:56.218,-0.2,0.37,0.83,54.08,-39.37,-7.63
2026-07-27 12:15:56.270,-0.2,0.37,0.83,64.21,-40.89,-23.62
2026-07-27 12:15:56.270,-0.2,0.4,0.75,64.21,-40.89,-23.62
2026-07-27 12:15:56.330,-0.16,0.48,0.76,46.87,-37.96,-43.33
2026-07-27 12:15:56.330,-0.16,0.48,0.76,46.87,-37.96,-43.33
2026-07-27 12:15:56.330,-0.14,0.55,0.78,9.83,-30.46,-55.42
2026-07-27 12:15:56.393,-0.14,0.55,0.78,9.83,-30.46,-55.42
2026-07-27 12:15:56.393,-0.14,0.59,0.8,-3.6,-26.25,-49.99
2026-07-27 12:15:56.393,-0.14,0.6,0.83,28.56,-20.94,-20.94
2026-07-27 12:15:56.451,-0.14,0.6,0.83,28.56,-20.94,-20.94
2026-07-27 12:15:56.451,-0.1,0.65,0.82,71.53,-14.65,13.49
2026-07-27 12:15:56.515,-0.1,0.65,0.82,71.53,-14.65,13.49
2026-07-27 12:15:56.515,-0.08,0.71,0.75,74.77,-15.93,31.01
2026-07-27 12:15:56.515,-0.08,0.71,0.75,74.77,-15.93,31.01
2026-07-27 12:15:56.586,-0.05,0.76,0.68,48.52,-11.11,41.99
2026-07-27 12:15:56.652,-0.02,0.75,0.61,21.67,33.26,49.93
2026-07-27 12:15:56.652,-0.02,0.75,0.61,21.67,33.26,49.93
2026-07-27 12:15:56.652,-0.04,0.69,0.59,-4.03,103.64,38.21
2026-07-27 12:15:56.691,-0.04,0.69,0.59,-4.03,103.64,38.21
2026-07-27 12:15:56.691,-0.11,0.61,0.65,-24.96,142.94,8.85
2026-07-27 12:15:56.691,-0.11,0.61,0.65,-43.4,126.89,-23.56
2026-07-27 12:15:56.691,-0.21,0.56,0.71,-43.4,126.89,-23.56
2026-07-27 12:15:56.751,-0.3,0.54,0.74,-40.53,76.54,-45.29
2026-07-27 12:15:56.756,-0.3,0.54,0.74,-40.53,76.54,-45.29
2026-07-27 12:15:56.821,-0.33,0.55,0.77,6.77,9.22,-57.19
2026-07-27 12:15:56.821,-0.33,0.55,0.77,6.77,9.22,-57.19
2026-07-27 12:15:56.821,-0.37,0.63,0.78,68.85,-61.16,-78.12
2026-07-27 12:15:56.871,-0.39,0.76,0.72,107.18,-92.65,-95.4
2026-07-27 12:15:56.871,-0.39,0.76,0.72,107.18,-92.65,-95.4
2026-07-27 12:15:56.871,-0.35,0.82,0.63,97.23,-80.08,-67.87
2026-07-27 12:15:56.939,-0.35,0.82,0.63,97.23,-80.08,-67.87
2026-07-27 12:15:56.939,-0.28,0.79,0.61,53.53,-58.04,5.37
2026-07-27 12:15:56.993,-0.28,0.79,0.61,53.53,-58.04,5.37
2026-07-27 12:15:56.993,-0.21,0.76,0.6,12.76,-40.59,69.4
2026-07-27 12:15:56.993,-0.14,0.77,0.6,4.09,-29.11,86.73
2026-07-27 12:15:57.056,-0.14,0.77,0.6,4.09,-29.11,86.73
2026-07-27 12:15:57.056,-0.09,0.77,0.59,14.4,-21.36,71.47
2026-07-27 12:15:57.056,-0.09,0.77,0.59,14.4,-21.36,71.47
2026-07-27 12:15:57.110,-0.07,0.78,0.56,8.73,-13.92,46.87
2026-07-27 12:15:57.115,-0.07,0.78,0.56,3.11,-8.79,36.13
2026-07-27 12:15:57.178,-0.06,0.81,0.55,3.11,-8.79,36.13
2026-07-27 12:15:57.178,-0.03,0.81,0.56,8.97,-5.55,53.1
2026-07-27 12:15:57.178,-0.03,0.81,0.56,8.97,-5.55,53.1
2026-07-27 12:15:57.237,0.05,0.79,0.57,7.69,-7.08,77.15
2026-07-27 12:15:57.237,0.05,0.79,0.57,7.69,-7.08,77.15
2026-07-27 12:15:57.237,0.11,0.78,0.59,-16.36,-16.72,63.11
2026-07-27 12:15:57.295,0.11,0.78,0.59,-16.36,-16.72,63.11
2026-07-27 12:15:57.295,0.05,0.78,0.6,-30.88,-26.67,15.75
2026-07-27 12:15:57.354,0.02,0.8,0.56,26.73,-36.62,-18.55
2026-07-27 12:15:57.354,0.02,0.8,0.56,26.73,-36.62,-18.55
2026-07-27 12:15:57.354,0.09,0.85,0.55,85.33,-37.9,-34.73
2026-07-27 12:15:57.412,0.09,0.85,0.55,85.33,-37.9,-34.73
2026-07-27 12:15:57.412,0.11,0.86,0.63,33.33,-9.83,-52.0
2026-07-27 12:15:57.459,0.02,0.77,0.7,-63.6,34.3,-67.93
2026-07-27 12:15:57.459,0.02,0.77,0.7,-63.6,34.3,-67.93
2026-07-27 12:15:57.475,-0.08,0.72,0.71,-115.42,57.68,-95.52
2026-07-27 12:15:57.530,-0.08,0.72,0.71,-115.42,57.68,-95.52
2026-07-27 12:15:57.530,-0.14,0.75,0.68,-154.3,39.92,-127.38
2026-07-27 12:15:57.530,-0.14,0.75,0.68,-154.3,39.92,-127.38
2026-07-27 12:15:57.586,-0.16,0.64,0.67,-206.79,2.32,-105.83
2026-07-27 12:15:57.586,-0.19,0.42,0.72,-203.25,-17.94,-52.43
2026-07-27 12:15:57.713,-0.19,0.42,0.72,-203.25,-17.94,-52.43
2026-07-27 12:15:57.713,-0.25,0.28,0.84,-106.26,-13.12,-22.4
2026-07-27 12:15:57.713,-0.25,0.28,0.84,-106.26,-13.12,-22.4
2026-07-27 12:15:57.713,-0.27,0.28,0.92,-0.43,0.43,-21.97
2026-07-27 12:15:57.713,-0.27,0.28,0.92,13.31,4.46,-39.37
2026-07-27 12:15:57.713,-0.27,0.29,0.92,13.31,4.46,-39.37
2026-07-27 12:15:57.761,-0.29,0.27,0.91,-38.15,7.08,-55.6
2026-07-27 12:15:57.761,-0.29,0.27,0.91,-38.15,7.08,-55.6
2026-07-27 12:15:57.827,-0.32,0.22,0.95,-98.14,24.66,-71.59
2026-07-27 12:15:57.827,-0.32,0.22,0.95,-98.14,24.66,-71.59
2026-07-27 12:15:57.827,-0.37,0.04,0.96,-212.83,56.15,-94.12
2026-07-27 12:15:57.900,-0.41,-0.2,0.89,-308.72,73.43,-85.88
2026-07-27 12:15:57.900,-0.41,-0.2,0.89,-308.72,73.43,-85.88
2026-07-27 12:15:57.953,-0.36,-0.37,0.79,-292.11,62.56,-50.05
2026-07-27 12:15:58.015,-0.36,-0.37,0.79,-292.11,62.56,-50.05
2026-07-27 12:15:58.015,-0.37,-0.52,0.71,-262.21,71.35,-64.27
2026-07-27 12:15:58.015,-0.37,-0.52,0.71,-239.99,100.59,-97.17
2026-07-27 12:15:58.015,-0.47,-0.64,0.64,-239.99,100.59,-97.17
2026-07-27 12:15:58.067,-0.51,-0.75,0.56,-138.79,72.81,-51.51
2026-07-27 12:15:58.067,-0.51,-0.75,0.56,-138.79,72.81,-51.51
2026-07-27 12:15:58.067,-0.49,-0.78,0.52,24.96,9.03,17.64
2026-07-27 12:15:58.131,-0.49,-0.78,0.52,24.96,9.03,17.64
2026-07-27 12:15:58.131,-0.45,-0.63,0.57,198.24,25.63,15.81
2026-07-27 12:15:58.195,-0.47,-0.41,0.67,332.03,128.17,-45.41
2026-07-27 12:15:58.197,-0.47,-0.41,0.67,332.03,128.17,-45.41
2026-07-27 12:15:58.197,-0.57,-0.33,0.71,308.72,183.53,-109.68
2026-07-27 12:15:58.264,-0.62,-0.35,0.67,161.25,121.4,-90.27
2026-07-27 12:15:58.264,-0.62,-0.35,0.67,161.25,121.4,-90.27
2026-07-27 12:15:58.264,-0.62,-0.29,0.67,63.96,18.37,11.66
2026-07-27 12:15:58.305,-0.62,-0.29,0.67,63.96,18.37,11.66
2026-07-27 12:15:58.305,-0.64,-0.19,0.71,28.26,-34.91,92.16
2026-07-27 12:15:58.377,-0.64,-0.19,0.71,28.26,-34.91,92.16
2026-07-27 12:15:58.377,-0.66,-0.13,0.72,4.88,-28.75,104.06
2026-07-27 12:15:58.377,-0.65,-0.04,0.71,14.4,-4.15,86.49
2026-07-27 12:15:58.443,-0.65,-0.04,0.71,14.4,-4.15,86.49
2026-07-27 12:15:58.443,-0.65,0.05,0.72,29.85,15.01,84.59
2026-07-27 12:15:58.443,-0.65,0.05,0.72,29.85,15.01,84.59
2026-07-27 12:15:58.491,-0.66,0.06,0.77,1.34,18.62,82.82
2026-07-27 12:15:58.491,-0.66,0.06,0.77,1.34,18.62,82.82
2026-07-27 12:15:58.557,-0.66,-0.02,0.78,-50.17,-4.7,54.99
2026-07-27 12:15:58.609,-0.65,-0.08,0.77,-53.28,-38.45,17.21
2026-07-27 12:15:58.609,-0.65,-0.08,0.77,-53.28,-38.45,17.21
2026-07-27 12:15:58.609,-0.65,-0.07,0.78,13.55,-50.6,-4.27
2026-07-27 12:15:58.609,-0.65,-0.07,0.78,13.55,-50.6,-4.27
2026-07-27 12:15:58.609,-0.62,-0.02,0.8,73.61,-36.19,-15.5
2026-07-27 12:15:58.672,-0.62,-0.02,0.8,59.39,-12.57,-34.12
2026-07-27 12:15:58.672,-0.57,0.01,0.78,59.39,-12.57,-34.12
2026-07-27 12:15:58.727,-0.56,-0.02,0.76,13.24,2.01,-45.23
2026-07-27 12:15:58.727,-0.56,-0.02,0.76,13.24,2.01,-45.23
2026-07-27 12:15:58.727,-0.57,-0.07,0.78,9.4,4.15,-26.0
2026-07-27 12:15:58.847,-0.57,-0.07,0.78,9.4,4.15,-26.0
2026-07-27 12:15:58.855,-0.59,-0.05,0.79,31.49,0.79,8.61
2026-07-27 12:15:58.855,-0.58,0.01,0.76,30.33,-2.32,29.17
2026-07-27 12:15:58.855,-0.58,0.01,0.76,30.33,-2.32,29.17
2026-07-27 12:15:58.855,-0.58,0.03,0.75,15.56,-4.94,25.09
2026-07-27 12:15:58.978,-0.58,0.03,0.75,15.56,-4.94,25.09
2026-07-27 12:15:58.978,-0.58,0.05,0.76,31.86,-7.26,13.67
2026-07-27 12:15:58.978,-0.58,0.05,0.76,31.86,-7.26,13.67
2026-07-27 12:15:58.978,-0.59,0.13,0.77,79.65,-6.35,13.85
2026-07-27 12:15:58.978,-0.59,0.13,0.77,110.47,-3.3,21.24
2026-07-27 12:15:58.978,-0.59,0.23,0.77,110.47,-3.3,21.24
2026-07-27 12:15:59.028,-0.6,0.3,0.8,97.11,0.55,23.38
2026-07-27 12:15:59.028,-0.6,0.3,0.8,97.11,0.55,23.38
2026-07-27 12:15:59.085,-0.61,0.33,0.81,59.75,10.56,19.9
2026-07-27 12:15:59.085,-0.61,0.33,0.81,59.75,10.56,19.9
2026-07-27 12:15:59.085,-0.58,0.33,0.75,24.41,23.44,15.44
2026-07-27 12:15:59.153,-0.56,0.3,0.68,-5.86,24.78,9.7
2026-07-27 12:15:59.153,-0.56,0.3,0.68,-5.86,24.78,9.7
2026-07-27 12:15:59.223,-0.59,0.3,0.69,-20.26,15.26,7.14
2026-07-27 12:15:59.223,-0.59,0.3,0.69,-20.26,15.26,7.14
2026-07-27 12:15:59.223,-0.61,0.33,0.71,-6.29,9.16,11.78
2026-07-27 12:15:59.258,-0.61,0.33,0.71,-6.29,9.16,11.78
2026-07-27 12:15:59.274,-0.61,0.35,0.72,11.17,8.12,15.62
2026-07-27 12:15:59.274,-0.61,0.34,0.71,6.84,4.64,10.86
2026-07-27 12:15:59.333,-0.61,0.34,0.71,6.84,4.64,10.86
2026-07-27 12:15:59.387,-0.61,0.34,0.73,-3.36,2.14,2.87
2026-07-27 12:15:59.387,-0.61,0.34,0.73,-3.36,2.14,2.87
2026-07-27 12:15:59.387,-0.63,0.36,0.75,0.18,4.58,0.49
2026-07-27 12:15:59.387,-0.63,0.36,0.75,0.18,4.58,0.49
2026-07-27 12:15:59.450,-0.63,0.37,0.73,6.9,9.4,0.55
2026-07-27 12:15:59.456,-0.63,0.37,0.73,7.87,13.0,-1.22
2026-07-27 12:15:59.456,-0.63,0.38,0.69,7.87,13.0,-1.22
2026-07-27 12:15:59.513,-0.63,0.38,0.66,9.7,15.5,-1.89
2026-07-27 12:15:59.513,-0.63,0.38,0.66,9.7,15.5,-1.89
2026-07-27 12:15:59.564,-0.63,0.36,0.63,10.44,17.52,-3.36
2026-07-27 12:15:59.564,-0.63,0.36,0.63,10.44,17.52,-3.36
2026-07-27 12:15:59.564,-0.63,0.33,0.6,6.71,16.11,-7.2
2026-07-27 12:15:59.627,-0.63,0.33,0.6,6.71,16.11,-7.2
2026-07-27 12:15:59.641,-0.65,0.31,0.62,4.03,13.37,-8.36
2026-07-27 12:15:59.641,-0.67,0.32,0.65,1.77,14.53,-4.21
2026-07-27 12:15:59.688,-0.67,0.32,0.65,1.77,14.53,-4.21
2026-07-27 12:15:59.688,-0.69,0.35,0.67,-2.56,20.26,4.21
2026-07-27 12:15:59.688,-0.69,0.35,0.67,-2.56,20.26,4.21
2026-07-27 12:15:59.756,-0.71,0.39,0.67,4.64,23.38,19.17
2026-07-27 12:15:59.756,-0.71,0.39,0.67,4.64,23.38,19.17
2026-07-27 12:15:59.815,-0.7,0.42,0.64,28.93,21.0,35.52
2026-07-27 12:15:59.831,-0.67,0.45,0.57,49.5,19.59,40.89
2026-07-27 12:15:59.831,-0.67,0.45,0.57,49.5,19.59,40.89
2026-07-27 12:15:59.862,-0.64,0.46,0.51,54.44,20.32,37.6
2026-07-27 12:15:59.862,-0.64,0.46,0.51,54.44,20.32,37.6
2026-07-27 12:15:59.928,-0.63,0.48,0.48,52.0,22.52,36.56
2026-07-27 12:15:59.928,-0.63,0.48,0.48,40.34,30.88,43.82
2026-07-27 12:15:59.928,-0.63,0.57,0.47,40.34,30.88,43.82
2026-07-27 12:15:59.989,-0.65,0.62,0.47,12.7,55.24,64.27
2026-07-27 12:15:59.989,-0.65,0.62,0.47,12.7,55.24,64.27
2026-07-27 12:15:59.989,-0.68,0.57,0.47,-22.77,76.35,66.22
2026-07-27 12:16:00.053,-0.68,0.57,0.47,-22.77,76.35,66.22
2026-07-27 12:16:00.053,-0.69,0.54,0.47,-61.77,60.12,20.75
2026-07-27 12:16:00.117,-0.68,0.52,0.48,-91.43,31.62,-19.84
2026-07-27 12:16:00.117,-0.68,0.52,0.48,-91.43,31.62,-19.84
2026-07-27 12:16:00.128,-0.7,0.48,0.52,-116.82,23.19,-3.85
2026-07-27 12:16:00.165,-0.7,0.48,0.52,-116.82,23.19,-3.85
2026-07-27 12:16:00.165,-0.73,0.38,0.55,-174.26,28.38,22.83
2026-07-27 12:16:00.245,-0.67,0.27,0.55,-216.67,34.0,4.21
2026-07-27 12:16:00.245,-0.67,0.27,0.55,-216.67,34.0,4.21
2026-07-27 12:16:00.302,-0.58,0.15,0.64,-199.46,29.05,-58.9
2026-07-27 12:16:00.302,-0.58,0.15,0.64,-199.46,29.05,-58.9
2026-07-27 12:16:00.302,-0.65,0.06,0.69,-173.28,14.53,-139.22
2026-07-27 12:16:00.302,-0.65,0.06,0.69,-169.25,-34.85,-186.4
2026-07-27 12:16:00.349,-0.75,-0.07,0.64,-169.25,-34.85,-186.4
2026-07-27 12:16:00.349,-0.66,-0.27,0.62,-177.06,-126.28,-164.7
2026-07-27 12:16:00.409,-0.66,-0.27,0.62,-177.06,-126.28,-164.7
2026-07-27 12:16:00.409,-0.57,-0.39,0.69,-161.13,-189.03,-91.49
2026-07-27 12:16:00.409,-0.57,-0.39,0.69,-161.13,-189.03,-91.49
2026-07-27 12:16:00.473,-0.55,-0.43,0.76,-95.46,-169.31,-19.23
2026-07-27 12:16:00.528,-0.49,-0.41,0.75,-10.8,-98.63,22.64
2026-07-27 12:16:00.528,-0.49,-0.41,0.75,-10.8,-98.63,22.64
2026-07-27 12:16:00.528,-0.42,-0.33,0.71,38.09,-45.9,39.43
2026-07-27 12:16:00.528,-0.42,-0.33,0.71,38.09,-45.9,39.43
2026-07-27 12:16:00.594,-0.34,-0.24,0.75,40.77,-44.25,42.3
2026-07-27 12:16:00.594,-0.28,-0.17,0.84,22.71,-65.55,33.45
2026-07-27 12:16:00.594,-0.28,-0.17,0.84,22.71,-65.55,33.45
2026-07-27 12:16:00.648,-0.22,-0.18,0.94,14.59,-63.66,16.11
2026-07-27 12:16:00.648,-0.22,-0.18,0.94,14.59,-63.66,16.11
2026-07-27 12:16:00.713,-0.19,-0.19,1.0,19.23,-40.77,9.22
2026-07-27 12:16:00.744,-0.19,-0.19,1.0,19.23,-40.77,9.22
2026-07-27 12:16:00.744,-0.22,-0.18,1.02,7.32,-23.8,10.25
2026-07-27 12:16:00.774,-0.26,-0.24,1.06,-9.83,-5.25,-4.27
2026-07-27 12:16:00.774,-0.26,-0.24,1.06,-9.83,-5.25,-4.27
2026-07-27 12:16:00.827,-0.31,-0.32,1.07,-9.77,28.44,-31.56
2026-07-27 12:16:00.827,-0.31,-0.32,1.07,-9.77,28.44,-31.56
2026-07-27 12:16:00.827,-0.29,-0.39,1.02,14.47,76.23,-54.38
2026-07-27 12:16:00.896,-0.29,-0.39,1.02,14.47,76.23,-54.38
2026-07-27 12:16:00.896,-0.21,-0.48,0.94,59.69,121.89,-73.73
2026-07-27 12:16:00.896,-0.17,-0.59,0.95,49.93,120.61,-97.72
2026-07-27 12:16:00.949,-0.17,-0.59,0.95,49.93,120.61,-97.72
2026-07-27 12:16:00.949,-0.13,-0.74,0.99,-38.7,87.65,-85.94
2026-07-27 12:16:01.013,-0.13,-0.74,0.99,-38.7,87.65,-85.94
2026-07-27 12:16:01.013,-0.16,-0.87,0.84,-118.16,70.56,-23.32
2026-07-27 12:16:01.013,-0.16,-0.87,0.84,-146.18,72.08,8.12
2026-07-27 12:16:01.060,-0.33,-0.89,0.64,-146.18,72.08,8.12
2026-07-27 12:16:01.060,-0.41,-0.85,0.51,-155.03,52.49,-40.41
2026-07-27 12:16:01.060,-0.41,-0.85,0.51,-155.03,52.49,-40.41
2026-07-27 12:16:01.133,-0.39,-0.9,0.39,-174.32,13.73,-131.65
2026-07-27 12:16:01.133,-0.39,-0.9,0.39,-174.32,13.73,-131.65
2026-07-27 12:16:01.186,-0.27,-0.96,0.22,-200.07,-3.11,-228.58
2026-07-27 12:16:01.186,-0.0,-0.94,0.0,-221.25,-42.66,-325.5
2026-07-27 12:16:01.186,-0.0,-0.94,0.0,-221.25,-42.66,-325.5
2026-07-27 12:16:01.249,0.32,-0.95,-0.12,-212.71,-156.68,-377.1
2026-07-27 12:16:01.249,0.32,-0.95,-0.12,-212.71,-156.68,-377.1
2026-07-27 12:16:01.313,0.52,-1.03,-0.12,-186.1,-291.14,-367.8
2026-07-27 12:16:01.314,0.52,-1.09,-0.0,-153.93,-351.99,-343.2
2026-07-27 12:16:01.314,0.52,-1.09,-0.0,-153.93,-351.99,-343.2
2026-07-27 12:16:01.438,0.38,-1.08,0.07,-102.78,-320.25,-280.58
2026-07-27 12:16:01.438,0.38,-1.08,0.07,-102.78,-320.25,-280.58
2026-07-27 12:16:01.438,0.26,-0.98,0.0,-62.56,-230.9,-146.91
2026-07-27 12:16:01.438,0.29,-0.85,-0.03,-31.92,-125.06,2.38
2026-07-27 12:16:01.442,0.29,-0.85,-0.03,-31.92,-125.06,2.38
2026-07-27 12:16:01.494,0.45,-0.72,-0.0,23.5,-19.35,88.38
2026-07-27 12:16:01.494,0.45,-0.72,-0.0,23.5,-19.35,88.38
2026-07-27 12:16:01.494,0.59,-0.6,-0.25,86.85,71.23,87.65
2026-07-27 12:16:01.548,0.59,-0.6,-0.25,86.85,71.23,87.65
2026-07-27 12:16:01.548,0.58,-0.6,-0.54,106.38,98.14,36.07
2026-07-27 12:16:01.611,0.55,-0.73,-0.5,54.5,66.71,-6.65
2026-07-27 12:16:01.611,0.55,-0.73,-0.5,54.5,66.71,-6.65
2026-07-27 12:16:01.611,0.57,-0.77,-0.53,-19.41,46.2,9.03
2026-07-27 12:16:01.661,0.57,-0.77,-0.53,-19.41,46.2,9.03
2026-07-27 12:16:01.661,0.61,-0.82,-0.66,-70.31,58.65,61.46
2026-07-27 12:16:01.661,0.61,-0.82,-0.66,-70.31,58.65,61.46
2026-07-27 12:16:01.727,0.62,-0.88,-0.57,-125.79,96.56,86.43
2026-07-27 12:16:01.727,0.59,-0.74,-0.53,-192.26,163.82,97.84
2026-07-27 12:16:01.802,0.59,-0.74,-0.53,-192.26,163.82,97.84
2026-07-27 12:16:01.802,0.56,-0.58,-0.61,-262.76,212.4,123.47
2026-07-27 12:16:01.802,0.56,-0.58,-0.61,-262.76,212.4,123.47
2026-07-27 12:16:01.850,0.48,-0.59,-0.61,-307.74,179.93,138.24
2026-07-27 12:16:01.850,0.43,-0.59,-0.53,-246.15,99.49,144.47
2026-07-27 12:16:01.913,0.43,-0.59,-0.53,-246.15,99.49,144.47
2026-07-27 12:16:01.913,0.44,-0.6,-0.52,-90.7,58.65,162.05
2026-07-27 12:16:01.913,0.44,-0.6,-0.52,-90.7,58.65,162.05
2026-07-27 12:16:01.962,0.42,-0.66,-0.6,34.12,53.41,167.24
2026-07-27 12:16:01.962,0.4,-0.67,-0.58,48.46,31.37,153.2
2026-07-27 12:16:02.035,0.4,-0.67,-0.58,48.46,31.37,153.2
2026-07-27 12:16:02.035,0.35,-0.64,-0.48,61.1,29.54,163.7
2026-07-27 12:16:02.035,0.35,-0.64,-0.48,61.1,29.54,163.7
2026-07-27 12:16:02.088,0.13,-0.75,-0.4,198.67,73.0,281.56
2026-07-27 12:16:02.128,0.13,-0.75,-0.4,305.85,91.98,416.5
2026-07-27 12:16:02.128,-0.15,-0.89,-0.23,305.85,91.98,416.5
2026-07-27 12:16:02.154,-0.29,-0.9,-0.1,200.99,31.62,353.27
2026-07-27 12:16:02.154,-0.29,-0.9,-0.1,200.99,31.62,353.27
2026-07-27 12:16:02.219,-0.35,-0.87,-0.1,-7.39,-103.03,172.24
2026-07-27 12:16:02.219,-0.49,-0.85,-0.05,-130.8,-246.22,58.04
2026-07-27 12:16:02.219,-0.49,-0.85,-0.05,-130.8,-246.22,58.04
2026-07-27 12:16:02.328,-0.61,-0.82,0.0,-139.83,-296.57,26.73
2026-07-27 12:16:02.328,-0.61,-0.82,0.0,-139.83,-296.57,26.73
2026-07-27 12:16:02.328,-0.61,-0.85,0.01,-111.08,-242.37,8.24
2026-07-27 12:16:02.328,-0.53,-0.91,-0.03,-75.68,-151.37,-32.23
2026-07-27 12:16:02.328,-0.53,-0.91,-0.03,-75.68,-151.37,-32.23
2026-07-27 12:16:02.406,-0.41,-0.88,-0.04,-30.03,-76.84,-61.71
2026-07-27 12:16:02.453,-0.41,-0.88,-0.04,-30.03,-76.84,-61.71
2026-07-27 12:16:02.453,-0.39,-0.86,-0.03,7.63,-44.92,-75.87
2026-07-27 12:16:02.453,-0.39,-0.86,-0.03,7.63,-44.92,-75.87
2026-07-27 12:16:02.453,-0.39,-0.86,-0.03,7.63,-44.92,-75.87
2026-07-27 12:16:02.501,-0.39,-0.86,-0.03,7.63,-44.92,-75.87
2026-07-27 12:16:02.501,-0.35,-0.98,0.01,16.66,-71.96,-70.98
2026-07-27 12:16:02.501,-0.23,-0.91,0.04,-21.79,-91.0,-73.12
2026-07-27 12:16:02.580,-0.23,-0.91,0.04,-21.79,-91.0,-73.12
2026-07-27 12:16:02.590,-0.13,-0.88,0.03,-40.65,-90.39,-102.29
2026-07-27 12:16:02.590,-0.13,-0.88,0.03,-40.65,-90.39,-102.29
2026-07-27 12:16:02.628,-0.07,-0.98,0.0,-29.6,-81.97,-132.63
2026-07-27 12:16:02.628,-0.07,-0.98,0.0,-29.6,-81.97,-132.63
2026-07-27 12:16:02.691,-0.02,-1.06,0.0,-7.51,-79.47,-122.25
2026-07-27 12:16:02.691,0.06,-1.07,0.06,16.3,-72.2,-74.22
2026-07-27 12:16:02.691,0.06,-1.07,0.06,16.3,-72.2,-74.22
2026-07-27 12:16:02.755,0.17,-1.05,0.13,40.47,-44.49,-22.16
2026-07-27 12:16:02.755,0.17,-1.05,0.13,40.47,-44.49,-22.16
2026-07-27 12:16:02.803,0.18,-1.02,0.17,67.2,-1.71,10.93
2026-07-27 12:16:02.803,0.18,-1.02,0.17,89.9,16.72,12.7
2026-07-27 12:16:02.803,0.1,-0.99,0.19,89.9,16.72,12.7
2026-07-27 12:16:02.866,0.06,-1.04,0.21,88.07,-7.87,-6.29
2026-07-27 12:16:02.866,0.06,-1.04,0.21,88.07,-7.87,-6.29
2026-07-27 12:16:02.866,0.08,-1.06,0.26,57.13,-40.1,-15.62
2026-07-27 12:16:02.940,0.08,-1.06,0.26,57.13,-40.1,-15.62
2026-07-27 12:16:02.940,0.06,-1.02,0.32,25.94,-44.31,-6.53
2026-07-27 12:16:02.993,-0.0,-0.89,0.29,4.09,-10.8,-5.62
2026-07-27 12:16:02.993,-0.0,-0.89,0.29,4.09,-10.8,-5.62
2026-07-27 12:16:02.993,0.0,-0.8,0.1,-92.65,38.27,-28.69
2026-07-27 12:16:03.050,0.0,-0.8,0.1,-92.65,38.27,-28.69
2026-07-27 12:16:03.050,0.1,-0.81,-0.15,-243.23,86.18,-60.85
2026-07-27 12:16:03.050,0.1,-0.81,-0.15,-243.23,86.18,-60.85
2026-07-27 12:16:03.123,0.22,-0.86,-0.33,-263.43,145.87,-128.97
2026-07-27 12:16:03.123,0.32,-1.01,-0.43,-158.75,169.37,-208.19
2026-07-27 12:16:03.167,0.32,-1.01,-0.43,-158.75,169.37,-208.19
2026-07-27 12:16:03.167,0.4,-1.04,-0.38,-55.6,107.24,-175.96
2026-07-27 12:16:03.233,0.4,-1.04,-0.38,-55.6,107.24,-175.96
2026-07-27 12:16:03.233,0.47,-0.89,-0.25,20.32,26.18,-70.37
2026-07-27 12:16:03.233,0.62,-0.75,-0.18,100.1,-7.81,-9.34
2026-07-27 12:16:03.309,0.62,-0.75,-0.18,100.1,-7.81,-9.34
2026-07-27 12:16:03.309,0.78,-0.63,-0.03,169.49,-10.99,4.39
2026-07-27 12:16:03.309,0.78,-0.63,-0.03,169.49,-10.99,4.39
2026-07-27 12:16:03.344,0.68,-0.44,0.12,192.99,0.67,0.12
2026-07-27 12:16:03.354,0.68,-0.44,0.12,192.99,0.67,0.12
2026-07-27 12:16:03.354,0.38,-0.61,0.16,164.31,26.55,1.4
2026-07-27 12:16:03.414,0.42,-1.44,0.1,103.39,35.83,4.03
2026-07-27 12:16:03.485,0.42,-1.44,0.1,103.39,35.83,4.03
2026-07-27 12:16:03.485,0.83,-1.64,0.16,67.63,-15.44,6.29
2026-07-27 12:16:03.485,0.83,-1.64,0.16,67.63,-15.44,6.29
2026-07-27 12:16:03.485,0.94,-0.93,0.38,43.03,-71.84,12.63
2026-07-27 12:16:03.534,0.94,-0.93,0.38,43.03,-71.84,12.63
2026-07-27 12:16:03.534,0.57,-0.36,0.41,3.85,-48.77,5.92
2026-07-27 12:16:03.590,0.2,-0.19,0.28,-28.93,25.21,-15.87
2026-07-27 12:16:03.590,0.2,-0.19,0.28,-28.93,25.21,-15.87
2026-07-27 12:16:03.590,0.16,-0.27,0.2,-50.35,58.78,-82.4
2026-07-27 12:16:03.647,0.16,-0.27,0.2,-50.35,58.78,-82.4
2026-07-27 12:16:03.647,0.48,-0.4,0.17,-49.93,21.36,-250.49
2026-07-27 12:16:03.647,0.48,-0.4,0.17,-13.43,-16.48,-409.06
2026-07-27 12:16:03.707,0.93,-0.44,0.05,-13.43,-16.48,-409.06
2026-07-27 12:16:03.707,1.18,-0.38,-0.21,-13.79,-8.61,-376.28
2026-07-27 12:16:03.707,1.18,-0.38,-0.21,-13.79,-8.61,-376.28
2026-07-27 12:16:03.771,1.27,-0.27,-0.11,-63.29,9.46,-199.77
2026-07-27 12:16:03.771,1.27,-0.27,-0.11,-63.29,9.46,-199.77
2026-07-27 12:16:03.835,1.19,-0.19,0.34,-48.89,5.8,-39.61
2026-07-27 12:16:03.851,0.86,-0.07,0.61,41.87,-11.29,12.76
2026-07-27 12:16:03.851,0.86,-0.07,0.61,41.87,-11.29,12.76
2026-07-27 12:16:03.901,0.7,0.17,0.7,111.21,3.78,-38.45
2026-07-27 12:16:03.901,0.7,0.17,0.7,111.21,3.78,-38.45
2026-07-27 12:16:03.945,1.11,0.64,0.53,162.54,74.95,-132.57
2026-07-27 12:16:03.945,1.11,0.64,0.53,162.54,74.95,-132.57
2026-07-27 12:16:03.945,1.37,0.8,0.4,202.82,93.38,-133.79
2026-07-27 12:16:04.026,1.2,0.54,0.52,114.87,48.95,-14.77
2026-07-27 12:16:04.026,1.2,0.54,0.52,114.87,48.95,-14.77
2026-07-27 12:16:04.073,1.02,0.41,0.44,-34.85,33.45,69.09
2026-07-27 12:16:04.073,1.02,0.41,0.44,-34.85,33.45,69.09
2026-07-27 12:16:04.073,0.84,0.32,0.28,-119.2,38.94,68.6
2026-07-27 12:16:04.128,0.84,0.32,0.28,-167.36,41.75,55.48
2026-07-27 12:16:04.137,0.74,0.18,0.37,-167.36,41.75,55.48
2026-07-27 12:16:04.137,0.77,-0.03,0.47,-208.13,30.82,77.88
2026-07-27 12:16:04.199,0.77,-0.03,0.47,-208.13,30.82,77.88
2026-07-27 12:16:04.199,0.8,-0.2,0.4,-206.24,23.25,105.65
2026-07-27 12:16:04.247,0.72,-0.29,0.34,-156.8,36.68,100.71
2026-07-27 12:16:04.247,0.72,-0.29,0.34,-156.8,36.68,100.71
2026-07-27 12:16:04.247,0.57,-0.32,0.29,-111.08,48.4,68.24
2026-07-27 12:16:04.311,0.57,-0.32,0.29,-111.08,48.4,68.24
2026-07-27 12:16:04.374,0.44,-0.32,0.24,-82.58,38.7,26.06
2026-07-27 12:16:04.374,0.46,-0.37,0.23,-78.49,1.16,-9.83
2026-07-27 12:16:04.374,0.46,-0.37,0.23,-78.49,1.16,-9.83
2026-07-27 12:16:04.378,0.61,-0.43,0.29,-88.2,-48.22,-37.66
2026-07-27 12:16:04.427,0.61,-0.43,0.29,-88.2,-48.22,-37.66
2026-07-27 12:16:04.427,0.76,-0.42,0.29,-66.04,-71.84,-66.16
2026-07-27 12:16:04.427,0.76,-0.42,0.29,-66.04,-71.84,-66.16
2026-07-27 12:16:04.485,0.86,-0.35,0.23,-18.62,-74.58,-88.87
2026-07-27 12:16:04.485,0.94,-0.32,0.19,26.31,-74.77,-99.37
2026-07-27 12:16:04.549,0.94,-0.32,0.19,26.31,-74.77,-99.37
2026-07-27 12:16:04.549,1.01,-0.25,0.24,60.55,-69.95,-100.22
2026-07-27 12:16:04.549,1.01,-0.25,0.24,60.55,-69.95,-100.22
2026-07-27 12:16:04.613,1.06,-0.04,0.27,74.65,-56.15,-89.9
2026-07-27 12:16:04.613,1.06,0.14,0.21,69.64,-40.41,-69.76
2026-07-27 12:16:04.677,1.06,0.14,0.21,69.64,-40.41,-69.76
2026-07-27 12:16:04.677,1.07,0.14,0.14,40.83,-38.15,-52.49
2026-07-27 12:16:04.678,1.07,0.14,0.14,40.83,-38.15,-52.49
2026-07-27 12:16:04.727,1.12,-0.02,0.1,-2.14,-42.11,-45.72
2026-07-27 12:16:04.727,1.12,-0.02,0.1,-2.14,-42.11,-45.72
2026-07-27 12:16:04.727,1.12,-0.12,0.07,-23.68,-33.57,-41.93
2026-07-27 12:16:04.804,1.03,-0.08,0.08,-9.22,-11.41,-34.79
2026-07-27 12:16:04.804,1.03,-0.08,0.08,-9.22,-11.41,-34.79
2026-07-27 12:16:04.869,0.89,0.01,0.11,10.93,10.31,-25.7
2026-07-27 12:16:04.869,0.89,0.01,0.11,10.93,10.31,-25.7
2026-07-27 12:16:04.916,0.81,0.07,0.12,5.68,18.01,-15.93
2026-07-27 12:16:04.916,0.81,0.07,0.12,5.68,18.01,-15.93
2026-07-27 12:16:04.916,0.92,0.05,0.09,-8.73,11.23,-8.61
2026-07-27 12:16:04.970,1.07,-0.04,0.09,-5.86,4.46,1.89
2026-07-27 12:16:04.970,1.07,-0.04,0.09,-5.86,4.46,1.89
2026-07-27 12:16:04.970,0.99,-0.07,0.15,-2.32,7.63,25.88
2026-07-27 12:16:05.028,0.99,-0.07,0.15,-2.32,7.63,25.88
2026-07-27 12:16:05.028,0.84,-0.05,0.15,-9.64,10.68,45.17
2026-07-27 12:16:05.028,0.84,-0.05,0.15,-9.64,10.68,45.17
2026-07-27 12:16:05.091,0.88,-0.07,0.07,-4.94,-0.92,48.22
2026-07-27 12:16:05.091,0.88,-0.07,0.07,-4.94,-0.92,48.22
2026-07-27 12:16:05.154,0.88,-0.07,0.07,-4.94,-0.92,48.22
2026-07-27 12:16:05.154,0.88,-0.07,0.07,-4.94,-0.92,48.22
2026-07-27 12:16:05.154,0.98,-0.1,0.11,18.86,-16.85,53.96
2026-07-27 12:16:05.154,1.03,-0.09,0.1,20.87,-9.46,52.98
2026-07-27 12:16:05.202,1.03,-0.09,0.1,20.87,-9.46,52.98
2026-07-27 12:16:05.202,1.07,-0.08,0.11,19.71,-2.14,49.38
2026-07-27 12:16:05.202,1.07,-0.08,0.11,19.71,-2.14,49.38
2026-07-27 12:16:05.270,1.08,-0.13,0.12,15.99,2.69,41.44
2026-07-27 12:16:05.270,1.08,-0.13,0.12,15.99,2.69,41.44
2026-07-27 12:16:05.330,1.09,-0.18,0.11,14.04,6.53,31.43
2026-07-27 12:16:05.330,1.09,-0.18,0.11,13.31,10.31,22.58
2026-07-27 12:16:05.330,1.06,-0.2,0.09,13.31,10.31,22.58
2026-07-27 12:16:05.388,1.02,-0.23,0.09,12.88,10.07,15.32
2026-07-27 12:16:05.388,1.02,-0.23,0.09,12.88,10.07,15.32
2026-07-27 12:16:05.452,1.06,-0.27,0.09,9.34,5.0,10.5
2026-07-27 12:16:05.452,1.06,-0.27,0.09,9.34,5.0,10.5
2026-07-27 12:16:05.452,1.12,-0.28,0.08,2.69,-2.99,6.9
2026-07-27 12:16:05.520,1.12,-0.28,0.08,-2.14,-11.66,0.55
2026-07-27 12:16:05.520,1.14,-0.26,0.09,-2.14,-11.66,0.55
2026-07-27 12:16:05.520,1.12,-0.25,0.1,-3.85,-16.48,-9.28
2026-07-27 12:16:05.571,1.12,-0.25,0.1,-3.85,-16.48,-9.28
2026-07-27 12:16:05.571,1.08,-0.24,0.1,-2.99,-13.98,-20.02
2026-07-27 12:16:05.571,1.08,-0.24,0.1,-2.99,-13.98,-20.02
2026-07-27 12:16:05.647,1.04,-0.21,0.09,-1.46,-5.68,-30.21
2026-07-27 12:16:05.647,1.04,-0.21,0.09,-1.46,-5.68,-30.21
2026-07-27 12:16:05.695,1.01,-0.19,0.07,-1.71,-0.06,-37.66
2026-07-27 12:16:05.695,1.0,-0.16,0.04,-1.28,-1.89,-40.59
2026-07-27 12:16:05.695,1.0,-0.16,0.04,-1.28,-1.89,-40.59
2026-07-27 12:16:05.752,0.98,-0.11,0.01,0.43,-7.81,-39.61
2026-07-27 12:16:05.752,0.98,-0.11,0.01,0.43,-7.81,-39.61
2026-07-27 12:16:05.752,0.94,-0.06,0.02,-3.17,-15.75,-35.46
2026-07-27 12:16:05.805,0.94,-0.06,0.02,-3.17,-15.75,-35.46
2026-07-27 12:16:05.805,0.92,-0.05,0.02,-15.62,-22.46,-28.63
2026-07-27 12:16:05.889,0.93,-0.05,-0.0,-26.43,-21.85,-24.41
2026-07-27 12:16:05.889,0.93,-0.05,-0.0,-26.43,-21.85,-24.41
2026-07-27 12:16:05.889,0.94,-0.01,-0.01,-28.32,-13.06,-27.4
2026-07-27 12:16:05.934,0.94,-0.01,-0.01,-28.32,-13.06,-27.4
2026-07-27 12:16:05.934,0.95,0.05,0.01,-27.77,-3.66,-30.76
2026-07-27 12:16:05.934,0.95,0.05,0.01,-27.77,-3.66,-30.76
2026-07-27 12:16:05.998,0.94,0.08,0.02,-27.83,0.0,-28.02
2026-07-27 12:16:05.998,0.9,0.08,0.05,-27.1,-0.61,-23.56
2026-07-27 12:16:06.044,0.9,0.08,0.05,-27.1,-0.61,-23.56
2026-07-27 12:16:06.044,0.87,0.08,0.07,-30.21,-4.39,-19.84
2026-07-27 12:16:06.044,0.87,0.08,0.07,-30.21,-4.39,-19.84
2026-07-27 12:16:06.115,0.91,0.09,0.06,-36.07,-9.95,-15.87
2026-07-27 12:16:06.115,1.02,0.14,0.06,-36.99,-12.76,-12.57
2026-07-27 12:16:06.172,1.02,0.14,0.06,-36.99,-12.76,-12.57
2026-07-27 12:16:06.172,1.06,0.15,0.05,-36.56,-8.18,-11.17
2026-07-27 12:16:06.172,1.06,0.15,0.05,-36.56,-8.18,-11.17
2026-07-27 12:16:06.232,0.99,0.08,0.06,-39.79,4.52,-12.82
2026-07-27 12:16:06.283,0.93,0.01,0.06,-41.14,16.54,-17.52
2026-07-27 12:16:06.294,0.93,0.01,0.06,-41.14,16.54,-17.52
2026-07-27 12:16:06.294,0.93,0.02,0.08,-31.19,21.24,-23.19
2026-07-27 12:16:06.294,0.93,0.02,0.08,-31.19,21.24,-23.19
2026-07-27 12:16:06.347,0.95,0.11,0.11,-11.54,22.16,-26.92
2026-07-27 12:16:06.347,0.95,0.11,0.11,-11.54,22.16,-26.92
2026-07-27 12:16:06.347,0.96,0.18,0.13,2.87,25.09,-27.77
2026-07-27 12:16:06.410,0.98,0.23,0.15,3.66,28.75,-27.59
2026-07-27 12:16:06.410,0.98,0.23,0.15,3.66,28.75,-27.59
2026-07-27 12:16:06.475,0.98,0.25,0.16,3.97,27.16,-27.22
2026-07-27 12:16:06.478,0.98,0.25,0.16,3.97,27.16,-27.22
2026-07-27 12:16:06.478,0.91,0.23,0.15,17.15,20.69,-26.18
2026-07-27 12:16:06.533,0.91,0.23,0.15,17.15,20.69,-26.18
2026-07-27 12:16:06.533,0.88,0.22,0.13,30.58,11.11,-23.74
2026-07-27 12:16:06.586,1.0,0.24,0.11,34.12,-4.7,-19.9
2026-07-27 12:16:06.586,1.0,0.24,0.11,34.12,-4.7,-19.9
2026-07-27 12:16:06.596,1.1,0.23,0.08,32.23,-22.16,-14.22
2026-07-27 12:16:06.651,1.1,0.23,0.08,32.23,-22.16,-14.22
2026-07-27 12:16:06.666,1.04,0.2,0.02,21.12,-31.86,-3.91
2026-07-27 12:16:06.666,1.04,0.2,0.02,21.12,-31.86,-3.91
2026-07-27 12:16:06.713,0.95,0.22,-0.01,7.81,-34.55,9.16
2026-07-27 12:16:06.713,0.91,0.31,-0.04,16.6,-30.21,15.01
2026-07-27 12:16:06.713,0.91,0.31,-0.04,16.6,-30.21,15.01
2026-07-27 12:16:06.774,0.89,0.36,-0.11,39.86,-19.59,10.86
2026-07-27 12:16:06.774,0.89,0.36,-0.11,39.86,-19.59,10.86
2026-07-27 12:16:06.841,0.89,0.35,-0.16,38.21,-12.08,7.57
2026-07-27 12:16:06.841,0.89,0.35,-0.16,38.21,-12.08,7.57
2026-07-27 12:16:06.841,0.92,0.35,-0.15,12.7,-15.75,10.5
2026-07-27 12:16:06.905,0.95,0.35,-0.12,-10.74,-25.09,14.04
2026-07-27 12:16:06.905,0.95,0.35,-0.12,-10.74,-25.09,14.04
2026-07-27 12:16:06.952,0.97,0.27,-0.13,-29.36,-26.55,14.53
2026-07-27 12:16:06.952,0.97,0.27,-0.13,-29.36,-26.55,14.53
2026-07-27 12:16:06.952,0.98,0.17,-0.16,-44.01,-23.13,13.12
2026-07-27 12:16:07.000,0.98,0.17,-0.16,-53.16,-24.9,12.63
2026-07-27 12:16:07.000,0.98,0.12,-0.16,-53.16,-24.9,12.63
2026-07-27 12:16:07.016,0.98,0.15,-0.16,-61.1,-33.08,14.47
2026-07-27 12:16:07.064,0.98,0.15,-0.16,-61.1,-33.08,14.47
2026-07-27 12:16:07.064,0.97,0.18,-0.16,-67.5,-39.12,15.32
2026-07-27 12:16:07.064,0.97,0.18,-0.16,-67.5,-39.12,15.32
2026-07-27 12:16:07.128,0.96,0.19,-0.18,-67.99,-35.34,12.76
2026-07-27 12:16:07.128,0.95,0.18,-0.2,-64.58,-27.83,9.83
2026-07-27 12:16:07.190,0.95,0.18,-0.2,-64.58,-27.83,9.83
2026-07-27 12:16:07.190,0.97,0.16,-0.2,-61.16,-22.16,9.03
2026-07-27 12:16:07.190,0.97,0.16,-0.2,-61.16,-22.16,9.03
2026-07-27 12:16:07.248,1.0,0.16,-0.21,-58.65,-17.82,11.11
2026-07-27 12:16:07.248,1.0,0.16,-0.21,-58.65,-17.82,11.11
2026-07-27 12:16:07.317,0.97,0.19,-0.23,-56.52,-13.0,13.98
2026-07-27 12:16:07.317,0.94,0.21,-0.24,-57.62,-9.09,14.22
2026-07-27 12:16:07.317,0.94,0.21,-0.24,-57.62,-9.09,14.22
2026-07-27 12:16:07.365,0.94,0.18,-0.23,-63.78,-8.67,11.23
2026-07-27 12:16:07.365,0.94,0.18,-0.23,-63.78,-8.67,11.23
2026-07-27 12:16:07.365,0.95,0.14,-0.21,-68.54,-10.44,7.08
2026-07-27 12:16:07.433,0.95,0.14,-0.21,-68.54,-10.44,7.08
2026-07-27 12:16:07.433,0.97,0.1,-0.2,-65.98,-11.66,2.93
2026-07-27 12:16:07.494,0.99,0.07,-0.17,-56.15,-13.0,-0.67
2026-07-27 12:16:07.494,0.99,0.07,-0.17,-56.15,-13.0,-0.67
2026-07-27 12:16:07.494,1.0,0.07,-0.14,-41.32,-12.57,-2.99
2026-07-27 12:16:07.552,1.0,0.07,-0.14,-41.32,-12.57,-2.99
2026-07-27 12:16:07.552,0.98,0.09,-0.14,-24.48,-6.65,-4.7
2026-07-27 12:16:07.552,0.98,0.09,-0.14,-24.48,-6.65,-4.7
2026-07-27 12:16:07.605,0.97,0.12,-0.16,-9.7,0.79,-6.35
2026-07-27 12:16:07.605,0.98,0.13,-0.16,0.73,4.33,-7.69
2026-07-27 12:16:07.669,0.98,0.13,-0.16,0.73,4.33,-7.69
2026-07-27 12:16:07.669,0.98,0.14,-0.14,7.26,4.46,-7.2
2026-07-27 12:16:07.669,0.98,0.14,-0.14,7.26,4.46,-7.2
2026-07-27 12:16:07.733,0.98,0.15,-0.12,11.84,2.62,-4.64
2026-07-27 12:16:07.733,0.98,0.15,-0.12,11.84,2.62,-4.64
2026-07-27 12:16:07.733,0.98,0.18,-0.11,19.47,0.98,-2.93
2026-07-27 12:16:07.796,0.98,0.18,-0.11,19.47,0.98,-2.93
2026-07-27 12:16:07.796,0.97,0.2,-0.11,34.06,2.62,-5.13
2026-07-27 12:16:07.859,0.97,0.2,-0.12,51.57,7.26,-10.5
2026-07-27 12:16:07.859,0.97,0.2,-0.12,51.57,7.26,-10.5
2026-07-27 12:16:07.859,0.98,0.18,-0.11,64.09,11.78,-14.95
2026-07-27 12:16:07.914,0.98,0.18,-0.11,64.09,11.78,-14.95
2026-07-27 12:16:07.915,0.97,0.17,-0.11,72.14,15.93,-16.85
2026-07-27 12:16:07.915,0.97,0.17,-0.11,72.14,15.93,-16.85
2026-07-27 12:16:07.970,0.97,0.19,-0.12,86.0,21.48,-20.75
2026-07-27 12:16:07.970,0.97,0.2,-0.17,102.97,26.79,-26.86
2026-07-27 12:16:07.970,0.97,0.2,-0.17,102.97,26.79,-26.86
2026-07-27 12:16:08.033,0.97,0.18,-0.2,107.24,29.3,-27.65
2026-07-27 12:16:08.033,0.97,0.18,-0.2,107.24,29.3,-27.65
2026-07-27 12:16:08.091,0.98,0.15,-0.22,99.73,27.95,-22.16
2026-07-27 12:16:08.091,0.97,0.2,-0.22,89.05,23.93,-15.75
2026-07-27 12:16:08.091,0.97,0.2,-0.22,89.05,23.93,-15.75
2026-07-27 12:16:08.160,0.95,0.26,-0.21,78.06,20.39,-13.37
2026-07-27 12:16:08.208,0.95,0.26,-0.21,78.06,20.39,-13.37
2026-07-27 12:16:08.208,0.92,0.26,-0.2,69.89,17.27,-15.01
2026-07-27 12:16:08.208,0.92,0.24,-0.21,60.36,13.37,-14.83
2026-07-27 12:16:08.208,0.92,0.24,-0.21,60.36,13.37,-14.83
2026-07-27 12:16:08.272,0.95,0.25,-0.21,48.58,8.73,-12.63
2026-07-27 12:16:08.272,0.95,0.25,-0.21,48.58,8.73,-12.63
2026-07-27 12:16:08.328,0.96,0.26,-0.22,39.18,4.52,-13.0
2026-07-27 12:16:08.335,0.96,0.26,-0.22,39.18,4.52,-13.0
2026-07-27 12:16:08.335,0.95,0.25,-0.23,28.38,2.87,-14.22
2026-07-27 12:16:08.393,0.95,0.18,-0.21,14.71,2.5,-13.06
2026-07-27 12:16:08.393,0.95,0.18,-0.21,14.71,2.5,-13.06
2026-07-27 12:16:08.393,0.97,0.14,-0.18,1.1,2.62,-8.67
2026-07-27 12:16:08.447,0.97,0.14,-0.18,1.1,2.62,-8.67
2026-07-27 12:16:08.447,0.97,0.18,-0.2,-8.24,5.25,-3.11
2026-07-27 12:16:08.447,0.97,0.18,-0.2,-8.24,5.25,-3.11
2026-07-27 12:16:08.509,0.96,0.23,-0.22,-13.92,7.57,-0.31
2026-07-27 12:16:08.509,0.94,0.22,-0.18,-22.28,7.2,0.43
2026-07-27 12:16:08.577,0.94,0.22,-0.18,-22.28,7.2,0.43
2026-07-27 12:16:08.577,0.93,0.2,-0.14,-32.41,10.44,6.16
2026-07-27 12:16:08.577,0.93,0.2,-0.14,-32.41,10.44,6.16
2026-07-27 12:16:08.636,0.91,0.29,-0.18,-44.74,19.59,19.04
2026-07-27 12:16:08.636,0.91,0.29,-0.18,-44.74,19.59,19.04
2026-07-27 12:16:08.700,0.89,0.41,-0.19,-64.58,21.0,30.64
2026-07-27 12:16:08.700,0.93,0.43,-0.09,-89.48,9.4,33.51
2026-07-27 12:16:08.700,0.93,0.43,-0.09,-89.48,9.4,33.51
2026-07-27 12:16:08.748,0.99,0.36,0.01,-115.91,1.1,31.8
2026-07-27 12:16:08.748,0.99,0.36,0.01,-115.91,1.1,31.8
2026-07-27 12:16:08.748,1.03,0.28,0.07,-132.87,5.07,28.81
2026-07-27 12:16:08.811,1.03,0.28,0.07,-132.87,5.07,28.81
2026-07-27 12:16:08.811,1.04,0.22,0.1,-129.09,11.17,21.12
2026-07-27 12:16:08.859,1.02,0.17,0.12,-116.39,8.36,14.04
2026-07-27 12:16:08.859,1.02,0.17,0.12,-116.39,8.36,14.04
2026-07-27 12:16:08.859,0.95,0.14,0.11,-105.29,-0.18,14.59
2026-07-27 12:16:08.928,0.95,0.14,0.11,-105.29,-0.18,14.59
2026-07-27 12:16:08.928,0.93,0.09,0.09,-95.03,-7.02,20.39
2026-07-27 12:16:08.928,0.93,0.09,0.09,-95.03,-7.02,20.39
2026-07-27 12:16:08.986,0.99,-0.0,0.07,-88.62,-13.79,30.15
2026-07-27 12:16:08.986,1.02,-0.04,0.03,-75.32,-21.24,41.99
2026-07-27 12:16:09.050,1.02,-0.04,0.03,-75.32,-21.24,41.99
2026-07-27 12:16:09.050,1.01,-0.0,0.02,-41.02,-22.52,47.73
2026-07-27 12:16:09.113,1.01,-0.0,0.02,-41.02,-22.52,47.73
2026-07-27 12:16:09.113,1.01,0.05,0.05,-2.26,-14.71,45.1
2026-07-27 12:16:09.113,1.01,0.05,0.05,-2.26,-14.71,45.1
2026-07-27 12:16:09.113,1.03,0.03,0.09,20.26,-3.72,38.88
2026-07-27 12:16:09.176,1.03,-0.0,0.11,24.11,3.23,34.0
2026-07-27 12:16:09.176,1.03,-0.0,0.11,24.11,3.23,34.0
2026-07-27 12:16:09.228,1.03,-0.04,0.11,17.03,6.16,32.29
2026-07-27 12:16:09.228,1.03,-0.04,0.11,17.03,6.16,32.29
2026-07-27 12:16:09.228,1.04,-0.05,0.1,14.34,11.35,30.94
2026-07-27 12:16:09.289,1.04,-0.05,0.1,14.34,11.35,30.94
2026-07-27 12:16:09.353,1.02,-0.02,0.1,21.24,19.17,27.77
2026-07-27 12:16:09.353,0.96,0.02,0.11,23.44,23.44,24.23
2026-07-27 12:16:09.353,0.96,0.02,0.11,23.44,23.44,24.23
2026-07-27 12:16:09.353,0.91,-0.0,0.12,10.31,20.81,21.85
2026-07-27 12:16:09.400,0.91,-0.0,0.12,10.31,20.81,21.85
2026-07-27 12:16:09.416,0.95,-0.04,0.12,-7.51,14.34,17.7
2026-07-27 12:16:09.416,0.95,-0.04,0.12,-7.51,14.34,17.7
2026-07-27 12:16:09.464,0.99,-0.06,0.1,-17.27,10.93,9.22
2026-07-27 12:16:09.464,0.95,-0.09,0.08,-18.74,11.23,0.31
2026-07-27 12:16:09.464,0.95,-0.09,0.08,-18.74,11.23,0.31
2026-07-27 12:16:09.528,0.92,-0.12,0.07,-17.76,11.11,-6.04
2026-07-27 12:16:09.528,0.92,-0.12,0.07,-17.76,11.11,-6.04
2026-07-27 12:16:09.591,0.92,-0.13,0.07,-14.95,9.34,-11.84
2026-07-27 12:16:09.591,0.92,-0.13,0.07,-14.95,9.34,-11.84
2026-07-27 12:16:09.591,0.93,-0.14,0.07,-6.1,4.64,-19.1
2026-07-27 12:16:09.654,0.94,-0.12,0.08,4.82,-5.74,-28.26
2026-07-27 12:16:09.654,0.94,-0.12,0.08,4.82,-5.74,-28.26
2026-07-27 12:16:09.654,0.98,-0.05,0.09,14.83,-18.13,-37.17
2026-07-27 12:16:09.702,0.98,-0.05,0.09,14.83,-18.13,-37.17
2026-07-27 12:16:09.702,0.97,0.02,0.1,26.61,-23.32,-41.56
2026-07-27 12:16:09.765,0.97,0.02,0.1,26.61,-23.32,-41.56
2026-07-27 12:16:09.765,0.95,0.08,0.09,34.0,-21.36,-41.87
2026-07-27 12:16:09.765,1.0,0.16,0.05,27.1,-22.34,-41.69
2026-07-27 12:16:09.829,1.0,0.16,0.05,27.1,-22.34,-41.69
2026-07-27 12:16:09.829,1.05,0.22,0.02,13.12,-25.02,-41.02
2026-07-27 12:16:09.829,1.05,0.22,0.02,13.12,-25.02,-41.02
2026-07-27 12:16:09.893,1.06,0.24,0.02,7.08,-23.5,-38.57
2026-07-27 12:16:09.893,1.06,0.24,0.02,7.08,-23.5,-38.57
2026-07-27 12:16:09.956,1.07,0.28,0.03,12.33,-19.41,-35.16
2026-07-27 12:16:09.956,1.04,0.25,0.01,13.73,-12.94,-30.82
2026-07-27 12:16:09.956,1.04,0.25,0.01,13.73,-12.94,-30.82
2026-07-27 12:16:10.077,1.0,0.12,0.0,-1.04,-7.75,-24.84
2026-07-27 12:16:10.132,1.0,0.12,0.0,-1.04,-7.75,-24.84
2026-07-27 12:16:10.133,0.96,-0.0,0.01,-15.14,-6.59,-19.59
2026-07-27 12:16:10.134,0.96,-0.0,0.01,-15.14,-6.59,-19.59
2026-07-27 12:16:10.141,0.97,-0.03,0.0,-13.31,-6.29,-15.44
2026-07-27 12:16:10.141,1.0,0.04,-0.03,-0.12,-6.84,-9.46
2026-07-27 12:16:10.142,1.0,0.04,-0.03,-0.12,-6.84,-9.46
2026-07-27 12:16:10.142,1.0,0.13,-0.06,9.46,-7.32,-1.46
2026-07-27 12:16:10.193,1.0,0.13,-0.06,9.46,-7.32,-1.46
2026-07-27 12:16:10.194,0.98,0.14,-0.05,5.92,-4.64,4.82
2026-07-27 12:16:10.261,0.97,0.13,-0.04,7.51,-2.87,6.41
2026-07-27 12:16:10.282,0.97,0.13,-0.04,7.51,-2.87,6.41
2026-07-27 12:16:10.282,0.98,0.15,-0.05,25.33,-5.25,3.97
2026-07-27 12:16:10.305,0.98,0.15,-0.05,25.33,-5.25,3.97
2026-07-27 12:16:10.305,0.99,0.14,-0.05,39.37,-6.29,0.98
2026-07-27 12:16:10.305,0.99,0.14,-0.05,39.37,-6.29,0.98
2026-07-27 12:16:10.377,0.99,0.13,-0.07,36.68,-2.56,0.31
2026-07-27 12:16:10.377,0.99,0.13,-0.07,26.55,1.65,1.65
2026-07-27 12:16:10.432,0.98,0.17,-0.09,26.55,1.65,1.65
2026-07-27 12:16:10.432,0.96,0.19,-0.09,20.08,1.77,2.38
2026-07-27 12:16:10.432,0.96,0.19,-0.09,20.08,1.77,2.38
2026-07-27 12:16:10.490,0.95,0.16,-0.09,14.83,0.06,2.93
2026-07-27 12:16:10.490,0.95,0.16,-0.09,14.83,0.06,2.93
2026-07-27 12:16:10.496,0.97,0.09,-0.07,7.63,-1.46,4.64
2026-07-27 12:16:10.543,0.97,0.09,-0.07,7.63,-1.46,4.64
2026-07-27 12:16:10.543,0.99,0.05,-0.06,5.98,-2.99,7.32
2026-07-27 12:16:10.606,1.01,0.09,-0.05,17.46,-4.21,6.77
2026-07-27 12:16:10.606,1.01,0.09,-0.05,17.46,-4.21,6.77
2026-07-27 12:16:10.606,1.0,0.11,-0.05,34.48,-4.21,0.67
2026-07-27 12:16:10.670,1.0,0.11,-0.05,34.48,-4.21,0.67
2026-07-27 12:16:10.670,0.98,0.09,-0.07,41.32,-1.46,-5.68
2026-07-27 12:16:10.670,0.98,0.09,-0.07,41.32,-1.46,-5.68
2026-07-27 12:16:10.735,0.99,0.06,-0.08,40.53,2.5,-7.39
2026-07-27 12:16:10.735,0.99,0.06,-0.08,46.02,5.37,-5.92
2026-07-27 12:16:10.735,0.99,0.09,-0.09,46.02,5.37,-5.92
2026-07-27 12:16:10.791,0.98,0.13,-0.11,58.11,9.09,-5.0
2026-07-27 12:16:10.791,0.98,0.13,-0.11,58.11,9.09,-5.0
2026-07-27 12:16:10.844,0.98,0.14,-0.13,62.56,12.02,-4.46
2026-07-27 12:16:10.844,0.98,0.14,-0.13,62.56,12.02,-4.46
2026-07-27 12:16:10.844,0.99,0.13,-0.11,56.88,11.66,-2.75
2026-07-27 12:16:10.907,0.99,0.13,-0.11,56.88,11.66,-2.75
2026-07-27 12:16:10.907,0.99,0.12,-0.09,49.74,9.4,-0.61
2026-07-27 12:16:10.988,0.99,0.09,-0.08,47.24,6.77,0.24
2026-07-27 12:16:10.988,0.99,0.09,-0.08,47.24,6.77,0.24
2026-07-27 12:16:10.988,0.99,0.07,-0.1,53.16,4.82,-2.26
2026-07-27 12:16:11.035,0.99,0.07,-0.1,53.16,4.82,-2.26
2026-07-27 12:16:11.035,0.98,0.1,-0.12,60.67,3.85,-6.59
2026-07-27 12:16:11.035,0.98,0.1,-0.12,60.67,3.85,-6.59
2026-07-27 12:16:11.093,0.97,0.15,-0.13,60.36,3.91,-9.52
2026-07-27 12:16:11.093,0.98,0.18,-0.14,50.72,4.15,-11.05
2026-07-27 12:16:11.093,0.98,0.18,-0.14,50.72,4.15,-11.05
2026-07-27 12:16:11.146,0.99,0.18,-0.16,36.99,5.68,-13.85
2026-07-27 12:16:11.146,0.99,0.18,-0.16,36.99,5.68,-13.85
2026-07-27 12:16:11.209,0.98,0.15,-0.17,24.84,8.42,-17.88
2026-07-27 12:16:11.209,0.98,0.15,-0.17,24.84,8.42,-17.88
2026-07-27 12:16:11.209,0.98,0.11,-0.16,17.88,7.81,-20.45
2026-07-27 12:16:11.284,0.99,0.09,-0.13,17.76,5.43,-20.75
2026-07-27 12:16:11.284,0.99,0.09,-0.13,17.76,5.43,-20.75
2026-07-27 12:16:11.284,0.99,0.06,-0.14,21.36,6.9,-19.35
2026-07-27 12:16:11.336,0.99,0.06,-0.14,21.36,6.9,-19.35
2026-07-27 12:16:11.351,1.01,0.02,-0.16,28.2,13.24,-17.4
2026-07-27 12:16:11.394,1.01,0.02,-0.16,28.2,13.24,-17.4
2026-07-27 12:16:11.394,1.0,-0.02,-0.15,43.88,21.97,-15.44
2026-07-27 12:16:11.394,0.97,0.02,-0.11,65.06,26.12,-10.68
2026-07-27 12:16:11.446,0.97,0.02,-0.11,65.06,26.12,-10.68
2026-07-27 12:16:11.446,0.94,0.08,-0.06,77.09,23.5,-1.95
2026-07-27 12:16:11.446,0.94,0.08,-0.06,77.09,23.5,-1.95
2026-07-27 12:16:11.515,0.97,0.04,-0.04,81.3,23.8,2.93
2026-07-27 12:16:11.515,0.97,0.04,-0.04,81.3,23.8,2.93
2026-07-27 12:16:11.572,1.03,0.0,-0.06,91.86,33.63,0.37
2026-07-27 12:16:11.572,1.06,0.07,-0.06,105.35,44.98,-1.22
2026-07-27 12:16:11.572,1.06,0.07,-0.06,105.35,44.98,-1.22
2026-07-27 12:16:11.636,1.02,0.22,0.0,103.88,54.32,2.99
2026-07-27 12:16:11.636,1.02,0.22,0.0,103.88,54.32,2.99
2026-07-27 12:16:11.636,0.94,0.3,0.08,77.21,64.51,12.15
2026-07-27 12:16:11.701,0.94,0.3,0.08,77.21,64.51,12.15
2026-07-27 12:16:11.706,0.94,0.3,0.08,77.21,64.51,12.15
2026-07-27 12:16:11.706,0.94,0.3,0.08,77.21,64.51,12.15
2026-07-27 12:16:11.747,1.04,0.17,0.06,20.39,58.17,42.36
2026-07-27 12:16:11.747,1.09,0.17,0.03,42.42,35.1,45.35
2026-07-27 12:16:11.810,1.09,0.17,0.03,42.42,35.1,45.35
2026-07-27 12:16:11.810,1.06,0.2,0.02,84.53,8.85,40.71
2026-07-27 12:16:11.810,1.06,0.2,0.02,84.53,8.85,40.71
2026-07-27 12:16:11.877,1.03,0.16,0.02,105.29,-8.54,41.38
2026-07-27 12:16:11.877,1.03,0.16,0.02,105.29,-8.54,41.38
2026-07-27 12:16:11.877,1.02,0.11,0.03,92.83,-13.31,53.16
2026-07-27 12:16:11.928,1.01,0.11,0.08,72.45,-8.24,66.71
2026-07-27 12:16:11.928,1.01,0.11,0.08,72.45,-8.24,66.71
2026-07-27 12:16:12.048,0.97,0.06,0.13,66.77,0.31,64.64
2026-07-27 12:16:12.048,0.97,0.06,0.13,66.77,0.31,64.64
2026-07-27 12:16:12.048,0.91,0.02,0.14,74.89,8.24,42.48
2026-07-27 12:16:12.048,0.91,0.02,0.14,74.89,8.24,42.48
2026-07-27 12:16:12.048,0.9,-0.02,0.16,82.52,13.12,11.78
2026-07-27 12:16:12.175,0.95,-0.08,0.22,85.02,13.49,-11.84
2026-07-27 12:16:12.175,0.95,-0.08,0.22,85.02,13.49,-11.84
2026-07-27 12:16:12.175,0.89,-0.04,0.26,79.47,8.67,-16.97
2026-07-27 12:16:12.175,0.89,-0.04,0.26,79.47,8.67,-16.97
2026-07-27 12:16:12.175,0.89,0.11,0.15,55.24,-8.3,-14.28
2026-07-27 12:16:12.175,0.89,0.11,0.15,55.24,-8.3,-14.28
2026-07-27 12:16:12.239,1.07,0.19,-0.05,27.28,-34.42,-24.96
2026-07-27 12:16:12.239,1.07,0.18,-0.17,25.94,-43.27,-41.87
2026-07-27 12:16:12.287,1.07,0.18,-0.17,25.94,-43.27,-41.87
2026-07-27 12:16:12.287,0.92,0.15,-0.2,48.65,-25.02,-47.36
2026-07-27 12:16:12.287,0.92,0.15,-0.2,48.65,-25.02,-47.36
2026-07-27 12:16:12.350,0.91,0.16,-0.19,76.05,-8.91,-40.83
2026-07-27 12:16:12.350,0.94,0.25,-0.15,92.16,-12.27,-31.56
2026-07-27 12:16:12.350,0.94,0.25,-0.15,92.16,-12.27,-31.56
2026-07-27 12:16:12.414,0.94,0.28,-0.07,83.13,-21.79,-26.18
2026-07-27 12:16:12.414,0.94,0.28,-0.07,83.13,-21.79,-26.18
2026-07-27 12:16:12.462,0.96,0.21,-0.04,54.69,-24.9,-21.73
2026-07-27 12:16:12.462,0.96,0.21,-0.04,54.69,-24.9,-21.73
2026-07-27 12:16:12.462,0.98,0.06,-0.04,31.43,-21.36,-17.7
2026-07-27 12:16:12.528,0.99,0.01,-0.04,27.95,-19.17,-14.4
2026-07-27 12:16:12.528,0.99,0.01,-0.04,27.95,-19.17,-14.4
2026-07-27 12:16:12.588,0.97,0.1,-0.06,34.36,-18.31,-10.31
2026-07-27 12:16:12.588,0.97,0.1,-0.06,34.36,-18.31,-10.31
2026-07-27 12:16:12.588,0.96,0.15,-0.08,33.45,-21.06,-5.86
2026-07-27 12:16:12.710,0.96,0.15,-0.08,33.45,-21.06,-5.86
2026-07-27 12:16:12.716,1.0,0.11,-0.06,20.2,-32.23,0.73
2026-07-27 12:16:12.716,1.07,0.03,-0.08,6.71,-39.49,9.83
2026-07-27 12:16:12.716,1.07,0.03,-0.08,6.71,-39.49,9.83
2026-07-27 12:16:12.716,1.11,-0.03,-0.14,4.33,-33.08,15.38
2026-07-27 12:16:12.716,1.11,-0.03,-0.14,4.33,-33.08,15.38
2026-07-27 12:16:12.779,1.15,0.06,-0.16,6.41,-20.87,17.27
2026-07-27 12:16:12.779,1.15,0.06,-0.16,6.41,-20.87,17.27
2026-07-27 12:16:12.828,1.13,0.31,-0.06,-0.61,-8.61,22.22
2026-07-27 12:16:12.828,0.97,0.49,0.02,-28.81,22.64,22.34
2026-07-27 12:16:12.828,0.97,0.49,0.02,-28.81,22.64,22.34
2026-07-27 12:16:12.891,0.84,0.44,-0.03,-92.16,70.62,18.55
2026-07-27 12:16:12.891,0.84,0.44,-0.03,-92.16,70.62,18.55
2026-07-27 12:16:12.960,0.96,0.34,-0.03,-165.04,96.19,27.22
2026-07-27 12:16:13.024,0.96,0.34,-0.03,-191.35,90.21,45.29
2026-07-27 12:16:13.024,1.15,0.25,0.07,-191.35,90.21,45.29
2026-07-27 12:16:13.024,1.15,0.17,0.1,-156.62,71.41,58.23
2026-07-27 12:16:13.024,1.15,0.17,0.1,-156.62,71.41,58.23
2026-07-27 12:16:13.024,1.06,0.11,0.1,-102.36,55.36,59.02
2026-07-27 12:16:13.066,1.06,0.11,0.1,-102.36,55.36,59.02
2026-07-27 12:16:13.066,0.96,0.01,0.16,-67.5,46.94,52.92
2026-07-27 12:16:13.133,0.87,-0.1,0.21,-45.78,38.94,46.39
2026-07-27 12:16:13.133,0.87,-0.1,0.21,-45.78,38.94,46.39
2026-07-27 12:16:13.133,0.76,-0.11,0.24,-22.09,29.91,35.16
2026-07-27 12:16:13.193,0.76,-0.11,0.24,-22.09,29.91,35.16
2026-07-27 12:16:13.193,0.66,-0.06,0.25,2.69,21.0,10.86
2026-07-27 12:16:13.193,0.66,-0.06,0.25,2.69,21.0,10.86
2026-07-27 12:16:13.321,0.66,-0.07,0.3,24.78,5.19,-24.11
2026-07-27 12:16:13.336,0.92,-0.16,0.41,37.29,-26.43,-56.82
2026-07-27 12:16:13.336,0.92,-0.16,0.41,37.29,-26.43,-56.82
2026-07-27 12:16:13.336,1.33,-0.23,0.47,28.26,-64.27,-61.4
2026-07-27 12:16:13.336,1.33,-0.23,0.47,28.26,-64.27,-61.4
2026-07-27 12:16:13.368,1.33,-0.05,0.33,-0.06,-68.05,-28.2
2026-07-27 12:16:13.368,1.33,-0.05,0.33,-0.06,-68.05,-28.2
2026-07-27 12:16:13.432,0.85,0.32,0.1,-12.7,-32.59,0.24
2026-07-27 12:16:13.432,0.61,0.45,-0.13,-9.52,-17.03,-9.95
2026-07-27 12:16:13.432,0.61,0.45,-0.13,-9.52,-17.03,-9.95
2026-07-27 12:16:13.495,0.85,0.3,-0.29,-37.11,-50.48,-38.39
2026-07-27 12:16:13.495,0.85,0.3,-0.29,-37.11,-50.48,-38.39
2026-07-27 12:16:13.495,1.08,0.1,-0.22,-81.73,-86.12,-56.15
2026-07-27 12:16:13.553,1.08,0.1,-0.22,-79.16,-64.21,-54.38
2026-07-27 12:16:13.553,1.09,-0.07,-0.11,-79.16,-64.21,-54.38
2026-07-27 12:16:13.606,1.01,-0.04,-0.1,-1.77,-12.21,-38.39
2026-07-27 12:16:13.606,1.01,-0.04,-0.1,-1.77,-12.21,-38.39
2026-07-27 12:16:13.606,0.93,0.16,-0.09,89.05,4.09,-20.32
2026-07-27 12:16:13.677,0.93,0.16,-0.09,89.05,4.09,-20.32
2026-07-27 12:16:13.677,0.9,0.21,-0.07,90.09,-11.66,-6.23
2026-07-27 12:16:13.685,0.9,0.21,-0.07,23.62,-26.18,3.66
2026-07-27 12:16:13.733,0.93,0.08,-0.08,23.62,-26.18,3.66
2026-07-27 12:16:13.733,1.0,0.05,-0.08,-3.97,-35.1,5.37
2026-07-27 12:16:13.794,1.0,0.05,-0.08,-3.97,-35.1,5.37
2026-07-27 12:16:13.797,1.06,0.1,-0.03,13.98,-43.58,-1.04
2026-07-27 12:16:13.797,1.06,0.1,-0.03,13.98,-43.58,-1.04
2026-07-27 12:16:13.845,1.08,0.05,0.01,21.61,-41.93,-8.67
2026-07-27 12:16:13.845,1.08,0.05,0.01,5.49,-22.77,-10.56
2026-07-27 12:16:13.845,1.06,-0.1,-0.04,5.49,-22.77,-10.56
2026-07-27 12:16:13.909,1.11,-0.14,-0.15,-3.78,2.81,-5.92
2026-07-27 12:16:13.909,1.11,-0.14,-0.15,-3.78,2.81,-5.92
2026-07-27 12:16:13.973,1.19,0.08,-0.13,13.92,13.79,2.56
2026-07-27 12:16:13.973,1.19,0.08,-0.13,13.92,13.79,2.56
2026-07-27 12:16:13.973,1.06,0.43,-0.04,25.88,24.35,12.94
2026-07-27 12:16:14.036,1.06,0.43,-0.04,-21.42,57.86,22.89
2026-07-27 12:16:14.052,0.85,0.55,-0.1,-21.42,57.86,22.89
2026-07-27 12:16:14.052,0.88,0.38,-0.16,-126.34,80.38,38.57
2026-07-27 12:16:14.091,0.88,0.38,-0.16,-126.34,80.38,38.57
2026-07-27 12:16:14.091,1.09,0.14,-0.02,-194.76,70.07,58.41
2026-07-27 12:16:14.147,1.09,0.14,-0.02,-194.76,70.07,58.41
2026-07-27 12:16:14.147,1.2,0.06,0.12,-164.12,52.0,71.17
2026-07-27 12:16:14.147,1.12,0.12,0.13,-92.65,42.91,72.94
2026-07-27 12:16:14.217,1.12,0.12,0.13,-92.65,42.91,72.94
2026-07-27 12:16:14.220,1.0,0.11,0.09,-41.44,41.69,66.28
2026-07-27 12:16:14.337,1.0,0.11,0.09,-41.44,41.69,66.28
2026-07-27 12:16:14.371,0.88,0.05,0.08,-13.55,41.56,56.64
2026-07-27 12:16:14.371,0.72,0.04,0.13,5.07,39.61,40.22
2026-07-27 12:16:14.371,0.72,0.04,0.13,5.07,39.61,40.22
2026-07-27 12:16:14.377,0.62,0.04,0.2,16.11,28.32,8.42
2026-07-27 12:16:14.377,0.62,0.04,0.2,16.11,28.32,8.42
2026-07-27 12:16:14.397,0.68,-0.04,0.23,17.03,4.39,-35.46
2026-07-27 12:16:14.397,0.68,-0.04,0.23,17.03,4.39,-35.46
2026-07-27 12:16:14.561,0.94,-0.21,0.28,20.2,-24.35,-72.45
2026-07-27 12:16:14.561,1.23,-0.37,0.38,21.79,-48.03,-71.11
2026-07-27 12:16:14.561,1.23,-0.37,0.38,21.79,-48.03,-71.11
2026-07-27 12:16:14.561,1.31,-0.21,0.43,-9.03,-56.15,-26.0
2026-07-27 12:16:14.561,1.31,-0.21,0.43,-9.03,-56.15,-26.0
2026-07-27 12:16:14.561,1.25,0.18,0.23,-36.8,-38.94,7.51
2026-07-27 12:16:14.627,1.25,0.18,0.23,-36.8,-38.94,7.51
2026-07-27 12:16:14.698,1.02,0.4,-0.0,-21.24,-16.3,-2.38
2026-07-27 12:16:14.698,0.74,0.37,-0.16,-12.63,-8.42,-24.9
2026-07-27 12:16:14.698,0.74,0.37,-0.16,-12.63,-8.42,-24.9
2026-07-27 12:16:14.698,0.78,0.22,-0.31,-26.37,-12.27,-43.88
2026-07-27 12:16:14.752,0.78,0.22,-0.31,-26.37,-12.27,-43.88
2026-07-27 12:16:14.752,1.01,0.03,-0.24,-29.54,-29.97,-56.03
2026-07-27 12:16:14.752,1.01,0.03,-0.24,-29.54,-29.97,-56.03
2026-07-27 12:16:14.752,1.07,0.01,-0.04,-14.4,-40.95,-47.18
2026-07-27 12:16:14.752,0.98,0.21,-0.04,23.74,-21.85,-23.8
2026-07-27 12:16:14.813,0.98,0.21,-0.04,23.74,-21.85,-23.8
2026-07-27 12:16:14.863,0.92,0.33,-0.15,37.48,0.06,-7.45
2026-07-27 12:16:14.863,0.92,0.33,-0.15,37.48,0.06,-7.45
2026-07-27 12:16:14.863,0.92,0.16,-0.14,-9.46,-7.2,0.12
2026-07-27 12:16:14.863,0.92,0.16,-0.14,-9.46,-7.2,0.12
2026-07-27 12:16:14.863,0.98,0.01,-0.07,-54.08,-25.88,5.31
2026-07-27 12:16:14.927,1.0,0.04,-0.05,-66.53,-34.61,7.51
2026-07-27 12:16:14.927,1.0,0.04,-0.05,-66.53,-34.61,7.51
2026-07-27 12:16:15.006,1.0,0.04,-0.0,-50.11,-37.72,0.31
2026-07-27 12:16:15.006,1.0,0.04,-0.0,-50.11,-37.72,0.31
2026-07-27 12:16:15.006,1.0,-0.03,-0.01,-24.23,-31.13,-11.41
2026-07-27 12:16:15.049,1.0,-0.03,-0.01,-24.23,-31.13,-11.41
2026-07-27 12:16:15.049,0.98,-0.06,-0.11,-27.83,-14.22,-15.32
2026-07-27 12:16:15.102,1.0,0.01,-0.18,-33.94,-2.93,-13.67
2026-07-27 12:16:15.102,1.0,0.01,-0.18,-33.94,-2.93,-13.67
2026-07-27 12:16:15.102,1.05,0.19,-0.14,-19.29,-6.53,-5.0
2026-07-27 12:16:15.165,1.05,0.19,-0.14,-19.29,-6.53,-5.0
2026-07-27 12:16:15.165,1.08,0.3,-0.03,-20.69,-8.73,13.0
2026-07-27 12:16:15.165,1.08,0.3,-0.03,-20.69,-8.73,13.0
2026-07-27 12:16:15.229,1.06,0.33,0.06,-58.53,10.86,29.66
2026-07-27 12:16:15.229,1.0,0.36,0.1,-115.17,38.27,38.33
2026-07-27 12:16:15.229,1.0,0.36,0.1,-115.17,38.27,38.33
2026-07-27 12:16:15.428,0.97,0.3,0.07,-152.04,51.76,38.76
2026-07-27 12:16:15.428,0.97,0.3,0.07,-152.04,51.76,38.76
2026-07-27 12:16:15.428,1.02,0.17,0.08,-130.92,54.5,28.87
2026-07-27 12:16:15.428,1.02,0.17,0.08,-130.92,54.5,28.87
2026-07-27 12:16:15.428,1.05,0.1,0.12,-67.63,51.33,15.26
2026-07-27 12:16:15.428,1.02,0.13,0.12,-12.57,40.65,9.77
2026-07-27 12:16:15.428,1.02,0.13,0.12,-12.57,40.65,9.77
2026-07-27 12:16:15.468,0.95,0.15,0.1,12.88,29.11,14.59
2026-07-27 12:16:15.468,0.95,0.15,0.1,12.88,29.11,14.59
2026-07-27 12:16:15.468,0.9,0.12,0.09,16.6,19.29,24.96
2026-07-27 12:16:15.543,0.9,0.12,0.09,16.6,19.29,24.96
2026-07-27 12:16:15.543,0.93,0.07,0.1,13.98,9.46,34.55
2026-07-27 12:16:15.543,0.96,0.05,0.13,26.31,5.74,35.71
2026-07-27 12:16:15.596,0.96,0.05,0.13,26.31,5.74,35.71
2026-07-27 12:16:15.596,0.95,0.04,0.19,51.09,4.52,26.18
2026-07-27 12:16:15.612,0.95,0.04,0.19,51.09,4.52,26.18
2026-07-27 12:16:15.643,0.96,-0.02,0.22,61.71,-1.95,11.96
2026-07-27 12:16:15.643,0.96,-0.02,0.22,56.95,-7.57,0.24
2026-07-27 12:16:15.715,0.96,0.03,0.18,56.95,-7.57,0.24
2026-07-27 12:16:15.756,0.91,0.2,0.12,63.84,-6.77,-1.89
2026-07-27 12:16:15.756,0.91,0.2,0.12,63.84,-6.77,-1.89
2026-07-27 12:16:15.827,0.92,0.28,0.15,85.51,-4.39,2.44
2026-07-27 12:16:15.895,0.92,0.28,0.15,85.51,-4.39,2.44
2026-07-27 12:16:15.895,0.97,0.23,0.2,94.24,-3.23,3.23
2026-07-27 12:16:15.899,0.97,0.23,0.2,94.24,-3.23,3.23
2026-07-27 12:16:15.899,0.94,0.25,0.2,88.44,-3.97,-1.1
2026-07-27 12:16:15.899,0.95,0.23,0.21,84.96,-6.59,-10.99
2026-07-27 12:16:15.899,0.95,0.23,0.21,84.96,-6.59,-10.99
2026-07-27 12:16:15.899,1.11,-0.09,0.26,76.6,-10.56,-22.4
2026-07-27 12:16:15.953,1.11,-0.09,0.26,76.6,-10.56,-22.4
2026-07-27 12:16:15.955,1.17,-0.38,0.29,36.62,-23.19,-18.07
2026-07-27 12:16:15.955,1.17,-0.38,0.29,36.62,-23.19,-18.07
2026-07-27 12:16:16.024,0.99,-0.16,0.23,8.3,-31.49,-2.93
2026-07-27 12:16:16.024,0.89,0.16,0.1,55.05,-16.78,-3.05
2026-07-27 12:16:16.059,0.89,0.16,0.1,55.05,-16.78,-3.05
2026-07-27 12:16:16.059,0.96,0.13,0.07,122.07,2.01,-18.55
2026-07-27 12:16:16.059,0.96,0.13,0.07,122.07,2.01,-18.55
2026-07-27 12:16:16.186,1.01,-0.02,0.09,137.33,9.28,-27.65
2026-07-27 12:16:16.197,1.01,-0.02,0.09,137.33,9.28,-27.65
2026-07-27 12:16:16.197,1.0,0.0,0.02,122.99,12.63,-23.32
2026-07-27 12:16:16.202,0.99,0.11,-0.05,109.25,10.86,-18.31
2026-07-27 12:16:16.202,0.99,0.11,-0.05,109.25,10.86,-18.31
2026-07-27 12:16:16.249,0.97,0.16,-0.04,87.52,3.54,-19.04
2026-07-27 12:16:16.249,0.97,0.16,-0.04,63.72,-2.26,-19.9
2026-07-27 12:16:16.313,0.95,0.14,-0.01,63.72,-2.26,-19.9
2026-07-27 12:16:16.313,0.98,0.09,0.02,50.9,-5.25,-16.42
2026-07-27 12:16:16.360,0.98,0.09,0.02,50.9,-5.25,-16.42
2026-07-27 12:16:16.360,1.01,0.05,0.04,42.72,-6.47,-10.62
2026-07-27 12:16:16.428,1.01,0.05,0.04,42.72,-6.47,-10.62
2026-07-27 12:16:16.428,1.01,0.05,0.04,36.01,-4.21,-5.92
2026-07-27 12:16:16.428,1.01,0.05,0.04,36.32,0.79,-2.99
2026-07-27 12:16:16.428,0.98,0.09,0.02,36.32,0.79,-2.99
2026-07-27 12:16:16.487,0.96,0.18,-0.01,37.05,5.8,0.92
2026-07-27 12:16:16.487,0.96,0.18,-0.01,37.05,5.8,0.92
2026-07-27 12:16:16.551,0.95,0.25,-0.07,29.72,8.36,4.88
2026-07-27 12:16:16.551,0.95,0.25,-0.07,29.72,8.36,4.88
2026-07-27 12:16:16.551,0.95,0.22,-0.08,21.42,2.5,5.8
2026-07-27 12:16:16.551,0.95,0.22,-0.08,21.42,2.5,5.8
2026-07-27 12:16:16.614,0.97,0.14,-0.03,21.79,-9.4,4.58
2026-07-27 12:16:16.614,0.98,0.06,0.01,28.26,-13.92,4.09
2026-07-27 12:16:16.678,0.98,0.06,0.01,28.26,-13.92,4.09
2026-07-27 12:16:16.678,0.99,0.04,-0.01,36.13,-11.11,5.74
2026-07-27 12:16:16.678,0.99,0.04,-0.01,36.13,-11.11,5.74
2026-07-27 12:16:16.851,0.98,0.08,-0.03,43.09,-12.27,8.73
2026-07-27 12:16:16.851,0.98,0.08,-0.03,43.09,-12.27,8.73
2026-07-27 12:16:16.851,0.97,0.12,-0.04,51.09,-15.87,9.46
2026-07-27 12:16:16.851,0.96,0.15,-0.08,58.9,-16.05,5.98
2026-07-27 12:16:16.851,0.96,0.15,-0.08,58.9,-16.05,5.98
2026-07-27 12:16:16.851,0.96,0.16,-0.1,60.36,-15.99,1.4
2026-07-27 12:16:16.851,0.96,0.16,-0.1,60.36,-15.99,1.4
2026-07-27 12:16:16.851,0.97,0.13,-0.08,52.12,-17.46,-2.5
2026-07-27 12:16:17.200,0.97,0.13,-0.08,52.12,-17.46,-2.5
2026-07-27 12:16:17.200,1.0,0.03,-0.03,40.1,-17.58,-5.13
2026-07-27 12:16:17.200,1.05,-0.06,-0.03,34.42,-11.23,-3.72
2026-07-27 12:16:17.216,1.05,-0.06,-0.03,34.42,-11.23,-3.72
2026-07-27 12:16:17.216,1.15,-0.03,-0.1,33.75,0.67,4.27
2026-07-27 12:16:17.216,1.15,-0.03,-0.1,33.75,0.67,4.27
2026-07-27 12:16:17.216,1.19,0.14,-0.12,28.99,6.04,17.46
2026-07-27 12:16:17.216,1.19,0.14,-0.12,28.99,6.04,17.46
2026-07-27 12:16:17.216,1.08,0.32,-0.04,12.33,8.73,27.34
2026-07-27 12:16:17.216,0.96,0.38,0.0,-27.28,29.91,28.2
2026-07-27 12:16:17.216,0.96,0.38,0.0,-27.28,29.91,28.2
2026-07-27 12:16:17.228,0.95,0.27,-0.03,-89.42,59.33,29.85
2026-07-27 12:16:17.228,0.95,0.27,-0.03,-89.42,59.33,29.85
2026-07-27 12:16:17.228,1.01,0.11,-0.04,-135.62,75.26,44.74
2026-07-27 12:16:17.228,1.01,0.11,-0.04,-135.62,75.26,44.74
2026-07-27 12:16:17.228,1.07,0.09,-0.0,-134.52,83.74,66.41
2026-07-27 12:16:17.339,1.12,0.13,0.09,-100.28,83.31,79.83
2026-07-27 12:16:17.339,1.12,0.13,0.09,-100.28,83.31,79.83
2026-07-27 12:16:17.339,1.1,0.12,0.18,-58.23,67.81,77.82
2026-07-27 12:16:17.339,1.1,0.12,0.18,-58.23,67.81,77.82
2026-07-27 12:16:17.339,1.0,0.08,0.22,-27.95,45.96,65.25
2026-07-27 12:16:17.343,1.0,0.08,0.22,-27.95,45.96,65.25
2026-07-27 12:16:17.391,0.89,0.05,0.22,-15.69,31.25,49.62
2026-07-27 12:16:17.391,0.81,0.04,0.22,-10.8,29.85,27.83
2026-07-27 12:16:17.454,0.81,0.04,0.22,-10.8,29.85,27.83
2026-07-27 12:16:17.454,0.75,0.02,0.2,-6.71,30.33,-3.05
2026-07-27 12:16:17.454,0.75,0.02,0.2,-6.71,30.33,-3.05
2026-07-27 12:16:17.501,0.74,-0.03,0.17,-1.65,18.55,-38.45
2026-07-27 12:16:17.501,0.74,-0.03,0.17,-1.65,18.55,-38.45
2026-07-27 12:16:17.581,0.81,-0.14,0.22,-6.65,-15.14,-66.77
2026-07-27 12:16:17.581,0.96,-0.32,0.31,-37.23,-63.29,-71.59
2026-07-27 12:16:17.591,0.96,-0.32,0.31,-37.23,-63.29,-71.59
2026-07-27 12:16:17.628,0.99,-0.41,0.31,-68.3,-88.07,-46.33
2026-07-27 12:16:17.628,0.99,-0.41,0.31,-68.3,-88.07,-46.33
2026-07-27 12:16:17.628,1.03,-0.16,0.23,-77.58,-80.44,-16.48
2026-07-27 12:16:17.691,1.03,-0.16,0.23,-77.58,-80.44,-16.48
2026-07-27 12:16:17.691,1.03,-0.16,0.23,-77.58,-80.44,-16.48
2026-07-27 12:16:17.691,1.03,-0.16,0.23,-77.58,-80.44,-16.48
2026-07-27 12:16:17.803,1.14,0.48,-0.06,-26.79,-55.42,-28.08
2026-07-27 12:16:17.803,0.86,0.48,-0.23,-6.96,-25.15,-33.75
2026-07-27 12:16:17.818,0.86,0.48,-0.23,-6.96,-25.15,-33.75
2026-07-27 12:16:17.818,0.89,0.24,-0.32,-40.59,-9.34,-31.74
2026-07-27 12:16:17.818,0.89,0.24,-0.32,-40.59,-9.34,-31.74
2026-07-27 12:16:17.866,1.01,0.05,-0.21,-92.35,-15.75,-21.85
2026-07-27 12:16:17.866,1.01,0.05,-0.21,-92.35,-15.75,-21.85
2026-07-27 12:16:17.930,1.01,0.07,-0.1,-106.69,-14.65,-6.59
2026-07-27 12:16:17.930,0.99,0.15,-0.14,-90.64,0.24,2.26
2026-07-27 12:16:17.930,0.99,0.15,-0.14,-90.64,0.24,2.26
2026-07-27 12:16:17.993,1.0,0.09,-0.17,-99.12,2.26,3.66
2026-07-27 12:16:17.993,1.0,0.09,-0.17,-99.12,2.26,3.66
2026-07-27 12:16:17.993,0.99,-0.03,-0.09,-131.71,-13.67,5.86
2026-07-27 12:16:18.057,0.99,-0.03,-0.09,-131.71,-13.67,5.86
2026-07-27 12:16:18.057,0.99,-0.08,-0.02,-142.88,-22.71,8.54
2026-07-27 12:16:18.104,1.0,-0.08,-0.02,-123.66,-16.66,6.71
2026-07-27 12:16:18.104,1.0,-0.08,-0.02,-123.66,-16.66,6.71
2026-07-27 12:16:18.104,1.0,-0.04,-0.05,-99.18,-13.61,-0.18
2026-07-27 12:16:18.184,1.0,-0.04,-0.05,-99.18,-13.61,-0.18
2026-07-27 12:16:18.184,0.98,-0.02,-0.04,-80.08,-20.81,-10.38
2026-07-27 12:16:18.184,0.98,-0.02,-0.04,-80.08,-20.81,-10.38
2026-07-27 12:16:18.232,1.02,-0.06,-0.0,-57.19,-34.55,-18.86
2026-07-27 12:16:18.232,1.07,-0.13,0.04,-33.08,-44.43,-21.3
2026-07-27 12:16:18.353,1.07,-0.13,0.04,-33.08,-44.43,-21.3
2026-07-27 12:16:18.353,1.05,-0.18,0.04,-22.28,-37.41,-17.4
2026-07-27 12:16:18.353,1.05,-0.18,0.04,-25.51,-17.46,-8.06
2026-07-27 12:16:18.353,1.05,-0.08,-0.03,-25.51,-17.46,-8.06
2026-07-27 12:16:18.353,1.11,0.1,-0.02,-38.15,-2.69,7.02
2026-07-27 12:16:18.353,1.11,0.1,-0.02,-38.15,-2.69,7.02
2026-07-27 12:16:18.414,1.05,0.29,0.02,-56.09,12.57,27.34
2026-07-27 12:16:18.469,1.05,0.29,0.02,-56.09,12.57,27.34
2026-07-27 12:16:18.469,0.86,0.38,-0.06,-80.63,41.75,42.24
2026-07-27 12:16:18.469,0.86,0.38,-0.06,-127.14,59.69,46.94
2026-07-27 12:16:18.469,0.92,0.27,-0.08,-127.14,59.69,46.94
2026-07-27 12:16:18.659,1.15,0.14,0.02,-173.65,54.38,52.0
2026-07-27 12:16:18.659,1.15,0.14,0.02,-173.65,54.38,52.0
2026-07-27 12:16:18.659,1.2,0.08,0.09,-174.13,45.53,57.5
2026-07-27 12:16:18.659,1.2,0.08,0.09,-174.13,45.53,57.5
2026-07-27 12:16:18.659,1.12,0.07,0.11,-131.47,40.41,58.9
2026-07-27 12:16:18.659,1.03,0.04,0.08,-81.05,37.66,57.07
2026-07-27 12:16:18.659,1.03,0.04,0.08,-81.05,37.66,57.07
2026-07-27 12:16:18.659,0.94,-0.02,0.03,-48.52,37.29,51.88
2026-07-27 12:16:18.707,0.94,-0.02,0.03,-48.52,37.29,51.88
2026-07-27 12:16:18.707,0.85,-0.11,0.06,-34.24,39.25,41.93
2026-07-27 12:16:18.707,0.85,-0.11,0.06,-34.24,39.25,41.93
2026-07-27 12:16:18.777,0.78,-0.16,0.14,-24.35,35.77,23.5
2026-07-27 12:16:18.777,0.71,-0.15,0.2,-8.12,23.56,-5.62
2026-07-27 12:16:18.893,0.71,-0.15,0.2,-8.12,23.56,-5.62
2026-07-27 12:16:18.894,0.78,-0.18,0.22,9.4,0.67,-39.92
2026-07-27 12:16:18.895,0.78,-0.18,0.22,9.4,0.67,-39.92
2026-07-27 12:16:18.898,1.07,-0.27,0.29,10.31,-34.36,-63.96
2026-07-27 12:16:18.898,1.07,-0.27,0.29,10.31,-34.36,-63.96
2026-07-27 12:16:18.898,1.29,-0.27,0.32,-5.13,-51.03,-56.46
2026-07-27 12:16:18.960,1.13,-0.01,0.25,-21.0,-36.13,-26.0
2026-07-27 12:16:18.960,1.13,-0.01,0.25,-21.0,-36.13,-26.0
2026-07-27 12:16:19.008,0.85,0.29,0.1,-18.25,-14.65,-16.91
2026-07-27 12:16:19.008,0.85,0.29,0.1,-18.25,-14.65,-16.91
2026-07-27 12:16:19.008,0.86,0.19,-0.12,4.82,-5.8,-42.72
2026-07-27 12:16:19.071,0.86,0.19,-0.12,4.82,-5.8,-42.72
2026-07-27 12:16:19.071,1.02,-0.08,-0.22,32.53,-6.71,-68.12
2026-07-27 12:16:19.128,1.03,-0.14,-0.15,58.59,9.64,-64.15
2026-07-27 12:16:19.135,1.03,-0.14,-0.15,58.59,9.64,-64.15
2026-07-27 12:16:19.150,0.99,-0.04,-0.04,98.51,36.13,-43.76
2026-07-27 12:16:19.309,0.99,-0.04,-0.04,98.51,36.13,-43.76
2026-07-27 12:16:19.309,1.01,0.09,0.02,147.16,43.33,-28.5
2026-07-27 12:16:19.309,1.01,0.09,0.02,147.16,43.33,-28.5
2026-07-27 12:16:19.309,0.97,0.21,-0.02,149.17,33.33,-18.01
2026-07-27 12:16:19.309,0.9,0.23,-0.12,62.5,5.55,-3.97
2026-07-27 12:16:19.309,0.9,0.23,-0.12,62.5,5.55,-3.97
2026-07-27 12:16:19.309,0.89,0.17,-0.17,-52.49,-39.43,11.9
2026-07-27 12:16:19.309,0.89,0.17,-0.17,-52.49,-39.43,11.9
2026-07-27 12:16:19.609,0.94,0.1,-0.1,-58.59,-68.54,9.77
2026-07-27 12:16:19.609,0.94,0.1,-0.1,-58.59,-68.54,9.77
2026-07-27 12:16:19.609,1.02,0.0,0.05,35.28,-73.24,-9.03
2026-07-27 12:16:19.609,1.08,-0.01,0.16,77.39,-66.28,-13.79
2026-07-27 12:16:19.609,1.08,-0.01,0.16,77.39,-66.28,-13.79
2026-07-27 12:16:19.609,1.1,0.09,0.1,57.74,-35.03,-7.02
2026-07-27 12:16:19.609,1.1,0.09,0.1,57.74,-35.03,-7.02
2026-07-27 12:16:19.625,1.1,0.14,-0.03,28.99,7.45,-3.6
2026-07-27 12:16:19.625,1.1,0.14,-0.03,28.99,7.45,-3.6
2026-07-27 12:16:19.625,1.07,0.07,-0.09,-1.77,32.78,0.18
2026-07-27 12:16:19.625,1.03,0.04,-0.04,0.55,47.61,3.72
2026-07-27 12:16:19.625,1.03,0.04,-0.04,0.55,47.61,3.72
2026-07-27 12:16:19.628,0.97,0.1,-0.08,16.66,66.65,12.45
2026-07-27 12:16:19.628,0.97,0.1,-0.08,16.66,66.65,12.45
2026-07-27 12:16:19.673,1.01,-0.02,-0.2,17.4,71.66,31.25
2026-07-27 12:16:19.727,1.01,-0.02,-0.2,17.4,71.66,31.25
2026-07-27 12:16:19.793,1.1,-0.19,-0.21,28.63,53.16,49.32
2026-07-27 12:16:19.833,1.11,-0.16,-0.16,58.11,27.47,56.7
2026-07-27 12:16:19.833,1.11,-0.16,-0.16,58.11,27.47,56.7
2026-07-27 12:16:19.833,1.03,0.0,-0.16,109.68,14.83,52.0
2026-07-27 12:16:19.833,1.03,0.0,-0.16,109.68,14.83,52.0
2026-07-27 12:16:19.979,0.93,0.1,-0.19,170.23,17.27,39.92
2026-07-27 12:16:20.028,0.93,0.1,-0.19,170.23,17.27,39.92
2026-07-27 12:16:20.034,0.92,0.09,-0.16,193.3,9.83,26.61
2026-07-27 12:16:20.034,0.99,0.0,-0.17,170.47,-17.64,16.17
2026-07-27 12:16:20.034,0.99,0.0,-0.17,170.47,-17.64,16.17
2026-07-27 12:16:20.034,1.02,-0.0,-0.06,139.89,-57.98,12.45
2026-07-27 12:16:20.034,1.02,-0.0,-0.06,139.89,-57.98,12.45
2026-07-27 12:16:20.034,0.92,0.18,0.09,157.47,-56.52,5.55
2026-07-27 12:16:20.034,0.92,0.18,0.09,211.0,1.65,-15.93
2026-07-27 12:16:20.034,0.85,0.35,-0.02,211.0,1.65,-15.93
2026-07-27 12:16:20.034,0.96,0.29,-0.16,230.47,46.26,-45.23
2026-07-27 12:16:20.150,0.96,0.29,-0.16,230.47,46.26,-45.23
2026-07-27 12:16:20.150,1.06,0.03,-0.16,201.97,48.28,-63.42
2026-07-27 12:16:20.150,1.06,0.03,-0.16,201.97,48.28,-63.42
2026-07-27 12:16:20.150,1.02,-0.18,-0.13,162.05,25.94,-53.83
2026-07-27 12:16:20.150,0.97,-0.09,-0.13,142.46,-2.5,-25.76
2026-07-27 12:16:20.205,0.97,-0.09,-0.13,142.46,-2.5,-25.76
2026-07-27 12:16:20.214,1.0,0.19,-0.07,148.44,-24.6,-6.9
2026-07-27 12:16:20.214,1.0,0.19,-0.07,148.44,-24.6,-6.9
2026-07-27 12:16:20.278,1.03,0.28,0.0,150.09,-16.91,-10.8
2026-07-27 12:16:20.283,0.99,0.16,-0.03,139.65,11.47,-21.06
2026-07-27 12:16:20.389,0.99,0.16,-0.03,139.65,11.47,-21.06
2026-07-27 12:16:20.505,0.98,0.06,-0.14,125.31,22.09,-18.19
2026-07-27 12:16:20.505,0.98,0.06,-0.14,125.31,22.09,-18.19
2026-07-27 12:16:20.505,1.0,0.06,-0.18,88.44,9.34,-3.66
2026-07-27 12:16:20.505,1.0,0.06,-0.18,34.06,-11.9,10.13
2026-07-27 12:16:20.516,1.0,0.11,-0.13,34.06,-11.9,10.13
2026-07-27 12:16:20.516,0.97,0.09,-0.07,3.05,-26.86,12.88
2026-07-27 12:16:20.516,0.97,0.09,-0.07,3.05,-26.86,12.88
2026-07-27 12:16:20.516,0.98,0.02,-0.06,6.71,-27.95,4.82
2026-07-27 12:16:20.516,0.98,0.02,-0.06,6.71,-27.95,4.82
2026-07-27 12:16:20.516,1.04,-0.04,-0.07,23.74,-24.29,-5.25
2026-07-27 12:16:20.563,1.04,-0.04,-0.07,43.33,-26.79,-10.93
2026-07-27 12:16:20.563,1.1,-0.1,-0.01,43.33,-26.79,-10.93
2026-07-27 12:16:20.692,1.16,-0.12,0.01,57.8,-22.03,-9.52
2026-07-27 12:16:20.692,1.16,-0.12,0.01,57.8,-22.03,-9.52
2026-07-27 12:16:20.694,1.13,-0.0,-0.04,66.16,-2.32,-0.31
2026-07-27 12:16:20.753,1.13,-0.0,-0.04,66.16,-2.32,-0.31
2026-07-27 12:16:20.753,1.0,0.18,-0.04,70.19,17.03,8.12
2026-07-27 12:16:20.753,1.0,0.18,-0.04,57.37,37.48,6.47
2026-07-27 12:16:20.753,0.92,0.24,-0.04,57.37,37.48,6.47
2026-07-27 12:16:20.753,0.91,0.16,-0.15,20.39,63.9,5.0
2026-07-27 12:16:20.870,0.91,0.16,-0.15,20.39,63.9,5.0
2026-07-27 12:16:20.870,1.01,-0.07,-0.24,-60.12,58.78,30.03
2026-07-27 12:16:20.870,1.01,-0.07,-0.24,-60.12,58.78,30.03
2026-07-27 12:16:20.870,1.21,-0.07,-0.04,-136.84,10.74,84.17
2026-07-27 12:16:20.870,1.36,0.16,0.05,-86.61,15.38,120.48
2026-07-27 12:16:20.870,1.36,0.16,0.05,-86.61,15.38,120.48
2026-07-27 12:16:21.006,1.31,0.11,-0.07,42.79,74.34,120.54
2026-07-27 12:16:21.006,1.31,0.11,-0.07,42.79,74.34,120.54
2026-07-27 12:16:21.006,1.09,-0.06,-0.05,106.45,104.55,103.21
2026-07-27 12:16:21.007,1.09,-0.06,-0.05,106.45,104.55,103.21
2026-07-27 12:16:21.007,0.89,-0.01,0.07,104.74,107.06,79.71
2026-07-27 12:16:21.050,0.72,0.08,0.21,89.11,91.25,56.09
2026-07-27 12:16:21.050,0.72,0.08,0.21,89.11,91.25,56.09
2026-07-27 12:16:21.232,0.6,0.04,0.3,69.4,60.0,26.98
2026-07-27 12:16:21.232,0.6,0.04,0.3,69.4,60.0,26.98
2026-07-27 12:16:21.232,0.61,-0.11,0.33,45.1,22.4,-7.08
2026-07-27 12:16:21.232,0.75,-0.24,0.38,20.2,-19.65,-35.4
2026-07-27 12:16:21.232,0.75,-0.24,0.38,20.2,-19.65,-35.4
2026-07-27 12:16:21.232,0.92,-0.31,0.41,-2.44,-61.58,-46.57
2026-07-27 12:16:21.232,0.92,-0.31,0.41,-2.44,-61.58,-46.57
2026-07-27 12:16:21.292,1.07,-0.15,0.39,-18.19,-83.68,-40.89
2026-07-27 12:16:21.474,1.07,-0.15,0.39,-18.19,-83.68,-40.89
2026-07-27 12:16:21.601,1.28,0.1,0.3,-12.15,-79.83,-38.51
2026-07-27 12:16:21.708,1.14,0.21,0.06,-6.77,-56.95,-47.3
2026-07-27 12:16:21.708,1.14,0.21,0.06,-6.77,-56.95,-47.3
2026-07-27 12:16:21.708,0.76,0.17,-0.24,-33.08,-28.14,-56.76
2026-07-27 12:16:21.708,0.76,0.17,-0.24,-33.08,-28.14,-56.76
2026-07-27 12:16:21.708,0.84,-0.03,-0.3,-48.52,-23.07,-69.58
2026-07-27 12:16:21.708,0.84,-0.03,-0.3,-48.52,-23.07,-69.58
2026-07-27 12:16:21.718,1.1,-0.14,-0.11,-8.12,-27.65,-78.25
2026-07-27 12:16:21.718,1.05,-0.04,0.0,58.65,-5.31,-65.43
2026-07-27 12:16:21.718,1.05,-0.04,0.0,58.65,-5.31,-65.43
2026-07-27 12:16:21.718,0.92,0.1,-0.02,105.1,15.14,-37.9
2026-07-27 12:16:21.718,0.92,0.1,-0.02,105.1,15.14,-37.9
2026-07-27 12:16:21.718,0.91,0.09,-0.01,108.58,2.5,-14.83
2026-07-27 12:16:21.834,0.91,0.09,-0.01,108.58,2.5,-14.83
2026-07-27 12:16:21.893,0.96,-0.01,0.01,71.47,-22.28,-2.5
2026-07-27 12:16:21.956,0.99,0.01,0.01,43.15,-34.55,2.01
2026-07-27 12:16:21.956,0.99,0.01,0.01,43.15,-34.55,2.01
2026-07-27 12:16:21.956,0.99,0.15,0.01,57.13,-32.23,0.18
2026-07-27 12:16:21.956,0.99,0.15,0.01,57.13,-32.23,0.18
2026-07-27 12:16:21.956,1.01,0.2,0.01,62.44,-25.15,-3.17
2026-07-27 12:16:21.956,1.01,0.2,0.01,62.44,-25.15,-3.17
2026-07-27 12:16:21.956,1.04,0.13,0.04,27.53,-19.17,-2.01
2026-07-27 12:16:21.989,1.06,-0.06,0.07,4.64,-11.23,-0.24
2026-07-27 12:16:21.989,1.06,-0.06,0.07,4.64,-11.23,-0.24
2026-07-27 12:16:21.989,1.1,-0.21,0.05,34.67,0.18,-4.39
2026-07-27 12:16:21.989,1.1,-0.21,0.05,34.67,0.18,-4.39
2026-07-27 12:16:21.989,1.2,-0.09,0.01,75.26,5.55,-4.64
2026-07-27 12:16:21.989,1.2,-0.09,0.01,75.26,5.55,-4.64
2026-07-27 12:16:21.989,1.15,0.21,-0.0,57.68,7.08,7.2
2026-07-27 12:16:21.989,0.93,0.42,-0.03,-7.57,15.75,19.59
2026-07-27 12:16:21.989,0.93,0.42,-0.03,-7.57,15.75,19.59
2026-07-27 12:16:22.009,0.87,0.39,-0.11,-80.32,30.52,29.48
2026-07-27 12:16:22.009,0.87,0.39,-0.11,-80.32,30.52,29.48
2026-07-27 12:16:22.009,1.05,0.17,-0.09,-148.5,41.26,48.89
2026-07-27 12:16:22.084,1.05,0.17,-0.09,-148.5,41.26,48.89
2026-07-27 12:16:22.084,1.2,0.02,0.04,-160.95,49.44,72.81
2026-07-27 12:16:22.190,1.18,0.02,0.08,-95.09,64.15,82.58
2026-07-27 12:16:22.190,1.18,0.02,0.08,-95.09,64.15,82.58
2026-07-27 12:16:22.190,1.08,0.02,0.06,-12.76,77.58,77.15
2026-07-27 12:16:22.196,1.08,0.02,0.06,-12.76,77.58,77.15
2026-07-27 12:16:22.196,0.94,-0.01,0.07,39.98,78.55,68.54
2026-07-27 12:16:22.196,0.94,-0.01,0.07,60.42,63.72,59.45
2026-07-27 12:16:22.243,0.78,-0.0,0.12,60.42,63.72,59.45
2026-07-27 12:16:22.243,0.66,0.06,0.19,60.36,33.81,40.47
2026-07-27 12:16:22.380,0.66,0.06,0.19,60.36,33.81,40.47
2026-07-27 12:16:22.381,0.62,0.06,0.27,44.13,-5.31,7.08
2026-07-27 12:16:22.382,0.75,-0.07,0.34,15.69,-43.82,-31.07
2026-07-27 12:16:22.492,0.75,-0.07,0.34,15.69,-43.82,-31.07
2026-07-27 12:16:22.495,1.0,-0.37,0.4,-4.52,-66.28,-54.02
2026-07-27 12:16:22.495,1.0,-0.37,0.4,-4.52,-66.28,-54.02
2026-07-27 12:16:22.497,1.18,-0.41,0.37,-9.4,-61.95,-42.24
2026-07-27 12:16:22.497,1.18,-0.41,0.37,-9.4,-61.95,-42.24
2026-07-27 12:16:22.555,1.36,-0.04,0.19,-14.22,-52.19,-15.56
2026-07-27 12:16:22.611,1.19,0.23,-0.01,-14.1,-42.48,-12.15
2026-07-27 12:16:22.611,1.19,0.23,-0.01,-14.1,-42.48,-12.15
2026-07-27 12:16:22.611,0.72,0.23,-0.21,-16.91,-21.42,-27.83
2026-07-27 12:16:22.611,0.72,0.23,-0.21,-16.91,-21.42,-27.83
2026-07-27 12:16:22.611,0.75,0.09,-0.32,-16.78,-16.78,-47.12
2026-07-27 12:16:22.611,0.75,0.09,-0.32,-16.78,-16.78,-47.12
2026-07-27 12:16:22.611,1.03,-0.08,-0.15,-0.24,-35.4,-60.36
2026-07-27 12:16:22.670,1.05,-0.11,0.02,29.11,-29.48,-52.55
2026-07-27 12:16:22.670,1.05,-0.11,0.02,29.11,-29.48,-52.55
2026-07-27 12:16:22.749,0.96,0.05,-0.01,76.6,0.55,-26.92
2026-07-27 12:16:22.752,0.96,0.05,-0.01,76.6,0.55,-26.92
2026-07-27 12:16:22.753,0.93,0.19,-0.09,92.29,7.93,-4.46
2026-07-27 12:16:22.791,0.93,0.19,-0.09,92.29,7.93,-4.46
2026-07-27 12:16:22.791,0.92,0.08,-0.05,63.29,-6.96,-0.37
2026-07-27 12:16:22.791,0.94,-0.1,0.01,39.61,-18.98,-5.98
2026-07-27 12:16:22.854,0.94,-0.1,0.01,39.61,-18.98,-5.98
2026-07-27 12:16:22.855,0.98,-0.1,0.02,44.92,-23.8,-8.67
2026-07-27 12:16:22.856,0.98,-0.1,0.02,44.92,-23.8,-8.67
2026-07-27 12:16:23.028,1.06,0.0,0.01,56.15,-26.79,-8.3
2026-07-27 12:16:23.028,1.06,0.0,0.01,56.15,-26.79,-8.3
2026-07-27 12:16:23.028,1.11,0.05,0.02,46.51,-25.7,-5.68
2026-07-27 12:16:23.035,1.14,-0.04,0.01,40.1,-15.87,-4.33
2026-07-27 12:16:23.035,1.14,-0.04,0.01,40.1,-15.87,-4.33
2026-07-27 12:16:23.035,1.21,-0.08,0.02,49.74,-3.54,-3.97
2026-07-27 12:16:23.035,1.21,-0.08,0.02,49.74,-3.54,-3.97
2026-07-27 12:16:23.035,1.14,0.12,0.07,46.87,5.37,2.5
2026-07-27 12:16:23.160,1.14,0.12,0.07,46.87,5.37,2.5
2026-07-27 12:16:23.160,0.96,0.39,0.03,15.93,23.8,8.36
2026-07-27 12:16:23.160,0.95,0.39,-0.06,-52.92,48.16,14.28
2026-07-27 12:16:23.160,0.95,0.39,-0.06,-52.92,48.16,14.28
2026-07-27 12:16:23.160,1.05,0.21,-0.06,-132.87,58.35,36.38
2026-07-27 12:16:23.212,1.05,0.21,-0.06,-132.87,58.35,36.38
2026-07-27 12:16:23.212,1.12,0.11,0.0,-154.11,62.19,65.8
2026-07-27 12:16:23.273,1.12,0.11,0.0,-117.0,73.36,81.24
2026-07-27 12:16:23.273,1.1,0.11,0.02,-117.0,73.36,81.24
2026-07-27 12:16:23.273,1.02,0.04,0.05,-80.93,78.98,83.62
2026-07-27 12:16:23.394,1.02,0.04,0.05,-80.93,78.98,83.62
2026-07-27 12:16:23.394,0.93,-0.11,0.11,-54.69,64.33,81.36
2026-07-27 12:16:23.394,0.93,-0.11,0.11,-54.69,64.33,81.36
2026-07-27 12:16:23.394,0.79,-0.19,0.16,-0.43,40.95,67.38
2026-07-27 12:16:23.399,0.64,-0.15,0.18,66.71,20.2,34.06
2026-07-27 12:16:23.513,0.64,-0.15,0.18,66.71,20.2,34.06
2026-07-27 12:16:23.628,0.58,-0.11,0.2,98.88,-3.66,-10.19
2026-07-27 12:16:23.700,0.58,-0.11,0.2,98.88,-3.66,-10.19
2026-07-27 12:16:23.700,0.75,-0.19,0.33,84.72,-38.76,-45.78
2026-07-27 12:16:23.700,0.75,-0.19,0.33,84.72,-38.76,-45.78
2026-07-27 12:16:23.700,1.05,-0.35,0.47,52.67,-73.49,-53.1
2026-07-27 12:16:23.812,1.17,-0.31,0.46,23.38,-76.23,-26.43
2026-07-27 12:16:23.814,1.17,-0.31,0.46,23.38,-76.23,-26.43
2026-07-27 12:16:23.814,1.25,0.03,0.25,-4.94,-53.34,0.31
2026-07-27 12:16:23.882,1.25,0.03,0.25,-4.94,-53.34,0.31
2026-07-27 12:16:23.928,1.28,0.33,0.01,-18.8,-38.39,-4.88
2026-07-27 12:16:23.928,1.28,0.33,0.01,-18.8,-38.39,-4.88
2026-07-27 12:16:23.928,0.94,0.39,-0.18,-32.17,-29.05,-23.93
2026-07-27 12:16:23.928,0.69,0.22,-0.37,-59.14,-18.92,-37.96
2026-07-27 12:16:23.928,0.69,0.22,-0.37,-59.14,-18.92,-37.96
2026-07-27 12:16:23.928,0.9,-0.05,-0.3,-71.11,-32.96,-47.91
2026-07-27 12:16:23.928,0.9,-0.05,-0.3,-71.11,-32.96,-47.91
2026-07-27 12:16:23.928,1.06,-0.16,-0.03,-47.67,-53.28,-46.08
2026-07-27 12:16:23.928,1.06,-0.16,-0.03,-47.67,-53.28,-46.08
2026-07-27 12:16:23.928,0.99,-0.03,0.02,-3.72,-35.22,-28.75
2026-07-27 12:16:23.928,0.94,0.11,-0.06,22.4,-5.43,-10.93
2026-07-27 12:16:23.928,0.94,0.11,-0.06,22.4,-5.43,-10.93
2026-07-27 12:16:23.928,0.94,0.03,-0.03,10.01,-2.08,-5.55
2026-07-27 12:16:23.928,0.94,0.03,-0.03,10.01,-2.08,-5.55
2026-07-27 12:16:24.228,0.93,-0.14,0.02,-9.95,-5.07,-11.29
2026-07-27 12:16:24.228,0.93,-0.14,0.02,5.43,-5.43,-18.98
2026-07-27 12:16:24.228,0.95,-0.15,0.0,5.43,-5.43,-18.98
2026-07-27 12:16:24.228,1.04,-0.05,0.01,38.82,-20.75,-20.32
2026-07-27 12:16:24.228,1.04,-0.05,0.01,38.82,-20.75,-20.32
2026-07-27 12:16:24.228,1.12,-0.06,0.07,51.33,-39.55,-16.42
2026-07-27 12:16:24.228,1.12,-0.06,0.07,51.33,-39.55,-16.42
2026-07-27 12:16:24.228,1.12,-0.2,0.1,44.01,-33.75,-13.0
2026-07-27 12:16:24.228,1.12,-0.2,0.1,45.78,-6.04,-9.95
2026-07-27 12:16:24.228,1.16,-0.23,0.05,45.78,-6.04,-9.95
2026-07-27 12:16:24.228,1.21,0.02,0.0,60.3,16.91,-1.77
2026-07-27 12:16:24.228,1.21,0.02,0.0,60.3,16.91,-1.77
2026-07-27 12:16:24.415,1.08,0.41,-0.06,37.96,34.55,14.16
2026-07-27 12:16:24.416,1.08,0.41,-0.06,37.96,34.55,14.16
2026-07-27 12:16:24.416,0.97,0.55,-0.17,-52.06,55.85,33.02
2026-07-27 12:16:24.416,1.06,0.37,-0.12,-176.88,67.38,52.37
2026-07-27 12:16:24.416,1.06,0.37,-0.12,-176.88,67.38,52.37
2026-07-27 12:16:24.416,1.14,0.11,0.06,-236.57,72.75,66.28
2026-07-27 12:16:24.592,1.14,0.11,0.06,-236.57,72.75,66.28
2026-07-27 12:16:24.592,1.08,-0.05,0.16,-169.49,85.75,67.99
2026-07-27 12:16:24.592,0.96,-0.06,0.12,-52.61,97.78,63.96
2026-07-27 12:16:24.592,0.96,-0.06,0.12,-52.61,97.78,63.96
2026-07-27 12:16:24.592,0.86,-0.06,0.08,18.98,85.88,58.35
2026-07-27 12:16:24.602,0.86,-0.06,0.08,18.98,85.88,58.35
2026-07-27 12:16:24.607,0.77,-0.09,0.12,41.81,49.26,47.61
2026-07-27 12:16:24.607,0.77,-0.09,0.12,41.81,49.26,47.61
2026-07-27 12:16:24.607,0.64,-0.07,0.16,52.86,10.25,25.15
2026-07-27 12:16:24.607,0.61,-0.07,0.22,56.76,-26.37,-12.51
2026-07-27 12:16:24.655,0.61,-0.07,0.22,56.76,-26.37,-12.51
2026-07-27 12:16:24.655,0.88,-0.14,0.36,49.68,-66.1,-52.06
2026-07-27 12:16:24.655,0.88,-0.14,0.36,49.68,-66.1,-52.06
2026-07-27 12:16:24.655,1.29,-0.23,0.49,27.71,-92.1,-57.01
2026-07-27 12:16:24.719,1.29,-0.23,0.49,-18.55,-76.9,-18.25
2026-07-27 12:16:24.719,1.4,-0.05,0.42,-18.55,-76.9,-18.25
2026-07-27 12:16:24.778,1.2,0.27,0.19,-57.92,-40.22,5.25
2026-07-27 12:16:24.778,1.2,0.27,0.19,-57.92,-40.22,5.25
2026-07-27 12:16:24.778,0.88,0.25,-0.09,-63.35,-12.33,-19.17
2026-07-27 12:16:24.830,0.88,0.25,-0.09,-63.35,-12.33,-19.17
2026-07-27 12:16:24.830,0.69,0.01,-0.32,-70.8,-1.04,-52.73
2026-07-27 12:16:24.951,0.87,-0.25,-0.25,-59.27,-10.44,-66.89
2026-07-27 12:16:24.951,0.87,-0.25,-0.25,-59.27,-10.44,-66.89
2026-07-27 12:16:24.951,1.13,-0.42,-0.02,22.03,-20.14,-57.68
2026-07-27 12:16:24.951,1.13,-0.42,-0.02,22.03,-20.14,-57.68
2026-07-27 12:16:24.951,1.08,-0.19,0.0,92.1,-9.16,-26.43
2026-07-27 12:16:24.951,1.08,-0.19,0.0,92.1,-9.16,-26.43
2026-07-27 12:16:25.069,0.89,0.26,-0.12,62.38,-12.33,-0.31
2026-07-27 12:16:25.069,0.82,0.4,-0.12,7.51,-35.58,0.79
2026-07-27 12:16:25.069,0.82,0.4,-0.12,7.51,-35.58,0.79
2026-07-27 12:16:25.069,0.87,0.16,-0.06,-3.78,-37.84,-8.91
2026-07-27 12:16:25.069,0.87,0.16,-0.06,-3.78,-37.84,-8.91
2026-07-27 12:16:25.196,0.96,-0.05,-0.05,18.55,-29.11,-18.98
2026-07-27 12:16:25.208,0.96,-0.05,-0.05,18.55,-29.11,-18.98
2026-07-27 12:16:25.210,1.04,-0.03,-0.04,74.77,-37.23,-30.46
2026-07-27 12:16:25.313,1.08,0.01,0.04,113.16,-58.11,-35.64
2026-07-27 12:16:25.315,1.08,0.01,0.04,113.16,-58.11,-35.64
2026-07-27 12:16:25.315,1.1,-0.03,0.08,83.25,-56.27,-25.82
2026-07-27 12:16:25.315,1.1,-0.03,0.08,83.25,-56.27,-25.82
2026-07-27 12:16:25.316,1.09,-0.15,0.01,19.47,-21.55,-8.42
2026-07-27 12:16:25.316,1.09,-0.15,0.01,19.47,-21.55,-8.42
2026-07-27 12:16:25.316,1.13,-0.17,-0.05,-14.71,9.4,5.07
2026-07-27 12:16:25.371,1.18,0.02,-0.0,-12.57,26.98,12.21
2026-07-27 12:16:25.498,1.18,0.02,-0.0,-12.57,26.98,12.21
2026-07-27 12:16:25.498,1.09,0.31,-0.03,-9.28,61.04,18.37
2026-07-27 12:16:25.499,1.09,0.31,-0.03,-9.28,61.04,18.37
2026-07-27 12:16:25.499,0.96,0.44,-0.21,-41.5,93.02,32.65
2026-07-27 12:16:25.499,0.96,0.44,-0.21,-41.5,93.02,32.65
2026-07-27 12:16:25.500,1.01,0.28,-0.2,-129.52,82.95,54.75
2026-07-27 12:16:25.500,1.14,-0.02,0.01,-192.69,57.98,68.73
2026-07-27 12:16:25.500,1.14,-0.02,0.01,-192.69,57.98,68.73
2026-07-27 12:16:25.678,1.16,-0.16,0.15,-140.32,53.34,70.62
2026-07-27 12:16:25.678,1.16,-0.16,0.15,-140.32,53.34,70.62
2026-07-27 12:16:25.678,1.03,-0.05,0.1,-20.87,62.44,68.36
2026-07-27 12:16:25.678,0.91,0.05,0.06,57.74,60.49,64.33
2026-07-27 12:16:25.678,0.91,0.05,0.06,57.74,60.49,64.33
2026-07-27 12:16:25.678,0.82,0.08,0.08,84.23,50.6,55.42
2026-07-27 12:16:25.678,0.82,0.08,0.08,84.23,50.6,55.42
2026-07-27 12:16:25.792,0.7,0.11,0.14,90.27,38.21,34.42
2026-07-27 12:16:25.792,0.7,0.11,0.14,90.27,38.21,34.42
2026-07-27 12:16:25.792,0.64,0.09,0.2,69.64,10.86,-0.49
2026-07-27 12:16:25.792,0.79,-0.0,0.28,36.62,-26.12,-42.3
2026-07-27 12:16:25.792,0.79,-0.0,0.28,36.62,-26.12,-42.3
2026-07-27 12:16:25.792,1.1,-0.15,0.41,16.48,-58.72,-69.27
2026-07-27 12:16:25.909,1.1,-0.15,0.41,16.48,-58.72,-69.27
2026-07-27 12:16:25.909,1.18,-0.24,0.42,4.46,-65.8,-56.58
2026-07-27 12:16:25.909,1.18,-0.24,0.42,4.46,-65.8,-56.58
2026-07-27 12:16:25.909,1.09,-0.08,0.28,-39.43,-54.5,-17.46
2026-07-27 12:16:25.909,1.2,0.12,0.11,-78.12,-53.16,-5.86
2026-07-27 12:16:25.972,1.2,0.12,0.11,-78.12,-53.16,-5.86
2026-07-27 12:16:25.972,1.09,0.16,-0.08,-62.01,-47.42,-26.43
2026-07-27 12:16:25.972,1.09,0.16,-0.08,-62.01,-47.42,-26.43
2026-07-27 12:16:26.098,0.76,0.16,-0.24,-33.45,-19.23,-40.34
2026-07-27 12:16:26.273,0.76,0.16,-0.24,-8.61,-0.79,-45.1
2026-07-27 12:16:26.273,0.79,0.03,-0.27,-8.61,-0.79,-45.1
2026-07-27 12:16:26.273,1.0,-0.15,-0.08,24.96,-10.68,-46.33
2026-07-27 12:16:26.273,1.0,-0.15,-0.08,24.96,-10.68,-46.33
2026-07-27 12:16:26.273,1.02,-0.03,0.05,61.04,-18.13,-33.08
2026-07-27 12:16:26.273,1.02,-0.03,0.05,61.04,-18.13,-33.08
2026-07-27 12:16:26.273,0.95,0.24,-0.05,77.15,-6.59,-14.95
2026-07-27 12:16:26.273,0.95,0.24,-0.05,77.15,-6.59,-14.95
2026-07-27 12:16:26.278,0.95,0.24,-0.05,77.15,-6.59,-14.95
2026-07-27 12:16:26.278,0.95,0.24,-0.05,77.15,-6.59,-14.95
2026-07-27 12:16:26.289,0.92,-0.06,-0.01,19.23,-16.3,-8.24
2026-07-27 12:16:26.289,0.92,-0.06,-0.01,33.63,-31.31,-9.64
2026-07-27 12:16:26.289,0.94,-0.11,0.01,33.63,-31.31,-9.64
2026-07-27 12:16:26.337,0.99,-0.01,0.05,61.4,-41.75,-8.67
2026-07-27 12:16:26.337,0.99,-0.01,0.05,61.4,-41.75,-8.67
2026-07-27 12:16:26.394,1.07,0.03,0.07,48.28,-37.84,-3.78
2026-07-27 12:16:26.394,1.09,-0.05,0.05,4.52,-20.63,3.66
2026-07-27 12:16:26.573,1.09,-0.05,0.05,4.52,-20.63,3.66
2026-07-27 12:16:26.573,1.1,-0.19,0.04,-25.51,-7.69,9.03
2026-07-27 12:16:26.573,1.1,-0.19,0.04,-25.51,-7.69,9.03
2026-07-27 12:16:26.573,1.18,-0.18,0.06,-6.96,-5.37,7.51
2026-07-27 12:16:26.573,1.18,-0.18,0.06,-6.96,-5.37,7.51
2026-07-27 12:16:26.573,1.2,0.02,0.08,28.69,6.59,4.27
2026-07-27 12:16:26.573,1.2,0.02,0.08,28.69,6.59,4.27
2026-07-27 12:16:26.573,1.2,0.02,0.08,28.69,6.59,4.27
2026-07-27 12:16:26.573,1.2,0.02,0.08,28.69,6.59,4.27
2026-07-27 12:16:26.636,0.97,0.4,-0.19,-33.51,72.81,28.99
2026-07-27 12:16:26.638,0.97,0.4,-0.19,-33.51,72.81,28.99
2026-07-27 12:16:26.638,0.97,0.4,-0.19,-33.51,72.81,28.99
2026-07-27 12:16:26.693,0.97,0.4,-0.19,-33.51,72.81,28.99
2026-07-27 12:16:26.693,1.19,-0.05,0.02,-177.8,54.75,85.08
2026-07-27 12:16:26.986,1.13,-0.07,0.1,-88.44,61.22,87.77
2026-07-27 12:16:26.986,1.13,-0.07,0.1,-88.44,61.22,87.77
2026-07-27 12:16:26.986,1.01,-0.0,0.06,23.13,71.04,73.06
2026-07-27 12:16:26.986,1.01,-0.0,0.06,23.13,71.04,73.06
2026-07-27 12:16:26.986,0.87,0.02,0.03,73.3,62.44,58.65
2026-07-27 12:16:27.054,0.87,0.02,0.03,73.3,62.44,58.65
2026-07-27 12:16:27.054,0.71,0.04,0.08,77.82,43.82,49.07
2026-07-27 12:16:27.054,0.6,0.09,0.19,76.23,21.67,31.31
2026-07-27 12:16:27.054,0.6,0.09,0.19,76.23,21.67,31.31
2026-07-27 12:16:27.055,0.63,0.04,0.29,58.17,-12.21,-2.62
2026-07-27 12:16:27.113,0.63,0.04,0.29,58.17,-12.21,-2.62
2026-07-27 12:16:27.113,0.88,-0.17,0.34,26.18,-48.71,-42.36
2026-07-27 12:16:27.113,0.88,-0.17,0.34,14.4,-67.14,-59.51
2026-07-27 12:16:27.113,1.17,-0.42,0.37,14.4,-67.14,-59.51
2026-07-27 12:16:27.113,1.18,-0.3,0.35,11.11,-61.04,-33.69
2026-07-27 12:16:27.113,1.18,-0.3,0.35,11.11,-61.04,-33.69
2026-07-27 12:16:27.113,1.21,0.14,0.25,-20.51,-54.87,-3.91
2026-07-27 12:16:27.113,1.21,0.14,0.25,-20.51,-54.87,-3.91
2026-07-27 12:16:27.113,1.27,0.27,0.07,-51.76,-52.92,-15.5
2026-07-27 12:16:27.406,1.27,0.27,0.07,-58.53,-32.1,-40.71
2026-07-27 12:16:27.406,0.91,0.15,-0.16,-58.53,-32.1,-40.71
2026-07-27 12:16:27.415,0.65,0.06,-0.34,-36.25,-3.72,-49.87
2026-07-27 12:16:27.415,0.65,0.06,-0.34,-36.25,-3.72,-49.87
2026-07-27 12:16:27.415,0.91,-0.13,-0.26,17.15,-2.81,-49.38
2026-07-27 12:16:27.415,0.91,-0.13,-0.26,17.15,-2.81,-49.38
2026-07-27 12:16:27.415,1.1,-0.17,0.01,40.95,-35.03,-31.49
2026-07-27 12:16:27.415,1.1,-0.17,0.01,26.55,-49.68,-4.88
2026-07-27 12:16:27.415,0.95,0.11,0.02,26.55,-49.68,-4.88
2026-07-27 12:16:27.415,0.88,0.23,-0.13,12.57,-31.49,-0.06
2026-07-27 12:16:27.415,0.88,0.23,-0.13,12.57,-31.49,-0.06
2026-07-27 12:16:27.415,0.93,0.02,-0.1,2.5,-27.53,-11.54
2026-07-27 12:16:27.415,0.93,0.02,-0.1,2.5,-27.53,-11.54
2026-07-27 12:16:27.415,0.96,-0.12,-0.05,13.85,-34.36,-20.32
2026-07-27 12:16:27.589,0.98,-0.07,-0.04,57.86,-29.66,-25.09
2026-07-27 12:16:27.589,0.98,-0.07,-0.04,57.86,-29.66,-25.09
2026-07-27 12:16:27.898,1.01,-0.01,-0.05,77.27,-23.8,-24.84
2026-07-27 12:16:27.954,1.01,-0.01,-0.05,77.27,-23.8,-24.84
2026-07-27 12:16:28.004,1.05,0.02,-0.07,34.42,-22.4,-15.99
2026-07-27 12:16:28.004,1.05,0.02,-0.07,34.42,-22.4,-15.99
2026-07-27 12:16:28.004,1.08,-0.04,-0.07,-11.11,-21.73,-5.55
2026-07-27 12:16:28.131,1.13,-0.17,-0.04,-3.42,-16.6,-3.36
2026-07-27 12:16:28.131,1.13,-0.17,-0.04,-3.42,-16.6,-3.36
2026-07-27 12:16:28.131,1.19,-0.19,-0.01,38.45,-5.86,-7.32
2026-07-27 12:16:28.131,1.19,-0.19,-0.01,38.45,-5.86,-7.32
2026-07-27 12:16:28.131,1.17,-0.0,0.03,55.97,15.99,-6.04
2026-07-27 12:16:28.131,1.17,-0.0,0.03,55.97,15.99,-6.04
2026-07-27 12:16:28.131,1.01,0.29,0.0,31.92,54.99,4.15
2026-07-27 12:16:28.131,1.01,0.29,0.0,-29.05,86.73,19.84
2026-07-27 12:16:28.131,0.91,0.39,-0.14,-29.05,86.73,19.84
2026-07-27 12:16:28.131,1.03,0.18,-0.17,-131.47,85.69,45.65
2026-07-27 12:16:28.131,1.03,0.18,-0.17,-131.47,85.69,45.65
2026-07-27 12:16:28.131,1.17,-0.03,-0.03,-198.55,67.26,77.7
2026-07-27 12:16:28.131,1.17,-0.03,-0.03,-198.55,67.26,77.7
2026-07-27 12:16:28.141,1.19,-0.09,0.05,-176.33,47.97,104.8
2026-07-27 12:16:28.141,1.12,-0.14,0.09,-76.97,51.7,118.84
2026-07-27 12:16:28.141,1.12,-0.14,0.09,-76.97,51.7,118.84
2026-07-27 12:16:28.141,1.0,-0.18,0.1,62.01,75.5,111.02
2026-07-27 12:16:28.146,1.0,-0.18,0.1,62.01,75.5,111.02
2026-07-27 12:16:28.146,0.8,-0.08,0.07,144.78,78.25,84.47
2026-07-27 12:16:28.146,0.8,-0.08,0.07,144.78,78.25,84.47
2026-07-27 12:16:28.146,0.58,0.1,0.12,135.38,50.72,49.87
2026-07-27 12:16:28.146,0.48,0.12,0.28,81.54,5.37,10.13
2026-07-27 12:16:28.146,0.48,0.12,0.28,81.54,5.37,10.13
2026-07-27 12:16:28.146,0.6,-0.05,0.39,33.81,-39.37,-37.72
2026-07-27 12:16:28.305,0.6,-0.05,0.39,33.81,-39.37,-37.72
2026-07-27 12:16:28.378,0.96,-0.3,0.4,7.45,-75.5,-78.92
2026-07-27 12:16:28.378,0.96,-0.3,0.4,-7.2,-92.9,-79.96
2026-07-27 12:16:28.451,1.35,-0.48,0.36,-7.2,-92.9,-79.96
2026-07-27 12:16:28.480,1.51,-0.19,0.28,-30.88,-81.91,-38.02
2026-07-27 12:16:28.914,1.51,-0.19,0.28,-30.88,-81.91,-38.02
2026-07-27 12:16:28.915,1.25,0.21,0.12,-38.76,-55.91,-12.27
2026-07-27 12:16:28.915,0.71,0.24,-0.12,-28.87,-28.44,-29.11
2026-07-27 12:16:29.033,0.71,0.24,-0.12,-28.87,-28.44,-29.11
2026-07-27 12:16:29.033,0.56,0.18,-0.31,-36.99,-16.66,-51.64
2026-07-27 12:16:29.033,0.56,0.18,-0.31,-36.99,-16.66,-51.64
2026-07-27 12:16:29.033,0.93,0.03,-0.27,-34.3,-23.01,-69.46
2026-07-27 12:16:29.033,0.93,0.03,-0.27,-34.3,-23.01,-69.46
2026-07-27 12:16:29.033,1.16,-0.21,-0.03,-9.4,-24.78,-77.03
2026-07-27 12:16:29.033,1.09,-0.18,0.06,41.5,-12.76,-51.94
2026-07-27 12:16:29.033,1.09,-0.18,0.06,41.5,-12.76,-51.94
2026-07-27 12:16:29.033,0.95,0.1,-0.04,62.62,0.37,-10.19
2026-07-27 12:16:29.033,0.95,0.1,-0.04,62.62,0.37,-10.19
2026-07-27 12:16:29.033,0.84,0.18,-0.1,6.47,-5.62,10.86
2026-07-27 12:16:29.091,0.84,0.18,-0.1,6.47,-5.62,10.86
2026-07-27 12:16:29.091,0.85,0.1,-0.07,-24.23,-21.67,7.2
2026-07-27 12:16:29.091,0.93,0.05,-0.02,11.72,-34.48,-6.04
2026-07-27 12:16:29.091,0.93,0.05,-0.02,11.72,-34.48,-6.04
2026-07-27 12:16:29.097,1.04,0.01,0.09,51.21,-53.96,-16.11
2026-07-27 12:16:29.213,1.04,0.01,0.09,51.21,-53.96,-16.11
2026-07-27 12:16:29.213,1.14,-0.11,0.19,61.77,-64.51,-16.24
2026-07-27 12:16:29.213,1.14,-0.11,0.19,61.77,-64.51,-16.24
2026-07-27 12:16:29.213,1.16,-0.28,0.12,44.92,-36.32,-9.7
2026-07-27 12:16:29.213,1.17,-0.28,-0.02,14.47,5.31,-2.26
2026-07-27 12:16:29.213,1.17,-0.28,-0.02,14.47,5.31,-2.26
2026-07-27 12:16:29.213,1.22,-0.06,-0.07,2.08,24.05,3.85
2026-07-27 12:16:29.213,1.22,-0.06,-0.07,2.08,24.05,3.85
2026-07-27 12:16:29.213,1.11,0.33,-0.06,17.21,34.85,10.62
2026-07-27 12:16:29.213,1.11,0.33,-0.06,17.21,34.85,10.62
2026-07-27 12:16:29.213,0.94,0.58,-0.16,5.31,51.09,20.57
2026-07-27 12:16:29.213,0.94,0.58,-0.16,5.31,51.09,20.57
2026-07-27 12:16:29.213,1.0,0.34,-0.21,-100.71,60.42,43.64
2026-07-27 12:16:29.213,1.16,-0.06,-0.05,-208.31,66.28,76.35
2026-07-27 12:16:29.213,1.16,-0.06,-0.05,-208.31,66.28,76.35
2026-07-27 12:16:29.213,1.19,-0.25,0.07,-172.24,78.86,92.65
2026-07-27 12:16:29.223,1.19,-0.25,0.07,-172.24,78.86,92.65
2026-07-27 12:16:29.223,1.1,-0.22,0.08,-37.05,88.2,87.83
2026-07-27 12:16:29.225,1.1,-0.22,0.08,75.68,87.1,76.97
2026-07-27 12:16:29.225,0.96,-0.08,0.03,75.68,87.1,76.97
2026-07-27 12:16:29.225,0.79,0.03,0.05,118.84,73.73,66.59
2026-07-27 12:16:29.447,0.79,0.03,0.05,118.84,73.73,66.59
2026-07-27 12:16:29.447,0.6,0.09,0.18,109.68,43.58,49.93
2026-07-27 12:16:29.463,0.6,0.09,0.18,109.68,43.58,49.93
2026-07-27 12:16:29.512,0.51,0.07,0.33,75.26,-1.95,17.52
2026-07-27 12:16:29.513,0.65,-0.06,0.38,39.37,-45.65,-27.47
2026-07-27 12:16:29.515,0.65,-0.06,0.38,39.37,-45.65,-27.47
2026-07-27 12:16:29.572,0.98,-0.23,0.36,15.62,-76.97,-62.32
2026-07-27 12:16:29.573,0.98,-0.23,0.36,15.62,-76.97,-62.32
2026-07-27 12:16:29.575,1.23,-0.28,0.34,1.83,-88.68,-60.12
2026-07-27 12:16:29.575,1.23,-0.28,0.34,1.83,-88.68,-60.12
2026-07-27 12:16:29.575,1.42,-0.05,0.26,-35.22,-85.57,-27.1
2026-07-27 12:16:29.575,1.32,0.2,0.07,-76.72,-67.99,-11.96
2026-07-27 12:16:29.575,1.32,0.2,0.07,-76.72,-67.99,-11.96
2026-07-27 12:16:29.577,0.76,0.21,-0.17,-72.88,-26.61,-31.8
2026-07-27 12:16:29.578,0.76,0.21,-0.17,-72.88,-26.61,-31.8
2026-07-27 12:16:29.578,0.58,0.2,-0.34,-44.25,8.54,-59.2
2026-07-27 12:16:29.578,0.58,0.2,-0.34,-44.25,8.54,-59.2
2026-07-27 12:16:29.580,0.97,-0.02,-0.22,-13.18,8.79,-78.61
2026-07-27 12:16:29.580,1.17,-0.24,0.06,22.16,-16.54,-68.66
2026-07-27 12:16:29.641,1.17,-0.24,0.06,22.16,-16.54,-68.66
2026-07-27 12:16:29.874,1.03,-0.05,0.09,29.97,-33.63,-28.63
2026-07-27 12:16:29.874,1.03,-0.05,0.09,29.97,-33.63,-28.63
2026-07-27 12:16:29.874,0.91,0.17,-0.07,-0.55,-26.06,-0.61
2026-07-27 12:16:30.178,0.89,0.09,-0.12,-23.01,-22.83,3.72
2026-07-27 12:16:30.178,0.89,0.09,-0.12,-23.01,-22.83,3.72
2026-07-27 12:16:30.178,0.95,-0.03,-0.02,-1.4,-46.87,-0.06
2026-07-27 12:16:30.178,0.95,-0.03,-0.02,-1.4,-46.87,-0.06
2026-07-27 12:16:30.178,1.03,-0.04,0.14,57.25,-70.43,-9.03
2026-07-27 12:16:30.178,1.03,-0.04,0.14,57.25,-70.43,-9.03
2026-07-27 12:16:30.178,1.08,-0.05,0.16,99.43,-55.85,-18.55
2026-07-27 12:16:30.178,1.08,-0.05,0.16,99.43,-55.85,-18.55
2026-07-27 12:16:30.178,1.08,-0.05,0.16,99.43,-55.85,-18.55
2026-07-27 12:16:30.178,1.08,-0.05,0.16,99.43,-55.85,-18.55
2026-07-27 12:16:30.178,1.09,-0.2,-0.05,23.74,13.24,-7.26
2026-07-27 12:16:30.178,1.21,-0.12,-0.06,-2.69,21.91,4.03
2026-07-27 12:16:30.464,1.21,-0.12,-0.06,-2.69,21.91,4.03
2026-07-27 12:16:30.464,1.18,0.27,-0.03,4.09,27.89,16.91
2026-07-27 12:16:30.464,1.18,0.27,-0.03,4.09,27.89,16.91
2026-07-27 12:16:30.464,1.04,0.56,-0.12,-15.75,45.04,32.59
2026-07-27 12:16:30.464,1.04,0.56,-0.12,-15.75,45.04,32.59
2026-07-27 12:16:30.464,1.09,0.38,-0.16,-110.35,54.32,54.57
2026-07-27 12:16:30.464,1.19,0.05,-0.03,-194.64,58.35,79.9
2026-07-27 12:16:30.478,1.19,0.05,-0.03,-194.64,58.35,79.9
2026-07-27 12:16:30.478,1.13,-0.11,0.06,-153.32,79.22,87.52
2026-07-27 12:16:30.478,1.13,-0.11,0.06,-153.32,79.22,87.52
2026-07-27 12:16:30.478,1.02,-0.09,0.07,-43.88,99.18,74.52
2026-07-27 12:16:30.478,1.02,-0.09,0.07,-43.88,99.18,74.52
2026-07-27 12:16:30.480,0.91,-0.02,0.02,35.22,97.17,60.42
2026-07-27 12:16:30.480,0.78,0.02,0.02,62.93,71.04,53.65
2026-07-27 12:16:30.480,0.78,0.02,0.02,62.93,71.04,53.65
2026-07-27 12:16:30.480,0.61,0.07,0.13,62.5,30.64,39.86
2026-07-27 12:16:30.480,0.61,0.07,0.13,62.5,30.64,39.86
2026-07-27 12:16:30.480,0.61,0.07,0.13,62.5,30.64,39.86
2026-07-27 12:16:30.480,0.61,0.07,0.13,62.5,30.64,39.86
2026-07-27 12:16:30.480,0.67,-0.09,0.31,29.54,-46.87,-41.14
2026-07-27 12:16:30.480,1.1,-0.26,0.36,21.0,-75.44,-70.92
2026-07-27 12:16:30.480,1.1,-0.26,0.36,21.0,-75.44,-70.92
2026-07-27 12:16:30.480,1.48,-0.27,0.36,1.59,-81.6,-51.03
2026-07-27 12:16:30.480,1.48,-0.27,0.36,1.59,-81.6,-51.03
2026-07-27 12:16:30.542,1.56,0.07,0.22,-57.37,-64.39,-4.33
2026-07-27 12:16:30.546,1.56,0.07,0.22,-57.37,-64.39,-4.33
2026-07-27 12:16:30.719,1.14,0.41,-0.01,-84.11,-31.13,3.11
2026-07-27 12:16:30.719,0.57,0.48,-0.29,-63.9,3.72,-28.75
2026-07-27 12:16:30.719,0.57,0.48,-0.29,-63.9,3.72,-28.75
2026-07-27 12:16:30.719,0.64,0.41,-0.5,-70.8,9.09,-59.08
2026-07-27 12:16:30.719,0.64,0.41,-0.5,-70.8,9.09,-59.08
2026-07-27 12:16:30.719,1.04,0.15,-0.39,-108.03,-20.02,-73.18
2026-07-27 12:16:30.719,1.04,0.15,-0.39,-108.03,-20.02,-73.18
2026-07-27 12:16:30.719,1.17,-0.16,-0.08,-159.91,-47.24,-58.78
2026-07-27 12:16:30.833,1.12,-0.14,0.0,-171.14,-36.07,-26.61
2026-07-27 12:16:30.833,1.12,-0.14,0.0,-171.14,-36.07,-26.61
2026-07-27 12:16:30.833,1.02,0.01,-0.08,-114.62,-5.19,-7.69
2026-07-27 12:16:30.833,1.02,0.01,-0.08,-114.62,-5.19,-7.69
2026-07-27 12:16:30.833,0.91,0.08,-0.12,-60.85,8.85,-5.55
2026-07-27 12:16:30.833,0.91,0.08,-0.12,-60.85,8.85,-5.55
2026-07-27 12:16:30.893,0.91,0.05,-0.09,-66.04,-0.92,-5.0
2026-07-27 12:16:30.893,0.98,-0.03,-0.01,-93.75,-18.01,-4.15
2026-07-27 12:16:31.014,0.98,-0.03,-0.01,-93.75,-18.01,-4.15
2026-07-27 12:16:31.014,1.03,-0.18,0.03,-95.28,-20.08,-10.8
2026-07-27 12:16:31.190,1.03,-0.18,0.03,-95.28,-20.08,-10.8
2026-07-27 12:16:31.791,1.03,-0.34,0.04,-81.12,-3.17,-21.61
2026-07-27 12:16:32.157,1.03,-0.34,0.04,-81.12,-3.17,-21.61
2026-07-27 12:16:32.157,1.02,-0.34,0.07,-67.26,8.48,-20.32
2026-07-27 12:16:32.157,1.04,-0.31,0.03,-37.6,11.47,-10.99
2026-07-27 12:16:32.157,1.04,-0.31,0.03,-37.6,11.47,-10.99
2026-07-27 12:16:32.157,1.13,-0.28,0.09,14.59,1.95,-6.23
2026-07-27 12:16:32.157,1.13,-0.28,0.09,14.59,1.95,-6.23
2026-07-27 12:16:32.160,1.13,-0.05,0.15,71.23,-13.67,1.22
2026-07-27 12:16:32.160,1.13,-0.05,0.15,71.23,-13.67,1.22
2026-07-27 12:16:32.160,0.94,0.26,0.08,81.54,1.83,15.44
2026-07-27 12:16:32.160,0.94,0.26,0.08,-1.16,40.28,31.49
2026-07-27 12:16:32.161,0.84,0.33,0.05,-1.16,40.28,31.49
2026-07-27 12:16:32.161,1.03,0.09,0.11,-104.8,58.29,46.45
2026-07-27 12:16:32.161,1.03,0.09,0.11,-104.8,58.29,46.45
2026-07-27 12:16:32.161,1.23,-0.17,0.16,-103.88,42.24,55.6
2026-07-27 12:16:32.161,1.23,-0.17,0.16,-103.88,42.24,55.6
2026-07-27 12:16:32.161,1.21,-0.19,0.12,-4.03,15.08,57.86
2026-07-27 12:16:32.161,1.1,-0.03,0.01,91.49,-4.58,59.45
2026-07-27 12:16:32.161,1.1,-0.03,0.01,91.49,-4.58,59.45
2026-07-27 12:16:32.161,0.98,0.06,-0.06,129.82,-16.05,61.28
2026-07-27 12:16:32.161,0.98,0.06,-0.06,129.82,-16.05,61.28
2026-07-27 12:16:32.161,0.9,-0.0,-0.02,132.08,-18.19,61.34
2026-07-27 12:16:32.161,0.9,-0.0,-0.02,132.08,-18.19,61.34
2026-07-27 12:16:32.334,0.83,0.0,0.05,135.01,-12.27,57.62
2026-07-27 12:16:33.296,0.7,0.11,0.14,144.41,-10.44,42.79
2026-07-27 12:16:33.460,0.7,0.11,0.14,144.41,-10.44,42.79
2026-07-27 12:16:33.460,0.63,0.13,0.22,136.78,-17.64,10.5
2026-07-27 12:16:33.650,0.63,0.13,0.22,136.78,-17.64,10.5
2026-07-27 12:16:33.713,0.83,-0.01,0.28,103.52,-33.14,-33.26
2026-07-27 12:16:33.714,0.83,-0.01,0.28,103.52,-33.14,-33.26
2026-07-27 12:16:33.714,1.15,-0.38,0.3,88.99,-44.92,-64.51
2026-07-27 12:16:33.717,1.23,-0.5,0.21,96.5,-41.81,-55.6
2026-07-27 12:16:33.890,1.23,-0.5,0.21,96.5,-41.81,-55.6
2026-07-27 12:16:33.890,1.31,-0.11,0.06,59.08,-40.04,-31.31
2026-07-27 12:16:33.890,1.31,-0.11,0.06,59.08,-40.04,-31.31
2026-07-27 12:16:33.906,1.41,0.24,-0.04,17.82,-38.76,-32.41
2026-07-27 12:16:33.906,1.41,0.24,-0.04,17.82,-38.76,-32.41
2026-07-27 12:16:33.906,1.04,0.3,-0.06,37.48,-16.72,-50.17
2026-07-27 12:16:33.906,1.04,0.3,-0.06,37.48,-16.72,-50.17
2026-07-27 12:16:33.906,0.46,0.24,-0.06,85.39,15.44,-82.82
2026-07-27 12:16:33.910,0.25,0.25,-0.15,98.88,21.55,-122.13
2026-07-27 12:16:33.911,0.25,0.25,-0.15,98.88,21.55,-122.13
2026-07-27 12:16:33.911,0.71,0.36,-0.36,53.83,-35.22,-119.75
2026-07-27 12:16:33.911,0.71,0.36,-0.36,53.83,-35.22,-119.75
2026-07-27 12:16:33.948,1.18,0.37,-0.39,3.11,-94.97,-42.48
2026-07-27 12:16:33.948,1.18,0.37,-0.39,3.11,-94.97,-42.48
2026-07-27 12:16:33.948,1.12,0.02,-0.24,13.37,-119.08,41.08
2026-07-27 12:16:33.954,0.78,-0.23,-0.51,99.43,-268.31,47.79
2026-07-27 12:16:33.954,0.78,-0.23,-0.51,99.43,-268.31,47.79
2026-07-27 12:16:33.954,0.59,0.21,-0.85,141.11,-501.04,55.6
2026-07-27 12:16:34.192,0.59,0.21,-0.85,141.11,-501.04,55.6
2026-07-27 12:16:34.192,0.54,0.43,-1.0,91.19,-507.32,39.0
2026-07-27 12:16:34.366,0.54,0.43,-1.0,91.19,-507.32,39.0
2026-07-27 12:16:34.968,0.32,0.05,-1.18,54.5,-309.57,-45.72
2026-07-27 12:16:34.968,0.32,-0.19,-1.1,67.32,-161.01,-64.09
2026-07-27 12:16:34.968,0.32,-0.19,-1.1,67.32,-161.01,-64.09
2026-07-27 12:16:35.509,0.53,-0.27,-0.89,86.36,-107.67,-14.77
2026-07-27 12:16:35.812,0.53,-0.27,-0.89,86.36,-107.67,-14.77
2026-07-27 12:16:36.161,0.48,-0.22,-0.93,68.91,-79.28,5.37
2026-07-27 12:16:36.178,0.28,-0.12,-1.14,18.01,-62.19,-21.85
2026-07-27 12:16:36.178,0.28,-0.12,-1.14,18.01,-62.19,-21.85
2026-07-27 12:16:36.178,0.08,0.02,-1.29,-30.52,-52.67,-43.15
2026-07-27 12:16:36.228,0.08,0.02,-1.29,-30.52,-52.67,-43.15
2026-07-27 12:16:36.228,-0.1,0.2,-1.33,-53.65,14.04,-0.85
2026-07-27 12:16:36.228,0.23,0.1,-1.53,-42.72,186.28,147.4
2026-07-27 12:16:36.228,0.23,0.1,-1.53,-42.72,186.28,147.4
2026-07-27 12:16:36.228,0.39,-0.03,-1.43,-61.89,567.32,307.5
2026-07-27 12:16:36.228,0.39,-0.03,-1.43,-61.89,567.32,307.5
2026-07-27 12:16:36.228,0.32,-0.13,-0.65,-173.34,848.21,325.38
2026-07-27 12:16:36.228,0.32,-0.13,-0.65,-173.34,848.21,325.38
2026-07-27 12:16:36.228,0.76,-0.34,-0.02,-206.73,573.36,238.4
2026-07-27 12:16:36.652,1.11,-0.46,0.05,8.54,139.53,133.06
2026-07-27 12:16:36.652,1.11,-0.46,0.05,8.54,139.53,133.06
2026-07-27 12:16:36.652,1.13,-0.35,-0.03,211.55,-16.97,57.01
2026-07-27 12:16:36.652,1.13,-0.35,-0.03,211.55,-16.97,57.01
2026-07-27 12:16:36.652,0.99,-0.18,0.04,201.35,4.76,43.52
2026-07-27 12:16:36.652,0.99,-0.18,0.04,201.35,4.76,43.52
2026-07-27 12:16:36.652,0.91,-0.2,0.21,141.72,56.58,79.65
2026-07-27 12:16:36.652,0.88,-0.38,0.41,112.43,58.84,143.49
2026-07-27 12:16:36.652,0.88,-0.38,0.41,112.43,58.84,143.49
2026-07-27 12:16:36.652,0.8,-0.52,0.53,100.77,32.65,182.56
2026-07-27 12:16:36.652,0.8,-0.52,0.53,100.77,32.65,182.56
2026-07-27 12:16:36.652,0.7,-0.56,0.54,68.73,30.21,151.37
2026-07-27 12:16:36.652,0.7,-0.56,0.54,68.73,30.21,151.37
2026-07-27 12:16:36.652,0.63,-0.59,0.53,-34.42,49.19,77.15
2026-07-27 12:16:37.430,0.62,-0.75,0.42,-140.56,72.69,7.81
2026-07-27 12:16:37.430,0.6,-0.8,-0.81,-359.68,40.83,167.42
2026-07-27 12:16:38.993,0.6,-0.8,-0.81,-359.68,40.83,167.42
2026-07-27 12:16:39.356,-0.05,-0.27,-0.21,-5.68,-206.36,137.88
2026-07-27 12:16:39.356,-0.05,-0.27,-0.21,-28.69,-201.78,141.72
2026-07-27 12:16:39.711,-0.11,-0.1,-0.07,-28.69,-201.78,141.72
2026-07-27 12:16:40.302,-0.11,-0.0,-0.01,-69.76,-167.05,101.68
2026-07-27 12:16:40.302,-0.11,-0.0,-0.01,-69.76,-167.05,101.68
2026-07-27 12:16:40.302,-0.05,0.02,0.01,-89.78,-146.48,73.67
2026-07-27 12:16:40.302,-0.0,-0.03,0.05,-82.21,-159.42,79.41
2026-07-27 12:16:40.302,-0.0,-0.03,0.05,-82.21,-159.42,79.41
2026-07-27 12:16:40.493,-0.0,-0.03,0.05,-82.21,-159.42,79.41
2026-07-27 12:16:40.493,0.02,-0.15,0.09,-121.77,-11.6,125.67
2026-07-27 12:16:40.493,0.06,0.05,-0.23,-287.72,185.97,109.5
2026-07-27 12:16:40.551,0.06,0.05,-0.23,-287.72,185.97,109.5
2026-07-27 12:16:40.551,0.59,0.33,-1.06,-355.29,449.95,64.76
2026-07-27 12:16:40.551,0.59,0.33,-1.06,-355.29,449.95,64.76
2026-07-27 12:16:40.551,1.22,0.76,-2.42,-185.3,683.29,87.89
2026-07-27 12:16:40.551,1.22,0.76,-2.42,27.47,652.16,172.12
2026-07-27 12:16:40.557,0.61,1.56,-3.53,27.47,652.16,172.12
2026-07-27 12:16:40.557,-0.17,2.13,-3.39,45.04,370.73,244.08
2026-07-27 12:16:40.558,-0.17,2.13,-3.39,45.04,370.73,244.08
2026-07-27 12:16:40.558,0.14,1.77,-2.36,-94.91,27.89,170.9
2026-07-27 12:16:40.558,0.14,1.77,-2.36,-94.91,27.89,170.9
2026-07-27 12:16:40.558,0.98,0.87,-1.69,-140.14,-169.92,-10.56
2026-07-27 12:16:40.558,0.98,0.87,-1.69,-140.14,-169.92,-10.56
2026-07-27 12:16:40.558,0.98,0.87,-1.69,-140.14,-169.92,-10.56
2026-07-27 12:16:40.558,0.98,0.87,-1.69,-140.14,-169.92,-10.56
2026-07-27 12:16:40.791,0.91,0.11,-0.64,-103.09,-166.14,-165.28
2026-07-27 12:16:41.206,0.12,0.16,-0.26,-17.4,-120.97,-149.23
2026-07-27 12:16:41.393,-0.04,0.22,-0.38,-53.96,133.42,160.64
2026-07-27 12:16:47.945,-0.04,0.22,-0.38,-53.96,133.42,160.64
2026-07-27 12:16:47.949,0.4,0.7,-0.82,186.77,226.68,389.59
2026-07-27 12:16:47.949,0.35,0.2,-0.61,309.69,93.2,25.88
2026-07-27 12:16:47.949,0.57,-0.31,-0.54,-118.16,66.47,6.23
2026-07-27 12:16:47.949,0.62,-0.37,-0.54,-105.35,34.79,4.46
2026-07-27 12:16:48.351,0.62,-0.37,-0.54,-105.35,34.79,4.46
2026-07-27 12:16:48.351,0.67,-0.47,-0.49,-63.9,-6.53,-16.6
2026-07-27 12:16:48.351,0.67,-0.47,-0.49,-63.9,-6.53,-16.6
2026-07-27 12:16:48.351,0.74,-0.56,-0.41,2.81,-46.63,-31.92
2026-07-27 12:16:48.356,0.74,-0.56,-0.41,2.81,-46.63,-31.92
2026-07-27 12:16:48.418,0.84,-0.58,-0.44,80.14,-71.47,-17.76
2026-07-27 12:16:48.452,0.93,-0.57,-0.6,136.78,-67.2,18.43
2026-07-27 12:16:48.452,0.93,-0.57,-0.6,136.78,-67.2,18.43
2026-07-27 12:16:49.009,0.92,-0.59,-0.77,145.94,-43.88,44.62
2026-07-27 12:16:49.136,0.92,-0.59,-0.77,145.94,-43.88,44.62
2026-07-27 12:16:49.136,0.74,-0.56,-0.8,125.98,-19.47,34.79
2026-07-27 12:16:49.136,0.52,-0.49,-0.65,111.63,-3.97,-2.32
2026-07-27 12:16:49.137,0.84,-0.62,-0.55,71.72,-93.69,116.64
2026-07-27 12:16:49.137,0.67,-0.58,-0.57,51.82,-75.62,62.93
2026-07-27 12:16:49.137,0.67,-0.58,-0.57,51.82,-75.62,62.93
2026-07-27 12:16:49.137,0.5,-0.53,-0.54,18.07,-58.72,12.08
2026-07-27 12:16:49.137,0.5,-0.53,-0.54,18.07,-58.72,12.08
2026-07-27 12:16:49.139,0.46,-0.51,-0.48,-6.59,-57.25,6.96
2026-07-27 12:16:49.139,0.5,-0.51,-0.42,-15.44,-65.31,24.48
2026-07-27 12:16:49.139,0.5,-0.51,-0.42,-15.44,-65.31,24.48
2026-07-27 12:16:49.139,0.58,-0.53,-0.39,-21.36,-65.49,38.76
2026-07-27 12:16:49.141,0.58,-0.53,-0.39,-21.36,-65.49,38.76
2026-07-27 12:16:49.141,0.68,-0.61,-0.41,-31.31,-49.01,35.28
2026-07-27 12:16:49.141,0.68,-0.61,-0.41,-31.31,-49.01,35.28
2026-07-27 12:16:49.141,0.75,-0.64,-0.42,-43.09,-12.33,0.12
2026-07-27 12:16:49.141,0.75,-0.6,-0.42,-54.5,27.95,-44.37
2026-07-27 12:16:49.143,0.48,-0.6,-0.43,3.85,19.41,4.76
2026-07-27 12:16:49.143,0.55,-0.6,-0.45,5.8,26.0,14.04
2026-07-27 12:16:49.143,0.69,-0.83,-0.41,20.57,18.25,-46.02
2026-07-27 12:16:49.144,0.69,-0.83,-0.41,20.57,18.25,-46.02
2026-07-27 12:16:49.144,0.46,-0.72,-0.42,-33.2,32.71,13.24
2026-07-27 12:16:49.146,0.6,-0.85,-0.36,-30.27,-46.63,84.96
2026-07-27 12:16:49.146,0.57,-0.79,-0.28,-53.53,-36.87,101.56
2026-07-27 12:16:49.184,0.57,-0.79,-0.28,-53.53,-36.87,101.56
2026-07-27 12:16:49.194,0.57,-0.66,-0.22,-57.13,-27.71,119.02
2026-07-27 12:16:49.194,0.57,-0.66,-0.22,-57.13,-27.71,119.02
2026-07-27 12:16:49.194,0.58,-0.54,-0.19,-63.96,-7.75,123.41
2026-07-27 12:16:49.194,0.6,-0.5,-0.15,-98.57,42.54,54.93
2026-07-27 12:16:49.194,0.6,-0.5,-0.15,-98.57,42.54,54.93
2026-07-27 12:16:49.194,0.66,-0.64,-0.21,-25.39,6.71,10.8
2026-07-27 12:16:49.194,0.76,-0.79,-0.42,38.21,-8.67,-17.82
2026-07-27 12:16:49.194,0.76,-0.79,-0.42,38.21,-8.67,-17.82
2026-07-27 12:16:49.194,0.66,-0.85,-0.6,46.94,72.08,-37.05
2026-07-27 12:16:49.194,0.66,-0.85,-0.6,46.94,72.08,-37.05
2026-07-27 12:16:49.312,0.38,-0.84,-0.67,21.61,193.36,-51.15
2026-07-27 12:16:49.314,0.38,-0.84,-0.67,21.61,193.36,-51.15
2026-07-27 12:16:49.317,0.22,-0.89,-0.74,-15.08,253.05,-37.29
2026-07-27 12:16:49.317,0.22,-0.89,-0.74,-48.46,230.35,18.19
2026-07-27 12:16:49.317,0.34,-0.96,-0.85,-48.46,230.35,18.19
2026-07-27 12:16:49.327,0.51,-0.95,-0.91,-63.48,163.51,73.91
2026-07-27 12:16:49.328,0.51,-0.95,-0.91,-63.48,163.51,73.91
2026-07-27 12:16:49.328,0.51,-0.8,-0.81,-65.73,107.12,79.83
2026-07-27 12:16:49.328,0.51,-0.8,-0.81,-65.73,107.12,79.83
2026-07-27 12:16:49.328,0.42,-0.7,-0.65,-81.54,95.03,39.98
2026-07-27 12:16:49.328,0.36,-0.87,-0.49,-69.7,69.58,-11.9
2026-07-27 12:16:49.328,0.77,-0.83,-0.74,-19.59,-37.48,134.77
2026-07-27 12:16:49.328,0.01,-1.02,-0.3,59.27,1.77,-67.63
2026-07-27 12:16:49.328,-0.0,-1.05,-0.21,51.51,-7.87,-65.25
2026-07-27 12:16:49.328,-0.0,-1.05,-0.21,51.51,-7.87,-65.25
2026-07-27 12:16:49.328,0.12,-1.17,-0.22,31.19,38.39,-50.17
2026-07-27 12:16:49.328,0.25,-1.3,-0.3,33.02,63.42,-40.77
2026-07-27 12:16:49.328,0.49,-0.69,-0.0,-93.38,-66.77,113.16
2026-07-27 12:16:49.328,0.49,-0.69,-0.0,-93.38,-66.77,113.16
2026-07-27 12:16:49.328,0.46,-0.68,0.05,-58.53,-48.16,63.66
2026-07-27 12:16:49.328,0.46,-0.68,0.05,-58.53,-48.16,63.66
2026-07-27 12:16:49.328,0.46,-0.68,0.05,-58.53,-48.16,63.66
2026-07-27 12:16:49.328,0.46,-0.68,0.05,-58.53,-48.16,63.66
2026-07-27 12:16:49.328,0.51,-0.89,0.03,-6.53,-22.4,-14.89
2026-07-27 12:16:49.328,0.51,-0.89,0.03,35.1,-3.05,-80.51
2026-07-27 12:16:49.374,0.44,-0.94,-0.11,35.1,-3.05,-80.51
2026-07-27 12:16:49.486,0.71,-0.77,-1.12,-161.74,134.83,14.22
2026-07-27 12:16:49.501,0.68,-0.64,-0.85,-53.59,-104.19,140.32
2026-07-27 12:16:49.501,0.84,-0.79,-0.7,-12.94,-213.99,183.72
2026-07-27 12:16:49.501,0.99,-0.76,-0.7,127.32,-331.79,202.64
2026-07-27 12:16:49.501,0.99,-0.76,-0.7,127.32,-331.79,202.64
2026-07-27 12:16:49.501,0.93,-0.59,-0.81,274.9,-393.43,167.18
2026-07-27 12:16:49.501,0.71,-0.6,-0.8,225.1,-312.19,102.91
2026-07-27 12:16:49.501,0.71,-0.6,-0.8,225.1,-312.19,102.91
2026-07-27 12:16:49.501,0.58,-0.73,-0.69,35.03,-194.15,48.52
2026-07-27 12:16:49.501,0.58,-0.73,-0.69,35.03,-194.15,48.52
2026-07-27 12:16:49.501,0.56,-0.73,-0.58,-61.34,-160.28,-13.12
2026-07-27 12:16:49.501,0.56,-0.55,-0.54,-14.04,-201.97,-75.93
2026-07-27 12:16:49.501,0.56,-0.55,-0.54,-14.04,-201.97,-75.93
2026-07-27 12:16:49.501,0.59,-0.4,-0.57,35.22,-235.05,-110.9
2026-07-27 12:16:49.501,0.59,-0.4,-0.57,35.22,-235.05,-110.9
2026-07-27 12:16:49.501,0.61,-0.36,-0.53,17.21,-196.72,-118.96
2026-07-27 12:16:49.501,0.61,-0.36,-0.53,-18.55,-118.65,-118.29
2026-07-27 12:16:49.549,0.65,-0.3,-0.41,-18.55,-118.65,-118.29
2026-07-27 12:16:49.549,0.72,-0.2,-0.36,-33.69,-55.66,-113.53
2026-07-27 12:16:50.328,0.72,-0.2,-0.36,-33.69,-55.66,-113.53
2026-07-27 12:16:50.452,0.79,-0.1,-0.39,-48.34,-8.18,-97.11
2026-07-27 12:16:50.690,0.79,-0.1,-0.39,-48.34,-8.18,-97.11
2026-07-27 12:16:50.690,0.85,-0.05,-0.45,-108.46,38.27,-64.51
2026-07-27 12:16:50.690,0.86,-0.08,-0.65,-231.45,89.29,-23.62
2026-07-27 12:16:50.690,0.86,-0.08,-0.65,-231.45,89.29,-23.62
2026-07-27 12:16:50.690,0.82,-0.16,-0.89,-359.99,162.72,28.87
2026-07-27 12:16:50.690,0.82,-0.16,-0.89,-359.99,162.72,28.87
2026-07-27 12:16:50.690,0.8,-0.15,-0.98,-395.51,221.01,65.06
2026-07-27 12:16:50.690,0.82,0.04,-1.03,-341.31,209.96,46.51
2026-07-27 12:16:51.299,0.82,0.04,-1.03,-341.31,209.96,46.51
2026-07-27 12:16:51.299,0.82,0.19,-1.16,-267.21,156.8,-11.41
2026-07-27 12:16:51.301,0.82,0.19,-1.16,-267.21,156.8,-11.41
2026-07-27 12:16:51.478,0.77,0.18,-1.22,-175.6,93.2,-56.15
2026-07-27 12:16:51.478,0.77,0.18,-1.22,-175.6,93.2,-56.15
2026-07-27 12:16:51.478,0.69,0.15,-1.11,-66.28,38.82,-54.02
2026-07-27 12:16:51.478,0.58,0.12,-0.97,-9.95,18.98,-23.25
2026-07-27 12:16:51.478,0.58,0.12,-0.97,-9.95,18.98,-23.25
2026-07-27 12:16:51.478,0.47,0.07,-0.93,-33.63,7.93,12.94
2026-07-27 12:16:51.478,0.47,0.07,-0.93,-33.63,7.93,12.94
2026-07-27 12:16:51.478,0.42,-0.03,-1.0,-67.44,-23.68,45.35
2026-07-27 12:16:51.478,0.42,-0.03,-1.0,-67.44,-23.68,45.35
2026-07-27 12:16:51.478,0.44,-0.12,-1.09,-63.84,-48.52,69.58
2026-07-27 12:16:51.588,0.45,-0.06,-1.17,-52.43,-47.79,87.34
2026-07-27 12:16:52.006,0.45,-0.06,-1.17,-52.43,-47.79,87.34
2026-07-27 12:16:52.134,0.4,0.09,-1.21,-63.29,-40.89,98.51
2026-07-27 12:16:52.134,0.4,0.09,-1.21,-63.29,-40.89,98.51
2026-07-27 12:16:52.134,0.31,0.18,-1.22,-56.64,-55.73,83.44
2026-07-27 12:16:52.134,0.31,0.18,-1.22,-56.64,-55.73,83.44
2026-07-27 12:16:52.134,0.31,0.24,-1.3,-12.88,-98.33,27.89
2026-07-27 12:16:52.134,0.4,0.4,-1.29,-33.2,-121.83,-49.38
2026-07-27 12:16:52.134,0.4,0.4,-1.29,-33.2,-121.83,-49.38
2026-07-27 12:16:52.149,0.5,0.65,-1.1,-109.86,-111.51,-133.73
2026-07-27 12:16:52.149,0.5,0.65,-1.1,-109.86,-111.51,-133.73
2026-07-27 12:16:52.149,0.44,0.88,-0.92,-85.02,-118.41,-213.07
2026-07-27 12:16:52.149,0.44,0.88,-0.92,-85.02,-118.41,-213.07
2026-07-27 12:16:52.149,0.28,0.99,-0.76,-17.46,-135.93,-235.47
2026-07-27 12:16:52.149,0.22,0.97,-0.67,-8.79,-144.71,-205.69
2026-07-27 12:16:52.149,0.22,0.97,-0.67,-8.79,-144.71,-205.69
2026-07-27 12:16:52.245,0.21,0.85,-0.66,15.32,-158.33,-197.75
2026-07-27 12:16:52.245,0.21,0.85,-0.66,77.45,-152.16,-210.88
2026-07-27 12:16:52.245,0.17,0.72,-0.6,77.45,-152.16,-210.88
2026-07-27 12:16:52.245,0.12,0.6,-0.55,141.48,-118.41,-203.49
2026-07-27 12:16:52.245,0.12,0.6,-0.55,141.48,-118.41,-203.49
2026-07-27 12:16:52.245,0.16,0.47,-0.56,189.76,-93.44,-171.81
2026-07-27 12:16:52.245,0.16,0.47,-0.56,189.76,-93.44,-171.81
2026-07-27 12:16:52.245,0.27,0.38,-0.62,209.17,-81.12,-125.37
2026-07-27 12:16:52.245,0.37,0.36,-0.74,187.26,-46.33,-89.54
2026-07-27 12:16:52.245,0.37,0.36,-0.74,187.26,-46.33,-89.54
2026-07-27 12:16:52.245,0.38,0.39,-0.87,113.53,30.21,-75.32
2026-07-27 12:16:52.267,0.38,0.39,-0.87,113.53,30.21,-75.32
2026-07-27 12:16:52.267,0.25,0.38,-0.97,0.79,129.03,-50.35
2026-07-27 12:16:52.267,0.25,0.38,-0.97,0.79,129.03,-50.35
2026-07-27 12:16:52.267,0.09,0.3,-1.09,-105.59,201.05,0.55
2026-07-27 12:16:52.267,-0.04,0.28,-1.32,-172.85,206.18,56.52
2026-07-27 12:16:52.267,-0.04,0.28,-1.32,-172.85,206.18,56.52
2026-07-27 12:16:52.269,-0.16,0.3,-1.52,-205.08,155.52,90.76
2026-07-27 12:16:52.269,-0.16,0.3,-1.52,-205.08,155.52,90.76
2026-07-27 12:16:52.269,-0.21,0.28,-1.52,-197.39,97.47,97.29
2026-07-27 12:16:52.269,-0.21,0.28,-1.52,-146.3,55.79,83.8
2026-07-27 12:16:52.269,-0.16,0.21,-1.35,-146.3,55.79,83.8
2026-07-27 12:16:52.269,-0.07,0.17,-1.16,-80.57,23.07,65.49
2026-07-27 12:16:52.269,-0.07,0.17,-1.16,-80.57,23.07,65.49
2026-07-27 12:16:52.271,-0.0,0.21,-1.03,-28.75,2.26,67.2
2026-07-27 12:16:52.271,-0.0,0.21,-1.03,-28.75,2.26,67.2
2026-07-27 12:16:52.272,0.02,0.25,-1.01,-5.31,1.22,85.94
2026-07-27 12:16:52.272,0.02,0.25,-1.01,-5.31,1.22,85.94
2026-07-27 12:16:52.272,-0.01,0.19,-1.03,-15.38,5.37,111.69
2026-07-27 12:16:52.272,-0.11,0.14,-1.04,-39.67,-7.39,151.55
2026-07-27 12:16:52.272,-0.11,0.14,-1.04,-39.67,-7.39,151.55
2026-07-27 12:16:52.274,-0.19,0.15,-1.09,-53.22,-29.36,179.5
2026-07-27 12:16:52.274,-0.19,0.15,-1.09,-53.22,-29.36,179.5
2026-07-27 12:16:52.274,-0.38,0.35,-1.15,15.32,-7.75,23.25
2026-07-27 12:16:52.274,-0.38,0.35,-1.15,15.32,-7.75,23.25
2026-07-27 12:16:52.274,0.26,0.49,-1.1,130.37,4.64,-312.44
2026-07-27 12:16:52.274,0.26,0.49,-1.1,130.37,4.64,-312.44
2026-07-27 12:16:52.274,0.15,0.3,-1.15,108.58,73.18,-327.39
2026-07-27 12:16:52.274,0.15,0.3,-1.15,108.58,73.18,-327.39
2026-07-27 12:16:52.276,0.04,0.26,-1.1,91.37,70.5,-230.1
2026-07-27 12:16:52.277,-0.02,0.32,-1.01,85.75,11.05,-116.15
2026-07-27 12:16:52.277,-0.02,0.32,-1.01,85.75,11.05,-116.15
2026-07-27 12:16:52.277,0.04,0.39,-0.92,92.29,-57.43,-49.62
2026-07-27 12:16:52.277,0.04,0.39,-0.92,92.29,-57.43,-49.62
2026-07-27 12:16:52.277,0.21,0.46,-0.85,100.46,-94.91,-30.33
2026-07-27 12:16:52.279,0.21,0.46,-0.85,100.46,-94.91,-30.33
2026-07-27 12:16:52.279,0.34,0.37,-0.82,-36.07,7.39,31.74
2026-07-27 12:16:52.283,0.1,0.31,-1.17,-93.14,92.22,25.02
2026-07-27 12:16:52.283,0.1,0.31,-1.17,-93.14,92.22,25.02
2026-07-27 12:16:52.283,0.14,0.22,-1.12,-105.22,87.28,35.58
2026-07-27 12:16:52.283,0.14,0.22,-1.12,-105.22,87.28,35.58
2026-07-27 12:16:52.284,0.15,0.11,-1.08,-105.71,62.19,55.6
2026-07-27 12:16:52.284,0.08,0.11,-1.07,-83.68,25.02,86.43
2026-07-27 12:16:52.625,0.08,0.11,-1.07,-83.68,25.02,86.43
2026-07-27 12:16:52.625,0.06,0.19,-1.12,-43.21,-9.22,100.65
2026-07-27 12:16:52.625,0.06,0.19,-1.12,-43.21,-9.22,100.65
2026-07-27 12:16:52.625,0.08,0.23,-1.23,-11.54,-20.57,81.3
2026-07-27 12:16:52.625,-0.02,0.19,-1.35,-6.1,-6.96,49.44
2026-07-27 12:16:52.673,-0.02,0.19,-1.35,-6.1,-6.96,49.44
2026-07-27 12:16:52.673,-0.13,0.1,-1.36,-3.36,-8.0,25.63
2026-07-27 12:16:52.673,-0.13,0.1,-1.36,-3.36,-8.0,25.63
2026-07-27 12:16:52.673,-0.08,0.07,-1.26,30.46,-39.61,-1.59
2026-07-27 12:16:52.673,0.02,0.19,-1.14,90.64,-64.27,-44.74
2026-07-27 12:16:52.673,0.02,0.19,-1.14,90.64,-64.27,-44.74
2026-07-27 12:16:52.673,0.1,0.38,-1.12,144.84,-60.79,-95.58
2026-07-27 12:16:52.678,0.1,0.38,-1.12,144.84,-60.79,-95.58
2026-07-27 12:16:52.678,0.15,0.51,-1.17,173.34,-41.87,-136.05
2026-07-27 12:16:52.678,0.15,0.51,-1.17,173.34,-41.87,-136.05
2026-07-27 12:16:52.678,0.15,0.53,-1.22,172.79,-25.63,-150.21
2026-07-27 12:16:52.678,0.13,0.45,-1.21,153.02,-25.82,-133.79
2026-07-27 12:16:52.678,0.13,0.45,-1.21,153.02,-25.82,-133.79
2026-07-27 12:16:52.728,0.14,0.39,-1.13,136.29,-43.7,-93.93
2026-07-27 12:16:52.847,0.14,0.39,-1.13,136.29,-43.7,-93.93
2026-07-27 12:16:52.847,0.14,0.38,-1.0,130.19,-63.35,-51.88
2026-07-27 12:16:52.847,0.15,0.37,-0.86,120.54,-74.65,-27.53
2026-07-27 12:16:52.847,0.15,0.37,-0.86,120.54,-74.65,-27.53
2026-07-27 12:16:52.847,0.23,0.36,-0.76,100.59,-82.52,-14.1
2026-07-27 12:16:52.847,0.23,0.36,-0.76,100.59,-82.52,-14.1
2026-07-27 12:16:53.089,0.34,0.39,-0.71,75.93,-82.34,2.08
2026-07-27 12:16:53.089,0.34,0.39,-0.71,75.93,-82.34,2.08
2026-07-27 12:16:53.278,0.39,0.4,-0.74,49.07,-65.49,21.48
2026-07-27 12:16:53.331,0.39,0.41,-0.83,13.85,-40.83,43.4
2026-07-27 12:16:53.331,0.39,0.41,-0.83,13.85,-40.83,43.4
2026-07-27 12:16:53.331,0.38,0.41,-0.89,-27.47,-14.47,67.02
2026-07-27 12:16:53.331,0.38,0.41,-0.89,-27.47,-14.47,67.02
2026-07-27 12:16:53.331,0.28,0.29,-0.9,-70.5,12.88,95.64
2026-07-27 12:16:53.331,0.28,0.29,-0.9,-70.5,12.88,95.64
2026-07-27 12:16:53.331,0.17,0.09,-0.96,-107.24,28.93,141.11
2026-07-27 12:16:53.331,0.12,0.07,-1.1,-114.14,34.73,190.55
2026-07-27 12:16:53.331,0.12,0.07,-1.1,-114.14,34.73,190.55
2026-07-27 12:16:53.331,0.1,0.22,-1.25,-93.69,49.8,202.33
2026-07-27 12:16:53.331,0.1,0.22,-1.25,-93.69,49.8,202.33
2026-07-27 12:16:53.339,0.05,0.31,-1.33,-74.71,79.47,161.38
2026-07-27 12:16:53.339,-0.03,0.27,-1.3,-73.43,101.87,104.74
2026-07-27 12:16:53.339,-0.03,0.27,-1.3,-73.43,101.87,104.74
2026-07-27 12:16:53.339,-0.1,0.22,-1.24,-87.77,93.81,88.26
2026-07-27 12:16:53.355,-0.1,0.22,-1.24,-87.77,93.81,88.26
2026-07-27 12:16:53.355,-0.15,0.23,-1.19,-94.97,56.58,134.95
2026-07-27 12:16:53.355,-0.15,0.23,-1.19,-94.97,56.58,134.95
2026-07-27 12:16:53.355,-0.17,0.17,-1.17,-68.12,9.7,213.62
2026-07-27 12:16:53.454,-0.19,0.1,-1.13,-12.57,-11.96,239.32
2026-07-27 12:16:53.454,-0.19,0.1,-1.13,-12.57,-11.96,239.32
2026-07-27 12:16:53.454,-0.24,0.17,-1.08,35.95,-0.49,181.52
2026-07-27 12:16:53.454,-0.24,0.17,-1.08,35.95,-0.49,181.52
2026-07-27 12:16:53.928,-0.26,0.28,-1.1,43.88,10.8,117.13
2026-07-27 12:16:53.928,-0.29,0.3,-1.23,15.56,20.02,76.9
2026-07-27 12:16:53.928,-0.29,0.3,-1.23,15.56,20.02,76.9
2026-07-27 12:16:53.928,-0.4,0.21,-1.33,-10.68,49.56,17.88
2026-07-27 12:16:53.928,-0.4,0.21,-1.33,-10.68,49.56,17.88
2026-07-27 12:16:53.928,-0.49,0.15,-1.24,-5.07,66.16,-48.1
2026-07-27 12:16:54.350,-0.49,0.15,-1.24,-5.07,66.16,-48.1
2026-07-27 12:16:54.350,-0.36,0.21,-1.07,14.34,11.35,-62.26
2026-07-27 12:16:54.355,-0.03,0.24,-1.01,23.68,-86.43,-42.11
2026-07-27 12:16:54.355,-0.03,0.24,-1.01,23.68,-86.43,-42.11
2026-07-27 12:16:54.355,0.27,0.29,-1.06,45.35,-139.16,-65.25
2026-07-27 12:16:54.651,0.27,0.29,-1.06,45.35,-139.16,-65.25
2026-07-27 12:16:54.651,0.3,0.28,-1.15,88.26,-114.99,-157.47
2026-07-27 12:16:54.651,0.3,0.28,-1.15,88.26,-114.99,-157.47
2026-07-27 12:16:54.651,0.14,0.17,-1.28,126.1,-66.35,-251.77
2026-07-27 12:16:54.705,0.02,0.12,-1.35,127.62,-61.16,-237.73
2026-07-27 12:16:54.705,0.02,0.12,-1.35,127.62,-61.16,-237.73
2026-07-27 12:16:54.705,0.02,0.2,-1.29,85.45,-98.94,-118.84
2026-07-27 12:16:54.720,0.02,0.2,-1.29,85.45,-98.94,-118.84
2026-07-27 12:16:54.720,0.1,0.3,-1.13,22.95,-143.19,-1.28
2026-07-27 12:16:54.720,0.2,0.34,-0.96,-32.17,-170.47,49.07
2026-07-27 12:16:54.720,0.2,0.34,-0.96,-32.17,-170.47,49.07
2026-07-27 12:16:54.720,0.29,0.31,-0.86,-62.87,-165.95,28.26
2026-07-27 12:16:54.720,0.29,0.31,-0.86,-62.87,-165.95,28.26
2026-07-27 12:16:54.720,0.4,0.25,-0.81,-67.44,-125.55,-30.94
2026-07-27 12:16:54.720,0.4,0.25,-0.81,-67.44,-125.55,-30.94
2026-07-27 12:16:54.720,0.4,0.25,-0.81,-67.44,-125.55,-30.94
2026-07-27 12:16:54.720,0.4,0.25,-0.81,-67.44,-125.55,-30.94
2026-07-27 12:16:54.720,0.53,0.22,-0.84,-32.47,15.08,-98.33
2026-07-27 12:16:54.720,0.46,0.19,-0.81,-41.14,77.33,-52.31
2026-07-27 12:16:54.720,0.46,0.19,-0.81,-41.14,77.33,-52.31
2026-07-27 12:16:54.720,0.28,0.14,-0.8,-73.67,118.77,32.23
2026-07-27 12:16:54.720,0.28,0.14,-0.8,-73.67,118.77,32.23
2026-07-27 12:16:54.720,0.18,0.15,-0.93,-98.27,131.65,105.77
2026-07-27 12:16:55.074,0.18,0.15,-0.93,-98.27,131.65,105.77
2026-07-27 12:16:55.074,0.23,0.27,-1.11,-90.15,121.4,143.37
2026-07-27 12:16:55.076,0.34,0.46,-1.21,-59.94,111.82,144.35
2026-07-27 12:16:55.076,0.34,0.46,-1.21,-59.94,111.82,144.35
2026-07-27 12:16:55.076,0.36,0.53,-1.23,-41.93,122.62,116.15
2026-07-27 12:16:55.610,0.36,0.53,-1.23,-41.93,122.62,116.15
2026-07-27 12:16:55.610,0.28,0.47,-1.24,-52.0,143.55,88.56
2026-07-27 12:16:55.610,0.28,0.47,-1.24,-52.0,143.55,88.56
2026-07-27 12:16:55.610,0.23,0.41,-1.23,-70.01,144.17,89.11
2026-07-27 12:16:55.610,0.21,0.39,-1.2,-69.7,122.74,107.36
2026-07-27 12:16:55.610,0.21,0.39,-1.2,-69.7,122.74,107.36
2026-07-27 12:16:55.610,0.14,0.37,-1.16,-50.84,98.63,121.34
2026-07-27 12:16:55.610,0.14,0.37,-1.16,-50.84,98.63,121.34
2026-07-27 12:16:55.610,0.05,0.34,-1.12,-35.58,69.7,129.7
2026-07-27 12:16:55.610,-0.02,0.3,-1.08,-36.99,23.38,139.83
2026-07-27 12:16:55.610,-0.02,0.3,-1.08,-36.99,23.38,139.83
2026-07-27 12:16:55.610,-0.05,0.33,-1.1,-32.41,-20.32,154.97
2026-07-27 12:16:55.610,-0.05,0.33,-1.1,-32.41,-20.32,154.97
2026-07-27 12:16:55.610,-0.13,0.43,-1.25,-7.93,-37.17,150.7
2026-07-27 12:16:55.610,-0.13,0.43,-1.25,-7.93,-37.17,150.7
2026-07-27 12:16:55.626,-0.32,0.5,-1.41,9.89,-51.45,96.19
2026-07-27 12:16:55.626,-0.44,0.5,-1.42,-9.89,-99.49,17.58
2026-07-27 12:16:55.626,-0.44,0.5,-1.42,-9.89,-99.49,17.58
2026-07-27 12:16:55.626,-0.25,0.55,-1.25,-65.19,-177.06,-32.29
2026-07-27 12:16:55.627,-0.25,0.55,-1.25,-65.19,-177.06,-32.29
2026-07-27 12:16:55.627,0.13,0.63,-1.09,-102.42,-222.66,-32.35
2026-07-27 12:16:55.627,0.38,0.69,-1.07,-94.79,-194.76,-20.69
2026-07-27 12:16:55.627,0.38,0.69,-1.07,-94.79,-194.76,-20.69
2026-07-27 12:16:55.627,0.44,0.7,-1.1,-65.55,-110.47,-48.1
2026-07-27 12:16:55.629,0.44,0.7,-1.1,-65.55,-110.47,-48.1
2026-07-27 12:16:55.629,0.39,0.69,-1.13,-39.79,-35.16,-98.51
2026-07-27 12:16:55.632,0.39,0.69,-1.13,-39.79,-35.16,-98.51
2026-07-27 12:16:55.632,0.39,0.65,-1.13,-36.68,-24.9,-132.45
2026-07-27 12:16:55.632,0.44,0.57,-1.04,-57.74,-51.7,-136.78
2026-07-27 12:16:55.677,0.44,0.57,-1.04,-57.74,-51.7,-136.78
2026-07-27 12:16:55.677,0.46,0.48,-0.88,-81.36,-68.79,-121.83
2026-07-27 12:16:55.975,0.46,0.48,-0.88,-81.36,-68.79,-121.83
2026-07-27 12:16:55.975,0.46,0.4,-0.74,-78.55,-62.93,-106.99
2026-07-27 12:16:55.975,0.46,0.4,-0.74,-78.55,-62.93,-106.99
2026-07-27 12:16:55.975,0.5,0.34,-0.67,-49.26,-40.77,-106.14
2026-07-27 12:16:55.977,0.55,0.23,-0.71,-11.35,-3.17,-121.95
2026-07-27 12:16:55.977,0.55,0.23,-0.71,-11.35,-3.17,-121.95
2026-07-27 12:16:55.977,0.6,0.15,-0.74,17.88,37.17,-106.81
2026-07-27 12:16:55.977,0.6,0.15,-0.74,17.88,37.17,-106.81
2026-07-27 12:16:55.977,0.52,0.15,-0.69,17.33,61.04,-20.08
2026-07-27 12:16:55.977,0.52,0.15,-0.69,17.33,61.04,-20.08
2026-07-27 12:16:55.977,0.34,0.17,-0.69,-5.62,77.33,83.92
2026-07-27 12:16:55.977,0.29,0.26,-0.8,-15.5,87.16,139.65
2026-07-27 12:16:55.977,0.29,0.26,-0.8,-15.5,87.16,139.65
2026-07-27 12:16:55.977,0.42,0.45,-0.96,-6.29,86.3,150.45
2026-07-27 12:16:55.977,0.42,0.45,-0.96,-6.29,86.3,150.45
2026-07-27 12:16:55.977,0.55,0.63,-1.08,4.94,84.96,142.94
2026-07-27 12:16:55.977,0.55,0.63,-1.08,4.94,84.96,142.94
2026-07-27 12:16:55.977,0.54,0.68,-1.13,6.77,89.48,133.06
2026-07-27 12:16:55.977,0.54,0.68,-1.13,1.71,93.75,127.38
2026-07-27 12:16:55.977,0.41,0.66,-1.13,1.71,93.75,127.38
2026-07-27 12:16:55.977,0.3,0.65,-1.1,-0.43,86.18,127.2
2026-07-27 12:16:55.977,0.3,0.65,-1.1,-0.43,86.18,127.2
2026-07-27 12:16:55.977,0.23,0.63,-1.08,0.92,68.79,127.69
2026-07-27 12:16:55.977,0.23,0.63,-1.08,0.92,68.79,127.69
2026-07-27 12:16:55.977,0.17,0.59,-1.05,0.98,47.67,128.97
2026-07-27 12:16:55.977,0.17,0.59,-1.05,0.98,47.67,128.97
2026-07-27 12:16:55.991,0.12,0.59,-0.98,-2.5,23.74,134.7
2026-07-27 12:16:55.991,0.11,0.63,-0.91,-7.51,2.01,136.72
2026-07-27 12:16:55.991,0.11,0.63,-0.91,-7.51,2.01,136.72
2026-07-27 12:16:55.991,0.07,0.72,-0.92,-8.79,-5.37,122.56
2026-07-27 12:16:55.994,0.07,0.72,-0.92,-8.79,-5.37,122.56
2026-07-27 12:16:55.994,-0.02,0.86,-1.05,-7.32,2.32,89.6
2026-07-27 12:16:55.994,-0.11,0.98,-1.2,-12.94,-0.49,48.46
2026-07-27 12:16:55.994,-0.11,0.98,-1.2,-12.94,-0.49,48.46
2026-07-27 12:16:57.651,-0.09,1.0,-1.14,-33.2,-34.55,6.04
2026-07-27 12:16:57.651,-0.09,1.0,-1.14,-33.2,-34.55,6.04
2026-07-27 12:16:57.651,0.09,0.89,-0.93,-56.76,-79.9,-44.49
2026-07-27 12:16:57.657,0.09,0.89,-0.93,-56.76,-79.9,-44.49
2026-07-27 12:16:57.657,0.34,0.75,-0.79,-56.7,-96.07,-110.84
2026-07-27 12:16:57.657,0.34,0.75,-0.79,-56.7,-96.07,-110.84
2026-07-27 12:16:57.657,0.34,0.75,-0.79,-56.7,-96.07,-110.84
2026-07-27 12:16:57.657,0.34,0.75,-0.79,-56.7,-96.07,-110.84
2026-07-27 12:16:57.657,0.53,0.65,-0.96,23.5,-29.3,-228.09
2026-07-27 12:16:57.657,0.41,0.71,-1.1,45.17,-9.03,-226.62
2026-07-27 12:16:57.657,0.41,0.71,-1.1,45.17,-9.03,-226.62
2026-07-27 12:16:57.657,0.32,0.76,-1.12,34.79,-23.32,-195.74
2026-07-27 12:16:57.657,0.32,0.76,-1.12,34.79,-23.32,-195.74
2026-07-27 12:16:57.657,0.35,0.74,-1.04,4.58,-60.49,-161.32
2026-07-27 12:16:57.657,0.43,0.64,-0.89,-26.98,-95.83,-134.89
2026-07-27 12:16:57.657,0.43,0.64,-0.89,-26.98,-95.83,-134.89
2026-07-27 12:16:57.657,0.5,0.48,-0.74,-41.38,-107.97,-120.24
2026-07-27 12:16:57.831,0.5,0.48,-0.74,-41.38,-107.97,-120.24
2026-07-27 12:16:57.831,0.53,0.32,-0.63,-32.84,-92.1,-112.61
2026-07-27 12:16:57.831,0.53,0.32,-0.63,-32.84,-92.1,-112.61
2026-07-27 12:16:57.831,0.54,0.2,-0.58,-15.56,-59.63,-95.83
2026-07-27 12:16:57.831,0.56,0.14,-0.59,-3.36,-21.85,-60.0
2026-07-27 12:16:57.831,0.56,0.14,-0.59,-3.36,-21.85,-60.0
2026-07-27 12:16:57.841,0.58,0.13,-0.64,2.56,15.99,-7.75
2026-07-27 12:16:57.841,0.58,0.13,-0.64,2.56,15.99,-7.75
2026-07-27 12:16:57.841,0.53,0.17,-0.7,0.24,51.45,56.76
2026-07-27 12:16:57.841,0.53,0.17,-0.7,0.24,51.45,56.76
2026-07-27 12:16:57.841,0.42,0.26,-0.77,-4.03,80.44,118.53
2026-07-27 12:16:57.841,0.4,0.43,-0.88,-2.44,96.74,159.18
2026-07-27 12:16:57.841,0.4,0.43,-0.88,-2.44,96.74,159.18
2026-07-27 12:16:57.841,0.5,0.63,-1.06,3.42,104.92,172.55
2026-07-27 12:16:57.847,0.5,0.63,-1.06,3.42,104.92,172.55
2026-07-27 12:16:57.847,0.56,0.76,-1.22,15.14,112.49,163.02
2026-07-27 12:16:57.847,0.5,0.76,-1.23,22.89,114.2,145.87
2026-07-27 12:16:57.847,0.5,0.76,-1.23,22.89,114.2,145.87
2026-07-27 12:16:57.847,0.48,0.63,-1.07,12.51,98.08,136.17
2026-07-27 12:16:57.847,0.48,0.63,-1.07,12.51,98.08,136.17
2026-07-27 12:16:57.847,0.56,0.47,-0.94,-2.26,78.61,134.95
2026-07-27 12:16:57.847,0.56,0.47,-0.94,-2.26,78.61,134.95
2026-07-27 12:16:57.847,0.51,0.45,-1.01,5.49,82.76,134.89
2026-07-27 12:16:57.847,0.34,0.58,-1.08,19.96,87.04,143.49
2026-07-27 12:16:57.847,0.34,0.58,-1.08,19.96,87.04,143.49
2026-07-27 12:16:57.847,0.19,0.71,-1.07,5.49,58.96,163.57
2026-07-27 12:16:57.847,0.19,0.71,-1.07,5.49,58.96,163.57
2026-07-27 12:16:57.847,0.14,0.76,-1.0,-24.48,12.45,165.22
2026-07-27 12:16:57.847,0.14,0.76,-1.0,-24.48,12.45,165.22
2026-07-27 12:16:57.847,0.15,0.75,-0.94,-39.49,-20.45,131.71
