Timestamp,AccX,AccY,AccZ,GyroX,GyroY,GyroZ,AccX_smooth,AccY_smooth,AccZ_smooth,GyroX_smooth,GyroY_smooth,GyroZ_smooth
2026-07-21 03:20:21.508,0.29,0.11,0.99,-4.7,4.82,2.56,0.29,0.11,0.99,-4.7,4.82,2.56
2026-07-21 03:20:21.509,0.57,-0.83,0.03,129.58,1.59,-57.5,0.42999999999999994,-0.36,0.51,62.440000000000005,3.205,-27.47
2026-07-21 03:20:21.556,0.69,-0.78,0.28,184.14,16.6,-34.48,0.5166666666666666,-0.5,0.43333333333333335,103.00666666666666,7.670000000000001,-29.80666666666666
2026-07-21 03:20:21.614,0.67,-0.52,0.48,203.37,99.98,-78.55,0.5549999999999999,-0.505,0.445,128.0975,30.747500000000002,-41.9925
2026-07-21 03:20:21.616,0.61,-0.4,0.58,166.99,137.7,-85.33,0.5660000000000001,-0.484,0.472,135.876,52.138,-50.660000000000004
2026-07-21 03:20:21.676,0.61,-0.4,0.58,166.99,137.7,-85.33,0.63,-0.586,0.39,170.214,78.714,-68.238
2026-07-21 03:20:21.736,0.51,-0.28,0.77,77.45,94.3,-53.53,0.618,-0.476,0.538,159.788,97.256,-67.444
2026-07-21 03:20:21.807,0.52,-0.28,0.85,26.79,16.97,-26.25,0.584,-0.376,0.652,128.318,97.33,-65.798
2026-07-21 03:20:21.855,0.51,-0.26,0.86,20.26,15.01,-14.59,0.552,-0.324,0.728,91.696,80.33599999999998,-53.00599999999999
2026-07-21 03:20:21.856,0.51,-0.26,0.86,20.26,15.01,-14.59,0.532,-0.29600000000000004,0.784,62.35,55.798,-38.858000000000004
2026-07-21 03:20:21.915,0.49,-0.26,0.87,18.86,14.34,-9.28,0.508,-0.268,0.842,32.724,31.125999999999998,-23.648
2026-07-21 03:20:21.917,0.49,-0.23,0.87,37.9,-7.51,-7.26,0.5040000000000001,-0.258,0.8619999999999999,24.813999999999993,10.764,-14.394
2026-07-21 03:20:21.978,0.52,-0.18,0.86,37.9,-7.51,-7.26,0.5040000000000001,-0.238,0.8640000000000001,27.035999999999994,5.868,-10.596
2026-07-21 03:20:22.036,0.54,-0.17,0.83,33.57,-12.15,-0.24,0.51,-0.22000000000000003,0.858,29.697999999999997,0.43599999999999994,-7.726000000000001
2026-07-21 03:20:22.037,0.55,-0.17,0.82,23.13,-7.14,3.66,0.518,-0.202,0.85,30.27199999999999,-3.9939999999999998,-4.076
2026-07-21 03:20:22.038,0.55,-0.17,0.82,23.13,-7.14,3.66,0.53,-0.184,0.8400000000000001,31.125999999999994,-8.290000000000001,-1.488
2026-07-21 03:20:22.154,0.55,-0.15,0.81,18.19,-2.5,1.59,0.542,-0.168,0.828,27.18399999999999,-7.287999999999999,0.2820000000000001
2026-07-21 03:20:22.156,0.55,-0.15,0.81,18.19,-2.5,1.59,0.548,-0.162,0.818,23.241999999999997,-6.286,2.052
2026-07-21 03:20:22.157,0.51,-0.16,0.85,-5.31,12.27,0.24,0.542,-0.16,0.8219999999999998,15.465999999999998,-1.4020000000000004,2.148
2026-07-21 03:20:22.225,0.49,-0.17,0.88,-9.03,15.08,1.28,0.53,-0.16,0.834,9.033999999999995,3.0420000000000003,1.672
2026-07-21 03:20:22.276,0.49,-0.17,0.87,-1.83,5.74,-0.06,0.518,-0.16,0.8440000000000001,4.0419999999999945,5.618,0.9279999999999999
2026-07-21 03:20:22.343,0.51,-0.15,0.86,3.85,2.56,-2.26,0.51,-0.16,0.8540000000000001,1.1739999999999946,6.63,0.15800000000000008
2026-07-21 03:20:22.397,0.5,-0.15,0.85,-0.24,9.09,-3.54,0.5,-0.16,0.8620000000000001,-2.512000000000006,8.948,-0.868
2026-07-21 03:20:22.457,0.48,-0.16,0.87,-4.52,6.41,-4.03,0.49399999999999994,-0.16,0.866,-2.3540000000000054,7.775999999999999,-1.722
2026-07-21 03:20:22.458,0.48,-0.16,0.87,-4.52,6.41,-4.03,0.492,-0.158,0.8640000000000001,-1.4520000000000057,6.042,-2.784
2026-07-21 03:20:22.516,0.49,-0.16,0.86,-0.73,-1.46,-3.05,0.492,-0.156,0.8619999999999999,-1.2320000000000058,4.602,-3.382
2026-07-21 03:20:22.575,0.5,-0.16,0.87,-1.1,-3.78,-2.08,0.49000000000000005,-0.158,0.8640000000000001,-2.2220000000000057,3.3340000000000005,-3.346
2026-07-21 03:20:22.577,0.5,-0.16,0.87,-1.1,-3.78,-2.08,0.49000000000000005,-0.16,0.868,-2.3940000000000055,0.7600000000000001,-3.054
2026-07-21 03:20:22.635,0.5,-0.16,0.87,-3.23,0.67,-2.32,0.49400000000000005,-0.16,0.868,-2.1360000000000054,-0.3879999999999999,-2.7119999999999997
2026-07-21 03:20:22.636,0.49,-0.16,0.87,-3.54,1.83,-2.44,0.4960000000000001,-0.16,0.868,-1.940000000000006,-1.3039999999999998,-2.3939999999999997
2026-07-21 03:20:22.695,0.49,-0.16,0.86,-4.09,-0.37,-2.93,0.496,-0.16,0.868,-2.612000000000006,-1.0859999999999999,-2.37
2026-07-21 03:20:22.696,0.5,-0.17,0.86,-5.74,-1.28,-3.48,0.496,-0.162,0.866,-3.5400000000000063,-0.586,-2.65
2026-07-21 03:20:22.759,0.5,-0.17,0.86,-5.74,-1.28,-3.48,0.496,-0.164,0.8640000000000001,-4.468000000000005,-0.086,-2.93
2026-07-21 03:20:22.760,0.5,-0.17,0.87,-8.12,3.23,-3.23,0.496,-0.166,0.8640000000000001,-5.446000000000005,0.426,-3.112
2026-07-21 03:20:22.816,0.5,-0.18,0.87,-9.52,8.48,-1.71,0.49800000000000005,-0.17,0.8640000000000001,-6.642000000000006,1.7560000000000002,-2.966
2026-07-21 03:20:22.877,0.49,-0.19,0.87,-7.75,8.91,0.12,0.49800000000000005,-0.17600000000000002,0.866,-7.374000000000005,3.6120000000000005,-2.356
2026-07-21 03:20:22.935,0.48,-0.18,0.87,2.01,1.22,-0.24,0.49399999999999994,-0.178,0.868,-5.824000000000006,4.112,-1.7080000000000002
2026-07-21 03:20:22.940,0.48,-0.18,0.87,2.01,1.22,-0.24,0.49000000000000005,-0.18,0.87,-4.274000000000005,4.612,-1.06
2026-07-21 03:20:22.941,0.48,-0.18,0.87,3.48,-0.31,-0.73,0.48599999999999993,-0.182,0.87,-1.954000000000006,3.904000000000001,-0.5599999999999999
2026-07-21 03:20:23.004,0.48,-0.18,0.87,3.48,-0.31,-0.73,0.48200000000000004,-0.182,0.87,0.6459999999999939,2.1460000000000004,-0.364
2026-07-21 03:20:23.005,0.48,-0.18,0.87,4.58,-0.12,-1.95,0.48,-0.18,0.87,3.111999999999994,0.34000000000000036,-0.778
2026-07-21 03:20:23.061,0.49,-0.17,0.87,5.43,1.22,-3.36,0.48200000000000004,-0.178,0.87,3.7959999999999936,0.34000000000000036,-1.402
2026-07-21 03:20:23.062,0.49,-0.17,0.87,5.43,1.22,-3.36,0.484,-0.176,0.87,4.479999999999994,0.34000000000000036,-2.026
2026-07-21 03:20:23.175,0.48,-0.16,0.87,2.38,2.87,-2.38,0.484,-0.172,0.87,4.259999999999994,0.9760000000000003,-2.356
2026-07-21 03:20:23.177,0.48,-0.17,0.88,-1.77,4.33,0.12,0.484,-0.16999999999999998,0.8719999999999999,3.2099999999999937,1.9040000000000006,-2.186
2026-07-21 03:20:23.178,0.47,-0.17,0.88,-4.21,8.12,1.59,0.48200000000000004,-0.168,0.874,1.451999999999994,3.5519999999999996,-1.4779999999999998
2026-07-21 03:20:23.239,0.47,-0.17,0.88,-4.21,8.12,1.59,0.4779999999999999,-0.168,0.876,-0.47600000000000603,4.932,-0.4879999999999999
2026-07-21 03:20:23.296,0.45,-0.19,0.88,-11.78,16.54,1.89,0.47000000000000003,-0.17200000000000001,0.8779999999999999,-3.9180000000000055,7.9959999999999996,0.562
2026-07-21 03:20:23.356,0.44,-0.19,0.88,-14.4,17.82,1.89,0.462,-0.17800000000000002,0.88,-7.274000000000006,10.986,1.416
2026-07-21 03:20:23.357,0.42,-0.2,0.88,-17.33,22.16,3.97,0.45,-0.184,0.88,-10.386000000000006,14.552000000000001,2.186
2026-07-21 03:20:23.418,0.39,-0.22,0.89,-22.16,30.46,10.86,0.434,-0.194,0.882,-13.976000000000004,19.02,4.04
2026-07-21 03:20:23.475,0.36,-0.22,0.9,-27.77,31.07,23.25,0.41200000000000003,-0.20400000000000001,0.8860000000000001,-18.688000000000006,23.610000000000003,8.372
2026-07-21 03:20:23.541,0.37,-0.24,0.85,-110.84,22.95,42.85,0.396,-0.21400000000000002,0.8800000000000001,-38.50000000000001,24.892000000000003,16.564
2026-07-21 03:20:23.596,0.23,-0.55,0.71,-174.74,41.99,53.59,0.354,-0.28600000000000003,0.8460000000000001,-70.56800000000001,29.726,26.904000000000003
2026-07-21 03:20:23.597,0.23,-0.55,0.71,-174.74,41.99,53.59,0.316,-0.356,0.812,-102.05000000000001,33.692,36.828
2026-07-21 03:20:23.666,0.18,-0.69,0.72,-185.85,39.79,69.03,0.274,-0.45,0.7779999999999999,-134.788,35.558,48.462
2026-07-21 03:20:23.726,0.2,-0.82,0.78,-70.31,-12.63,32.41,0.24200000000000005,-0.5700000000000001,0.754,-143.296,26.818,50.294
2026-07-21 03:20:23.727,0.1,-0.82,0.76,-26.31,12.27,45.53,0.188,-0.6859999999999999,0.736,-126.39000000000001,24.682000000000002,50.83
2026-07-21 03:20:23.776,0.1,-0.82,0.76,-26.31,12.27,45.53,0.162,-0.74,0.746,-96.704,18.738,49.218
2026-07-21 03:20:23.835,0.14,-0.74,0.63,-3.42,-7.75,64.94,0.14400000000000004,-0.7779999999999999,0.73,-62.44,8.79,51.488
2026-07-21 03:20:23.836,0.14,-0.74,0.63,-3.42,-7.75,64.94,0.13600000000000004,-0.788,0.712,-25.954000000000008,-0.7180000000000003,50.67
2026-07-21 03:20:23.896,0.15,-0.74,0.6,-4.7,-17.46,23.38,0.12600000000000003,-0.772,0.6759999999999999,-12.832000000000004,-1.6840000000000004,48.864
2026-07-21 03:20:23.897,0.12,-0.73,0.6,-4.7,-17.46,23.38,0.13000000000000003,-0.754,0.644,-8.510000000000005,-7.630000000000001,44.434
2026-07-21 03:20:23.956,0.09,-0.73,0.63,-7.87,-18.07,16.17,0.12800000000000003,-0.736,0.618,-4.822000000000005,-13.697999999999999,38.562
2026-07-21 03:20:24.016,0.11,-0.75,0.64,-19.78,-26.25,9.03,0.12200000000000004,-0.738,0.62,-8.094000000000005,-17.398,27.380000000000003
2026-07-21 03:20:24.017,0.12,-0.8,0.62,-31.01,-24.78,1.89,0.11800000000000002,-0.75,0.618,-13.612000000000005,-20.804,14.77
2026-07-21 03:20:24.076,0.1,-0.83,0.58,-34.24,-18.31,-0.55,0.10800000000000001,-0.768,0.6140000000000001,-19.520000000000003,-20.974,9.984
2026-07-21 03:20:24.136,0.12,-0.84,0.54,-37.54,-30.33,-12.7,0.10800000000000001,-0.79,0.602,-26.088000000000005,-23.548,2.7680000000000002
2026-07-21 03:20:24.137,0.18,-0.85,0.5,-43.15,-56.7,-34.85,0.12600000000000003,-0.8140000000000001,0.576,-33.144000000000005,-31.274,-7.436
2026-07-21 03:20:24.198,0.24,-0.86,0.49,-20.63,-55.6,-47.3,0.15200000000000002,-0.836,0.546,-33.31400000000001,-37.144,-18.701999999999998
2026-07-21 03:20:24.257,0.28,-0.81,0.54,38.21,-21.06,-44.43,0.18400000000000002,-0.8379999999999999,0.53,-19.470000000000006,-36.4,-27.965999999999998
2026-07-21 03:20:24.319,0.32,-0.74,0.62,61.52,-7.45,-25.09,0.22800000000000004,-0.82,0.538,-0.3180000000000021,-34.228,-32.873999999999995
2026-07-21 03:20:24.375,0.33,-0.72,0.64,38.82,-20.2,-26.31,0.27,-0.796,0.558,14.953999999999997,-32.202,-35.596
2026-07-21 03:20:24.376,0.32,-0.71,0.66,21.85,-24.29,-24.05,0.29800000000000004,-0.768,0.5900000000000001,27.953999999999997,-25.72,-33.436
2026-07-21 03:20:24.377,0.32,-0.71,0.66,21.85,-24.29,-24.05,0.31400000000000006,-0.738,0.624,36.45,-19.458000000000002,-28.786
2026-07-21 03:20:24.435,0.31,-0.7,0.67,12.94,-26.06,-14.95,0.32,-0.716,0.65,31.395999999999997,-20.458,-22.89
2026-07-21 03:20:24.436,0.33,-0.69,0.66,7.02,-36.99,-8.12,0.322,-0.706,0.658,20.495999999999995,-26.365999999999996,-19.496
2026-07-21 03:20:24.496,0.33,-0.69,0.66,7.02,-36.99,-8.12,0.32200000000000006,-0.7,0.6620000000000001,14.135999999999996,-29.724,-15.857999999999999
2026-07-21 03:20:24.615,0.35,-0.69,0.57,-25.09,-54.5,2.38,0.328,-0.696,0.644,4.747999999999996,-35.766000000000005,-10.572
2026-07-21 03:20:24.616,0.35,-0.69,0.57,-25.09,-54.5,2.38,0.334,-0.692,0.626,-4.640000000000004,-41.80800000000001,-5.286
2026-07-21 03:20:24.617,0.34,-0.77,0.5,-49.13,-66.89,14.16,0.34,-0.706,0.592,-17.054000000000006,-49.974000000000004,0.5360000000000003
2026-07-21 03:20:24.676,0.34,-0.85,0.43,-77.03,-94.18,35.77,0.34199999999999997,-0.738,0.546,-33.864000000000004,-61.412,9.314000000000002
2026-07-21 03:20:24.679,0.33,-0.91,0.36,-77.03,-94.18,35.77,0.342,-0.782,0.48599999999999993,-50.67400000000001,-72.85,18.092000000000002
2026-07-21 03:20:24.736,0.35,-0.93,0.3,-81.91,-105.53,38.94,0.34199999999999997,-0.8300000000000001,0.43200000000000005,-62.03800000000001,-83.056,25.404000000000003
2026-07-21 03:20:24.737,0.41,-0.94,0.22,-81.05,-122.25,38.7,0.35400000000000004,-0.8800000000000001,0.362,-73.22999999999999,-96.606,32.668
2026-07-21 03:20:24.796,0.47,-0.98,0.14,-73.43,-129.88,34.36,0.38,-0.922,0.29000000000000004,-78.09,-109.204,36.708000000000006
2026-07-21 03:20:24.797,0.47,-0.98,0.14,-47.73,-107.18,26.86,0.40599999999999997,-0.9480000000000001,0.23199999999999998,-72.23,-111.804,34.926
2026-07-21 03:20:24.856,0.44,-1.0,0.09,-47.73,-107.18,26.86,0.42799999999999994,-0.966,0.17800000000000002,-66.37,-114.404,33.144
2026-07-21 03:20:24.857,0.4,-0.98,0.05,-13.67,-75.5,17.76,0.438,-0.976,0.128,-52.722,-108.398,28.907999999999998
2026-07-21 03:20:24.858,0.4,-0.98,0.05,-13.67,-75.5,17.76,0.43600000000000005,-0.984,0.09400000000000001,-39.246,-99.048,24.720000000000002
2026-07-21 03:20:24.921,0.44,-0.98,0.01,-0.31,-65.73,10.25,0.43000000000000005,-0.984,0.068,-24.622000000000003,-86.218,19.898000000000003
2026-07-21 03:20:24.978,0.53,-1.01,-0.04,-6.77,-72.51,2.87,0.442,-0.9899999999999999,0.032,-16.430000000000003,-79.28399999999999,15.1
2026-07-21 03:20:25.036,0.61,-1.05,-0.1,-11.23,-61.77,-39.18,0.4760000000000001,-1.0,-0.006,-9.130000000000003,-70.20200000000001,1.8920000000000001
2026-07-21 03:20:25.037,0.63,-1.1,-0.11,-11.23,-61.77,-39.18,0.522,-1.024,-0.038,-8.642000000000001,-67.45599999999999,-9.496
2026-07-21 03:20:25.096,0.54,-1.12,-0.12,-16.91,-49.56,-74.16,0.55,-1.052,-0.072,-9.290000000000003,-62.267999999999994,-27.880000000000003
2026-07-21 03:20:25.097,0.43,-1.11,-0.16,-47.91,-66.89,-91.86,0.548,-1.078,-0.10600000000000001,-18.810000000000002,-62.5,-48.302
2026-07-21 03:20:25.156,0.41,-1.07,-0.26,-105.35,-119.2,-90.15,0.524,-1.0900000000000003,-0.15,-38.525999999999996,-71.838,-66.906
2026-07-21 03:20:25.157,0.41,-1.07,-0.26,-105.35,-119.2,-90.15,0.484,-1.094,-0.18200000000000002,-57.35,-83.324,-77.1
2026-07-21 03:20:25.215,0.39,-0.9,-0.43,-146.55,-169.62,-88.2,0.43600000000000005,-1.054,-0.246,-84.414,-104.894,-86.904
2026-07-21 03:20:25.276,0.23,-0.41,-0.72,-143.37,-139.71,-25.82,0.374,-0.9120000000000001,-0.366,-109.70599999999999,-122.924,-77.23600000000002
2026-07-21 03:20:25.277,0.23,-0.41,-0.72,-143.37,-139.71,-25.82,0.33399999999999996,-0.772,-0.4779999999999999,-128.798,-137.488,-64.028
2026-07-21 03:20:25.335,0.18,-0.24,-0.74,-162.41,-105.65,18.86,0.288,-0.606,-0.5740000000000001,-140.20999999999998,-134.778,-42.226
2026-07-21 03:20:25.337,0.18,-0.24,-0.74,-162.41,-105.65,18.86,0.242,-0.44000000000000006,-0.6699999999999999,-151.622,-132.068,-20.424
2026-07-21 03:20:25.396,0.36,-0.21,-0.74,-148.62,3.97,114.81,0.23600000000000004,-0.302,-0.732,-152.036,-97.35000000000001,20.178
2026-07-21 03:20:25.456,0.66,-0.29,-0.81,-115.97,71.23,145.81,0.32199999999999995,-0.27799999999999997,-0.75,-146.55599999999998,-55.162,54.504
2026-07-21 03:20:25.515,1.38,-0.29,-0.93,-91.13,117.49,97.05,0.5519999999999999,-0.254,-0.792,-136.108,-3.7220000000000026,79.078
2026-07-21 03:20:25.639,1.54,-0.27,-0.89,-86.49,112.79,32.84,0.8239999999999998,-0.26,-0.8220000000000001,-120.924,39.965999999999994,81.874
2026-07-21 03:20:25.640,1.44,-0.27,-0.74,-88.81,97.84,-34.61,1.076,-0.266,-0.8219999999999998,-106.204,80.66400000000002,71.17999999999999
2026-07-21 03:20:25.641,1.19,-0.24,-0.54,-79.04,80.38,-86.3,1.2419999999999998,-0.272,-0.782,-92.288,95.946,30.958000000000006
2026-07-21 03:20:25.642,1.19,-0.24,-0.54,-49.74,59.27,-116.03,1.3479999999999999,-0.262,-0.728,-79.042,93.554,-21.41
2026-07-21 03:20:25.698,0.95,-0.17,-0.38,-49.74,59.27,-116.03,1.262,-0.238,-0.618,-70.76400000000001,81.91,-64.026
2026-07-21 03:20:25.699,0.76,-0.06,-0.3,-23.01,23.86,-134.34,1.1059999999999999,-0.196,-0.5000000000000001,-58.068000000000005,64.124,-97.46200000000002
2026-07-21 03:20:25.700,0.76,-0.06,-0.3,-23.01,23.86,-134.34,0.97,-0.15399999999999997,-0.41200000000000003,-44.908,49.327999999999996,-117.40799999999999
2026-07-21 03:20:25.758,0.61,0.07,-0.3,-3.23,-13.18,-144.04,0.8539999999999999,-0.09200000000000001,-0.364,-29.746000000000002,30.615999999999996,-128.956
2026-07-21 03:20:25.825,0.51,0.15,-0.36,20.51,-30.7,-135.38,0.718,-0.014000000000000002,-0.32799999999999996,-15.695999999999998,12.622000000000003,-132.826
2026-07-21 03:20:25.875,0.51,0.15,-0.36,20.51,-30.7,-135.38,0.63,0.05,-0.32399999999999995,-1.6460000000000001,-5.372,-136.69599999999997
2026-07-21 03:20:25.876,0.49,0.09,-0.46,50.9,-33.75,-85.02,0.576,0.08,-0.356,13.136000000000001,-16.894,-126.832
2026-07-21 03:20:25.936,0.51,0.05,-0.49,47.67,-42.42,-73.06,0.526,0.10200000000000001,-0.394,27.272000000000002,-30.15,-114.576
2026-07-21 03:20:25.937,0.52,0.04,-0.51,46.69,-44.31,-68.48,0.508,0.096,-0.43599999999999994,37.256,-36.376,-99.46400000000001
2026-07-21 03:20:25.996,0.52,0.04,-0.51,46.69,-44.31,-68.48,0.51,0.074,-0.466,42.492000000000004,-39.098,-86.084
2026-07-21 03:20:26.055,0.58,0.03,-0.61,57.5,-36.19,-69.95,0.524,0.05,-0.516,49.89,-40.196000000000005,-72.998
2026-07-21 03:20:26.118,0.58,0.03,-0.77,72.69,-25.88,-86.3,0.542,0.038,-0.5780000000000001,54.248000000000005,-38.622,-73.25399999999999
2026-07-21 03:20:26.176,0.52,-0.02,-0.82,71.41,-25.21,-97.17,0.5439999999999999,0.024,-0.644,58.996,-35.18,-78.076
2026-07-21 03:20:26.236,0.43,-0.13,-0.86,69.7,-25.15,-103.45,0.526,-0.010000000000000004,-0.714,63.598,-31.348000000000003,-85.07
2026-07-21 03:20:26.296,0.25,-0.28,-1.08,73.67,-35.52,-109.86,0.472,-0.07400000000000001,-0.828,68.994,-29.589999999999996,-93.346
2026-07-21 03:20:26.355,0.19,-0.24,-1.25,66.83,-43.82,-116.76,0.394,-0.128,-0.9559999999999998,70.86,-31.116000000000003,-102.708
2026-07-21 03:20:26.357,0.11,-0.14,-1.35,52.12,-33.2,-115.3,0.30000000000000004,-0.162,-1.072,66.74600000000001,-32.58,-108.508
2026-07-21 03:20:26.416,0.02,-0.07,-1.31,35.83,6.71,-94.54,0.2,-0.17200000000000001,-1.17,59.63000000000001,-26.196000000000005,-107.982
2026-07-21 03:20:26.418,-0.04,-0.05,-1.15,21.91,55.3,-57.5,0.10600000000000001,-0.156,-1.228,50.071999999999996,-10.106000000000003,-98.792
2026-07-21 03:20:26.476,-0.05,-0.07,-0.99,14.47,76.48,-18.07,0.046,-0.11400000000000002,-1.2100000000000002,38.232,12.294,-80.434
2026-07-21 03:20:26.478,-0.05,-0.07,-0.99,14.47,76.48,-18.07,-0.0020000000000000018,-0.08,-1.1580000000000001,27.76,36.354,-60.696000000000005
2026-07-21 03:20:26.539,0.0,-0.09,-0.96,16.6,54.57,12.82,-0.024,-0.07,-1.08,20.656,53.908,-35.072
2026-07-21 03:20:26.662,0.07,-0.09,-1.03,23.86,6.47,31.01,-0.014000000000000002,-0.074,-1.0239999999999998,18.262,53.86,-9.962
2026-07-21 03:20:26.663,0.08,-0.11,-1.08,28.44,-35.1,40.59,0.01,-0.08600000000000001,-1.01,19.568,35.78000000000001,9.656
2026-07-21 03:20:26.724,-0.02,-0.28,-0.95,15.32,-44.86,60.24,0.016,-0.12800000000000003,-1.002,19.738,11.512,25.318
2026-07-21 03:20:26.779,-0.08,-0.32,-0.79,14.95,-10.56,74.83,0.01,-0.178,-0.962,19.834,-5.896000000000001,43.898
2026-07-21 03:20:26.836,-0.12,-0.38,-0.71,24.78,6.53,81.05,-0.013999999999999999,-0.23600000000000004,-0.9120000000000001,21.47,-15.504000000000001,57.544
2026-07-21 03:20:26.837,-0.12,-0.5,-0.64,39.0,16.11,93.99,-0.052000000000000005,-0.31799999999999995,-0.834,24.498,-13.576000000000002,70.14
2026-07-21 03:20:26.896,-0.07,-0.59,-0.66,56.46,14.16,108.46,-0.08199999999999999,-0.41400000000000003,-0.75,30.101999999999997,-3.724,83.714
2026-07-21 03:20:26.955,-0.09,-0.61,-0.78,69.34,2.75,116.33,-0.096,-0.48,-0.716,40.906,5.798,94.93199999999999
2026-07-21 03:20:26.956,-0.06,-0.83,-0.9,70.13,2.32,131.35,-0.092,-0.5820000000000001,-0.738,51.94199999999999,8.373999999999999,106.23599999999999
2026-07-21 03:20:27.017,0.14,-1.21,-0.96,68.6,18.98,160.71,-0.039999999999999994,-0.748,-0.788,60.705999999999996,10.863999999999999,122.168
2026-07-21 03:20:27.078,0.27,-1.3,-0.97,75.01,25.51,167.72,0.038000000000000006,-0.908,-0.8539999999999999,67.908,12.744,136.914
2026-07-21 03:20:27.079,0.22,-1.12,-1.02,84.9,9.22,143.01,0.096,-1.014,-0.9259999999999999,73.59599999999999,11.756,143.82399999999998
2026-07-21 03:20:27.136,0.13,-0.98,-1.08,87.28,-19.53,123.54,0.14,-1.0879999999999999,-0.986,77.184,7.3,145.26600000000002
2026-07-21 03:20:27.138,0.13,-0.98,-1.08,87.28,-19.53,123.54,0.178,-1.1179999999999999,-1.0219999999999998,80.614,2.9299999999999997,143.704
2026-07-21 03:20:27.258,0.07,-0.97,-1.15,79.83,-52.92,117.25,0.164,-1.07,-1.06,82.86000000000001,-11.45,135.012
2026-07-21 03:20:27.259,-0.13,-0.98,-0.89,46.14,-52.92,76.78,0.084,-1.0059999999999998,-1.044,77.086,-27.136000000000003,116.824
2026-07-21 03:20:27.316,-0.13,-0.98,-0.89,46.14,-52.92,76.78,0.014000000000000002,-0.978,-1.018,69.334,-39.564,103.578
2026-07-21 03:20:27.377,-0.13,-0.93,-0.78,31.37,-6.41,66.04,-0.038,-0.968,-0.9579999999999999,58.152,-36.940000000000005,92.078
2026-07-21 03:20:27.378,-0.1,-0.88,-0.63,31.37,-6.41,66.04,-0.084,-0.9480000000000001,-0.868,46.970000000000006,-34.316,80.578
2026-07-21 03:20:27.435,-0.04,-0.8,-0.5,35.46,6.35,55.54,-0.10600000000000001,-0.914,-0.738,38.096000000000004,-22.462,68.236
2026-07-21 03:20:27.436,0.04,-0.7,-0.45,39.06,3.66,32.84,-0.072,-0.858,-0.65,36.68000000000001,-11.146,59.448
2026-07-21 03:20:27.496,0.04,-0.7,-0.45,39.06,3.66,32.84,-0.038,-0.8019999999999999,-0.562,35.263999999999996,0.16999999999999993,50.660000000000004
2026-07-21 03:20:27.497,0.14,-0.67,-0.36,35.4,7.87,-23.74,0.016000000000000004,-0.75,-0.47800000000000004,36.07,3.026,32.704
2026-07-21 03:20:27.556,0.14,-0.67,-0.36,35.4,7.87,-23.74,0.06400000000000002,-0.708,-0.42400000000000004,36.876,5.882,14.748000000000001
2026-07-21 03:20:27.557,0.11,-0.76,-0.29,37.66,17.33,-51.27,0.094,-0.7,-0.382,37.316,8.078,-6.613999999999999
2026-07-21 03:20:27.618,0.03,-0.88,-0.28,47.61,18.68,-79.1,0.092,-0.736,-0.348,39.025999999999996,11.081999999999999,-29.002
2026-07-21 03:20:27.619,0.03,-0.88,-0.28,47.61,18.68,-79.1,0.09000000000000001,-0.772,-0.314,40.736,14.086000000000002,-51.39
2026-07-21 03:20:27.677,-0.06,-0.98,-0.3,57.43,13.73,-98.57,0.05000000000000001,-0.834,-0.30199999999999994,45.142,15.258,-66.356
2026-07-21 03:20:27.736,-0.15,-1.04,-0.31,44.56,-1.89,-106.51,-0.008000000000000002,-0.908,-0.292,46.974000000000004,13.305999999999997,-82.91
2026-07-21 03:20:27.741,-0.15,-1.04,-0.31,44.56,-1.89,-106.51,-0.06000000000000001,-0.9640000000000001,-0.296,48.354,9.462,-93.958
2026-07-21 03:20:27.796,-0.19,-0.99,-0.3,37.29,-7.63,-108.76,-0.10400000000000001,-0.986,-0.3,46.290000000000006,4.2,-99.89
2026-07-21 03:20:27.797,-0.19,-0.99,-0.3,37.29,-7.63,-108.76,-0.148,-1.008,-0.304,44.226,-1.0619999999999998,-105.822
2026-07-21 03:20:27.857,-0.21,-0.92,-0.3,32.84,-16.42,-109.44,-0.178,-0.9960000000000001,-0.304,39.308,-7.0920000000000005,-107.99600000000001
2026-07-21 03:20:27.858,-0.21,-0.87,-0.33,28.87,-23.99,-104.86,-0.19,-0.9620000000000001,-0.308,36.17,-11.512,-107.66600000000001
2026-07-21 03:20:27.916,-0.21,-0.85,-0.35,27.04,-22.16,-92.96,-0.202,-0.924,-0.316,32.666,-15.565999999999999,-104.95599999999999
2026-07-21 03:20:27.975,-0.21,-0.84,-0.35,25.45,-15.56,-76.42,-0.20600000000000002,-0.8939999999999999,-0.32599999999999996,30.298000000000002,-17.152,-98.488
2026-07-21 03:20:27.976,-0.2,-0.82,-0.35,20.57,-11.66,-59.94,-0.20800000000000002,-0.86,-0.336,26.954,-17.958,-88.724
2026-07-21 03:20:28.100,-0.19,-0.81,-0.35,14.04,-9.28,-43.76,-0.20400000000000001,-0.8380000000000001,-0.346,23.194,-16.53,-75.588
2026-07-21 03:20:28.101,-0.18,-0.82,-0.35,10.38,-4.88,-25.57,-0.198,-0.828,-0.35,19.496000000000002,-12.708,-59.73
2026-07-21 03:20:28.163,-0.2,-0.89,-0.3,6.65,10.07,11.84,-0.196,-0.836,-0.33999999999999997,15.418000000000001,-6.262,-38.769999999999996
2026-07-21 03:20:28.164,-0.21,-0.92,-0.26,10.93,17.58,31.74,-0.196,-0.852,-0.32199999999999995,12.514,0.366,-17.137999999999998
2026-07-21 03:20:28.215,-0.21,-0.92,-0.26,10.93,17.58,31.74,-0.198,-0.8720000000000001,-0.30399999999999994,10.586,6.214,1.1979999999999997
2026-07-21 03:20:28.216,-0.22,-0.95,-0.25,15.01,25.76,48.1,-0.20400000000000001,-0.9,-0.284,10.78,13.222,19.57
2026-07-21 03:20:28.275,-0.22,-0.96,-0.22,3.42,37.66,54.14,-0.21200000000000002,-0.9279999999999999,-0.25799999999999995,9.388,21.729999999999997,35.512
2026-07-21 03:20:28.276,-0.22,-0.97,-0.17,-19.23,54.44,59.08,-0.21600000000000003,-0.944,-0.23200000000000004,4.212,30.603999999999996,44.959999999999994
2026-07-21 03:20:28.395,-0.21,-0.99,-0.12,-33.45,70.31,73.43,-0.21600000000000003,-0.958,-0.20400000000000001,-4.664000000000001,41.15,53.298
2026-07-21 03:20:28.396,-0.19,-1.05,-0.1,-30.94,79.16,92.35,-0.21200000000000002,-0.984,-0.17200000000000001,-13.038,53.465999999999994,65.42
2026-07-21 03:20:28.398,-0.19,-1.13,-0.14,-11.54,94.12,109.25,-0.20600000000000002,-1.02,-0.15000000000000002,-18.348000000000003,67.138,77.65
2026-07-21 03:20:28.455,-0.19,-1.13,-0.14,-11.54,94.12,109.25,-0.2,-1.0539999999999998,-0.134,-21.34,78.42999999999999,88.672
2026-07-21 03:20:28.456,-0.19,-1.13,-0.14,-11.54,94.12,109.25,-0.194,-1.0859999999999999,-0.128,-19.802,86.366,98.70599999999999
2026-07-21 03:20:28.516,-0.25,-1.16,-0.12,32.35,180.42,114.5,-0.202,-1.1199999999999999,-0.128,-6.641999999999999,108.388,106.92
2026-07-21 03:20:28.580,-0.26,-1.04,-0.1,17.58,168.46,85.57,-0.21600000000000003,-1.1179999999999999,-0.128,3.062000000000001,126.248,105.564
2026-07-21 03:20:28.635,-0.25,-1.06,-0.16,-8.67,112.43,72.75,-0.22800000000000004,-1.1039999999999999,-0.132,3.6360000000000015,129.91000000000003,98.26399999999998
2026-07-21 03:20:28.636,-0.24,-1.07,-0.2,-29.97,72.69,70.37,-0.238,-1.092,-0.144,-0.04999999999999858,125.624,90.48799999999999
2026-07-21 03:20:28.697,-0.24,-1.07,-0.2,-29.97,72.69,70.37,-0.248,-1.0799999999999998,-0.156,-3.7359999999999984,121.33800000000001,82.71199999999999
2026-07-21 03:20:28.756,-0.06,-1.02,-0.29,-39.31,46.51,89.72,-0.21000000000000002,-1.052,-0.19,-18.068,94.55600000000001,77.756
2026-07-21 03:20:28.757,-0.0,-1.01,-0.28,-38.27,47.12,92.47,-0.158,-1.046,-0.22599999999999998,-29.238,70.28800000000001,79.136
2026-07-21 03:20:28.816,-0.0,-1.01,-0.28,-38.27,47.12,92.47,-0.10800000000000001,-1.036,-0.25,-35.158,57.226,83.08
2026-07-21 03:20:28.817,0.04,-1.03,-0.24,-35.4,47.3,89.72,-0.052000000000000005,-1.028,-0.258,-36.24399999999999,52.148,86.95
2026-07-21 03:20:28.876,0.1,-1.05,-0.22,-34.18,30.03,79.53,0.016000000000000004,-1.024,-0.262,-37.086,43.616,88.782
2026-07-21 03:20:28.877,0.16,-1.07,-0.21,-33.39,1.34,57.62,0.06000000000000001,-1.034,-0.246,-35.902,34.582,82.362
2026-07-21 03:20:28.935,0.16,-1.07,-0.21,-33.39,1.34,57.62,0.092,-1.046,-0.23199999999999998,-34.926,25.426,75.392
2026-07-21 03:20:28.996,0.08,-1.05,-0.14,-15.99,-33.94,-11.41,0.10800000000000001,-1.054,-0.20400000000000001,-30.47,9.213999999999999,54.616
2026-07-21 03:20:28.997,0.08,-1.05,-0.14,-15.99,-33.94,-11.41,0.11599999999999999,-1.058,-0.184,-26.588,-7.033999999999999,34.38999999999999
2026-07-21 03:20:28.998,-0.03,-1.01,-0.11,2.87,-34.55,-43.95,0.09,-1.05,-0.162,-19.178,-19.949999999999996,9.693999999999996
2026-07-21 03:20:29.125,-0.03,-1.01,-0.11,2.87,-34.55,-43.95,0.052000000000000005,-1.038,-0.14200000000000002,-11.925999999999998,-27.127999999999997,-10.620000000000005
2026-07-21 03:20:29.126,-0.14,-0.99,-0.1,20.08,-36.25,-67.5,-0.008000000000000002,-1.0219999999999998,-0.12,-1.2319999999999993,-34.646,-35.644000000000005
2026-07-21 03:20:29.127,-0.27,-1.08,-0.11,22.64,-75.26,-96.98,-0.078,-1.028,-0.11399999999999999,6.4940000000000015,-42.910000000000004,-52.758
2026-07-21 03:20:29.175,-0.27,-1.08,-0.11,22.64,-75.26,-96.98,-0.148,-1.034,-0.10800000000000001,14.220000000000002,-51.174,-69.872
2026-07-21 03:20:29.176,-0.35,-1.26,-0.16,12.76,-99.79,-108.46,-0.21200000000000002,-1.084,-0.118,16.198,-64.22200000000001,-82.774
2026-07-21 03:20:29.236,-0.42,-1.43,-0.21,3.6,-122.8,-123.29,-0.29,-1.168,-0.13799999999999998,16.344,-81.872,-98.64200000000001
2026-07-21 03:20:29.237,-0.42,-1.43,-0.21,11.78,-129.46,-144.23,-0.346,-1.2559999999999998,-0.16,14.684000000000001,-100.51400000000001,-113.98800000000001
2026-07-21 03:20:29.296,-0.5,-1.42,-0.2,11.78,-129.46,-144.23,-0.392,-1.3239999999999998,-0.178,12.512,-111.354,-123.43800000000002
2026-07-21 03:20:29.298,-0.5,-1.26,-0.18,32.53,-131.84,-158.81,-0.438,-1.3599999999999999,-0.192,14.49,-122.67,-135.804
2026-07-21 03:20:29.299,-0.5,-1.26,-0.18,32.53,-131.84,-158.81,-0.46799999999999997,-1.3599999999999999,-0.196,18.444,-129.08,-145.87399999999997
2026-07-21 03:20:29.357,-0.35,-1.08,-0.18,38.45,-150.09,-157.78,-0.454,-1.29,-0.19,25.413999999999998,-134.538,-152.772
2026-07-21 03:20:29.418,-0.22,-1.0,-0.17,28.56,-157.84,-156.62,-0.414,-1.2040000000000002,-0.182,28.770000000000003,-140.214,-155.25000000000003
2026-07-21 03:20:29.419,-0.22,-1.0,-0.17,30.09,-127.99,-165.95,-0.358,-1.12,-0.176,32.432,-139.92000000000002,-159.594
2026-07-21 03:20:29.476,-0.4,-1.1,-0.35,51.09,-66.16,-169.62,-0.33799999999999997,-1.0879999999999999,-0.20999999999999996,36.144000000000005,-126.78399999999999,-161.756
2026-07-21 03:20:29.540,-0.46,-1.04,-0.36,71.59,15.56,-144.53,-0.32999999999999996,-1.044,-0.246,43.956,-97.304,-158.9
2026-07-21 03:20:29.541,-0.46,-1.04,-0.36,71.59,15.56,-144.53,-0.352,-1.036,-0.28200000000000003,50.584,-64.174,-156.25000000000003
2026-07-21 03:20:29.597,-0.28,-0.62,-0.07,52.12,114.07,-26.55,-0.364,-0.96,-0.26199999999999996,55.29600000000001,-9.791999999999998,-130.23600000000002
2026-07-21 03:20:29.598,-0.28,-0.62,-0.07,52.12,114.07,-26.55,-0.376,-0.884,-0.242,59.702,38.62,-102.35600000000001
2026-07-21 03:20:29.656,-0.21,-0.51,-0.03,28.75,85.02,15.87,-0.338,-0.766,-0.178,55.234,68.856,-65.25800000000001
2026-07-21 03:20:29.715,-0.2,-0.55,-0.09,4.27,28.2,42.3,-0.286,-0.668,-0.124,41.77,71.38399999999999,-27.892000000000007
2026-07-21 03:20:29.716,-0.21,-0.71,-0.24,-22.64,-25.94,67.08,-0.236,-0.602,-0.1,22.924,63.08399999999999,14.429999999999993
2026-07-21 03:20:29.776,-0.19,-0.96,-0.41,-54.81,-48.77,95.09,-0.21799999999999997,-0.67,-0.16799999999999998,1.538000000000001,30.516,38.757999999999996
2026-07-21 03:20:29.778,-0.17,-1.22,-0.47,-94.73,-23.74,121.7,-0.196,-0.79,-0.248,-27.832,2.9539999999999984,68.40799999999999
2026-07-21 03:20:29.837,-0.15,-1.4,-0.35,-124.08,42.18,144.53,-0.184,-0.968,-0.312,-58.398,-5.614,94.14
2026-07-21 03:20:29.849,-0.15,-1.4,-0.35,-124.08,42.18,144.53,-0.174,-1.138,-0.364,-84.068,-2.817999999999999,114.58599999999998
2026-07-21 03:20:29.896,-0.19,-1.45,-0.17,-118.96,118.16,157.35,-0.16999999999999998,-1.286,-0.35,-103.332,26.002,132.64000000000001
2026-07-21 03:20:29.897,-0.25,-1.41,-0.09,-84.47,156.74,146.06,-0.182,-1.376,-0.286,-109.26399999999998,67.104,142.834
2026-07-21 03:20:29.959,-0.23,-1.24,-0.11,-44.31,134.7,114.26,-0.194,-1.38,-0.21400000000000002,-99.17999999999999,98.792,141.346
2026-07-21 03:20:30.016,-0.11,-1.02,-0.15,-21.18,74.58,82.76,-0.186,-1.3039999999999998,-0.174,-78.6,105.272,128.99200000000002
2026-07-21 03:20:30.076,-0.05,-0.95,-0.22,-24.23,8.67,58.47,-0.166,-1.214,-0.148,-58.629999999999995,98.57,111.78
2026-07-21 03:20:30.135,-0.05,-1.12,-0.43,-38.27,-40.1,32.65,-0.13799999999999998,-1.148,-0.2,-42.492,66.91799999999999,86.84
2026-07-21 03:20:30.138,-0.01,-1.04,-0.36,-20.26,16.36,43.52,-0.09,-1.074,-0.254,-29.65,38.842,66.33200000000001
2026-07-21 03:20:30.139,-0.01,-1.04,-0.36,-20.26,16.36,43.52,-0.046,-1.034,-0.304,-24.839999999999996,15.174000000000001,52.184000000000005
2026-07-21 03:20:30.195,0.01,-0.9,-0.24,1.71,75.62,53.22,-0.022,-1.0100000000000002,-0.32199999999999995,-20.261999999999997,15.382000000000001,46.275999999999996
2026-07-21 03:20:30.196,0.01,-0.9,-0.24,1.71,75.62,53.22,-0.01,-1.0,-0.32599999999999996,-15.074000000000002,28.772000000000002,45.226
2026-07-21 03:20:30.262,0.01,-0.85,-0.18,2.56,71.53,42.05,0.002,-0.9460000000000001,-0.27599999999999997,-6.907999999999999,51.098,47.106
2026-07-21 03:20:30.326,-0.03,-0.94,-0.16,-13.67,-7.08,6.65,-0.0019999999999999996,-0.9259999999999999,-0.236,-5.589999999999998,46.410000000000004,39.732
2026-07-21 03:20:30.376,-0.06,-0.99,-0.12,-5.49,-14.47,1.95,-0.012,-0.916,-0.188,-2.635999999999997,40.244,31.418
2026-07-21 03:20:30.437,-0.09,-1.03,-0.09,4.64,-23.8,-3.36,-0.031999999999999994,-0.942,-0.158,-2.049999999999997,20.360000000000003,20.102
2026-07-21 03:20:30.438,-0.13,-1.12,-0.14,11.23,-50.29,-16.36,-0.06,-0.986,-0.13799999999999998,-0.14599999999999688,-4.822,6.186
2026-07-21 03:20:30.557,-0.15,-1.25,-0.23,8.67,-88.81,-36.93,-0.092,-1.066,-0.14800000000000002,1.076000000000003,-36.89,-9.61
2026-07-21 03:20:30.558,-0.15,-1.25,-0.23,0.55,-119.81,-61.89,-0.11599999999999999,-1.1280000000000001,-0.162,3.920000000000003,-59.436,-23.318
2026-07-21 03:20:30.559,-0.1,-1.34,-0.28,0.55,-119.81,-61.89,-0.124,-1.198,-0.194,5.128000000000004,-80.504,-36.086
2026-07-21 03:20:30.618,-0.25,-1.27,-0.24,38.39,-79.59,-141.6,-0.15599999999999997,-1.246,-0.22400000000000003,11.878000000000004,-91.662,-63.733999999999995
2026-07-21 03:20:30.676,-0.44,-1.23,-0.32,71.78,-62.5,-188.05,-0.21799999999999997,-1.268,-0.26,23.988000000000003,-94.104,-98.072
2026-07-21 03:20:30.736,-0.45,-1.0,-0.35,61.1,-72.33,-187.13,-0.278,-1.218,-0.284,34.474000000000004,-90.80799999999999,-128.11200000000002
2026-07-21 03:20:30.806,-0.35,-0.82,-0.27,43.27,-48.1,-140.38,-0.318,-1.132,-0.292,43.01800000000001,-76.466,-143.81
2026-07-21 03:20:30.856,-0.25,-0.66,-0.14,14.28,-7.63,-48.58,-0.348,-0.9959999999999999,-0.264,45.764,-54.029999999999994,-141.148
2026-07-21 03:20:30.857,-0.25,-0.66,-0.14,3.11,-3.23,-14.1,-0.348,-0.874,-0.244,38.708,-38.758,-115.648
2026-07-21 03:20:30.917,-0.26,-0.76,-0.16,-4.21,-5.55,16.72,-0.312,-0.78,-0.21200000000000002,23.51,-27.368000000000002,-74.69399999999999
2026-07-21 03:20:30.976,-0.25,-0.86,-0.2,-11.66,-9.77,45.35,-0.27199999999999996,-0.752,-0.18200000000000002,8.958000000000004,-14.856,-28.198
2026-07-21 03:20:31.035,-0.26,-0.99,-0.23,-20.14,-3.97,69.95,-0.254,-0.7859999999999999,-0.17400000000000002,-3.7239999999999975,-6.029999999999999,13.868
2026-07-21 03:20:31.036,-0.31,-1.11,-0.21,-25.76,23.38,91.13,-0.266,-0.876,-0.188,-11.731999999999996,0.17199999999999988,41.81
2026-07-21 03:20:31.096,-0.33,-1.13,-0.14,-24.35,62.74,112.12,-0.28200000000000003,-0.97,-0.188,-17.223999999999997,13.366,67.054
2026-07-21 03:20:31.156,-0.25,-1.06,-0.08,-18.86,81.48,129.94,-0.27999999999999997,-1.03,-0.17200000000000001,-20.154,30.772000000000002,89.69800000000001
2026-07-21 03:20:31.157,-0.14,-1.03,-0.12,-18.86,57.74,133.0,-0.258,-1.064,-0.156,-21.593999999999998,44.27400000000001,107.228
2026-07-21 03:20:31.217,-0.13,-1.11,-0.26,-26.37,9.58,113.83,-0.23200000000000004,-1.0879999999999999,-0.162,-22.839999999999996,46.984,116.00399999999999
2026-07-21 03:20:31.218,-0.17,-1.26,-0.37,-31.62,-18.68,87.65,-0.20400000000000001,-1.118,-0.194,-24.011999999999997,38.572,115.30799999999999
2026-07-21 03:20:31.276,-0.13,-1.32,-0.34,-21.79,5.98,85.33,-0.164,-1.1560000000000001,-0.23399999999999999,-23.499999999999996,27.220000000000006,109.95
2026-07-21 03:20:31.277,-0.13,-1.32,-0.34,-21.79,5.98,85.33,-0.14,-1.208,-0.286,-24.085999999999995,12.120000000000003,101.02799999999999
2026-07-21 03:20:31.339,0.01,-1.22,-0.2,-1.04,62.13,104.37,-0.11000000000000001,-1.246,-0.30200000000000005,-20.522,12.998000000000001,95.30199999999999
2026-07-21 03:20:31.401,0.12,-1.08,-0.1,5.13,81.79,104.92,-0.06000000000000001,-1.2400000000000002,-0.27,-14.221999999999998,27.44000000000001,93.52000000000001
2026-07-21 03:20:31.456,0.17,-1.07,-0.14,-30.21,-5.19,35.28,0.008000000000000002,-1.202,-0.22400000000000003,-13.939999999999998,30.138000000000005,83.046
2026-07-21 03:20:31.636,0.05,-1.15,-0.19,-25.51,-7.51,1.59,0.044000000000000004,-1.168,-0.194,-14.683999999999997,27.440000000000005,66.298
2026-07-21 03:20:31.637,-0.41,-0.93,-0.26,34.97,11.72,-84.66,-0.011999999999999988,-1.09,-0.17800000000000002,-3.3319999999999994,28.588000000000005,32.300000000000004
2026-07-21 03:20:31.638,-0.43,-0.82,-0.3,28.32,-33.14,-104.49,-0.09999999999999999,-1.0100000000000002,-0.198,2.5400000000000014,9.534000000000006,-9.471999999999998
2026-07-21 03:20:31.695,-0.46,-0.71,-0.31,27.34,-41.44,-96.25,-0.21599999999999997,-0.9359999999999999,-0.24000000000000005,6.982000000000002,-15.111999999999998,-49.705999999999996
2026-07-21 03:20:31.697,-0.48,-0.6,-0.3,32.17,-16.72,-60.55,-0.346,-0.842,-0.27199999999999996,19.458000000000002,-17.418,-68.872
2026-07-21 03:20:31.756,-0.48,-0.6,-0.3,32.17,-16.72,-60.55,-0.45199999999999996,-0.732,-0.294,30.994000000000007,-19.259999999999998,-81.3
2026-07-21 03:20:31.816,-0.44,-0.51,-0.26,26.43,3.11,-16.72,-0.458,-0.648,-0.294,29.286,-20.981999999999996,-67.712
2026-07-21 03:20:31.817,-0.32,-0.42,-0.31,-1.59,16.66,25.88,-0.43600000000000005,-0.568,-0.296,23.304000000000006,-11.021999999999997,-41.638
2026-07-21 03:20:31.875,-0.32,-0.42,-0.31,-1.59,16.66,25.88,-0.40800000000000003,-0.51,-0.296,17.518000000000004,0.5980000000000032,-17.212
2026-07-21 03:20:31.876,-0.35,-0.72,-0.5,-23.32,47.18,37.05,-0.382,-0.534,-0.336,6.4200000000000035,13.378000000000004,2.308
2026-07-21 03:20:31.936,-0.43,-1.13,-0.93,-47.12,92.9,47.91,-0.372,-0.6399999999999999,-0.462,-9.437999999999997,35.30200000000001,24.0
2026-07-21 03:20:31.996,-0.42,-1.43,-1.6,-63.6,130.43,58.41,-0.368,-0.8239999999999998,-0.73,-27.443999999999996,60.766000000000005,39.025999999999996
2026-07-21 03:20:32.056,-0.34,-2.07,-2.57,-144.65,64.88,16.42,-0.372,-1.154,-1.182,-56.056,70.41000000000001,37.134
2026-07-21 03:20:32.057,-0.34,-2.07,-2.57,-144.65,64.88,16.42,-0.376,-1.484,-1.634,-84.668,80.054,35.242000000000004
2026-07-21 03:20:32.119,-0.55,-2.16,-1.89,-170.23,167.36,13.92,-0.41600000000000004,-1.7719999999999998,-1.9119999999999997,-114.05,104.09,30.615999999999996
2026-07-21 03:20:32.176,-0.53,-1.74,-0.97,-159.36,284.3,21.12,-0.43600000000000005,-1.8940000000000001,-1.92,-136.498,142.37,25.258
2026-07-21 03:20:32.177,-0.53,-1.74,-0.97,-159.36,284.3,21.12,-0.458,-1.9560000000000002,-1.794,-155.65,173.144,17.8
2026-07-21 03:20:32.236,0.11,-0.51,-0.08,-158.14,176.51,-29.3,-0.368,-1.6440000000000001,-1.2959999999999998,-158.348,195.46999999999997,8.656
2026-07-21 03:20:32.237,0.11,-0.51,-0.08,-166.99,70.74,-60.36,-0.27799999999999997,-1.332,-0.7979999999999999,-162.81599999999997,196.642,-6.7
2026-07-21 03:20:32.307,0.2,-0.73,-0.24,-179.08,0.24,-89.54,-0.128,-1.0459999999999998,-0.46799999999999997,-164.586,163.218,-27.392000000000003
2026-07-21 03:20:32.360,0.06,-0.96,-0.27,-186.52,-2.08,-113.1,-0.010000000000000004,-0.89,-0.328,-170.018,105.94200000000001,-54.236000000000004
2026-07-21 03:20:32.415,-0.12,-0.91,-0.24,-174.13,44.37,-128.3,0.072,-0.724,-0.182,-172.972,57.955999999999996,-84.12
2026-07-21 03:20:32.416,-0.23,-0.64,-0.13,-149.48,90.15,-130.49,0.003999999999999998,-0.75,-0.192,-171.24,40.684000000000005,-104.35799999999999
2026-07-21 03:20:32.477,-0.26,-0.16,0.13,-119.02,131.53,-113.89,-0.07,-0.6799999999999999,-0.15,-161.64600000000002,52.842,-115.06400000000001
2026-07-21 03:20:32.602,-0.22,0.41,0.4,-64.39,176.82,-72.63,-0.154,-0.45199999999999996,-0.022,-138.708,88.15799999999999,-111.68200000000002
2026-07-21 03:20:32.603,-0.1,0.65,0.25,18.07,155.7,-8.97,-0.18600000000000003,-0.13,0.082,-97.78999999999999,119.71399999999998,-90.85600000000001
2026-07-21 03:20:32.716,-0.23,-1.18,-0.6,166.44,-198.85,93.26,-0.20800000000000002,-0.184,0.010000000000000009,-29.675999999999988,71.07000000000001,-46.544
2026-07-21 03:20:32.717,-0.35,-1.43,-0.44,203.43,-165.95,119.38,-0.23200000000000004,-0.34199999999999997,-0.05199999999999999,40.906000000000006,19.849999999999994,3.430000000000001
2026-07-21 03:20:32.780,-0.09,-1.02,-0.51,214.42,-255.25,59.02,-0.198,-0.514,-0.18,107.59400000000001,-57.50599999999999,38.01200000000001
2026-07-21 03:20:32.836,0.01,-0.79,-0.66,222.29,-264.71,16.05,-0.152,-0.7539999999999999,-0.392,164.93,-145.81199999999998,55.748000000000005
2026-07-21 03:20:32.839,-0.05,-0.73,-0.84,227.48,-197.08,-5.62,-0.142,-1.03,-0.61,206.81199999999998,-216.36800000000002,56.418000000000006
2026-07-21 03:20:32.897,-0.05,-0.73,-0.84,227.48,-197.08,-5.62,-0.10600000000000001,-0.9399999999999998,-0.658,219.01999999999998,-216.01400000000004,36.642
2026-07-21 03:20:32.956,-0.55,-0.98,-2.2,169.07,30.7,14.65,-0.14600000000000002,-0.85,-1.01,212.148,-176.684,15.696000000000002
2026-07-21 03:20:32.957,-0.55,-0.98,-2.2,169.07,30.7,14.65,-0.23800000000000004,-0.8419999999999999,-1.348,203.07799999999997,-119.494,6.822
2026-07-21 03:20:33.018,-0.66,-1.03,-3.37,106.93,58.84,27.1,-0.37200000000000005,-0.8899999999999999,-1.89,180.006,-54.78400000000001,9.032
2026-07-21 03:20:33.019,-0.74,-1.49,-3.73,-5.74,49.44,25.33,-0.51,-1.042,-2.468,133.362,-5.480000000000014,15.222
2026-07-21 03:20:33.076,-0.59,-2.21,-2.92,-133.36,154.17,75.13,-0.6180000000000001,-1.3379999999999999,-2.884,61.194,64.76999999999998,31.372000000000003
2026-07-21 03:20:33.144,-0.21,-2.27,-2.0,-200.32,240.97,93.57,-0.55,-1.596,-2.844,-12.683999999999997,106.82399999999998,47.15599999999999
2026-07-21 03:20:33.145,0.1,-1.68,-1.55,-214.6,188.35,9.77,-0.42000000000000004,-1.736,-2.714,-89.41799999999999,138.35399999999998,46.17999999999999
2026-07-21 03:20:33.199,0.26,-1.01,-1.33,-203.06,138.55,-62.5,-0.23600000000000004,-1.732,-2.306,-151.416,154.296,28.259999999999998
2026-07-21 03:20:33.315,0.01,-1.12,-1.0,-209.05,183.04,-86.3,-0.086,-1.658,-1.7600000000000002,-192.078,181.016,5.9339999999999975
2026-07-21 03:20:33.316,0.01,-1.12,-1.0,-209.05,183.04,-86.3,0.034,-1.44,-1.3760000000000001,-207.21599999999998,186.79,-26.351999999999997
2026-07-21 03:20:33.319,-0.24,-1.52,-0.79,-229.49,216.31,-98.14,0.028000000000000004,-1.2899999999999998,-1.1340000000000001,-213.05,181.858,-64.694
2026-07-21 03:20:33.435,-0.42,-1.65,-0.67,-235.29,221.44,-130.9,-0.076,-1.284,-0.958,-217.18800000000002,188.476,-92.828
2026-07-21 03:20:33.436,-0.51,-1.17,-0.38,-240.11,156.8,-182.0,-0.22999999999999998,-1.316,-0.768,-224.598,192.12599999999998,-116.728
2026-07-21 03:20:33.437,-0.73,-0.44,0.51,-232.12,159.36,-166.02,-0.378,-1.1800000000000002,-0.466,-229.212,187.39,-132.672
2026-07-21 03:20:33.497,-0.73,-0.44,0.51,-232.12,159.36,-166.02,-0.526,-1.044,-0.164,-233.82599999999996,182.654,-148.61599999999999
2026-07-21 03:20:33.556,-1.26,1.0,2.4,-104.25,71.9,-96.44,-0.73,-0.5399999999999999,0.47400000000000003,-208.77799999999996,153.772,-148.276
2026-07-21 03:20:33.557,-1.26,1.0,2.4,-104.25,71.9,-96.44,-0.898,-0.009999999999999986,1.0879999999999999,-182.57,123.864,-141.38400000000001
2026-07-21 03:20:33.558,-1.2,0.41,1.77,48.58,-64.51,-24.84,-1.036,0.306,1.518,-124.832,79.60199999999999,-109.952
2026-07-21 03:20:33.626,-1.2,0.41,1.77,48.58,-64.51,-24.84,-1.13,0.476,1.77,-68.692,34.82799999999999,-81.71600000000001
2026-07-21 03:20:33.675,-0.48,-1.99,-1.24,351.32,-268.01,91.19,-1.08,0.166,1.42,47.996,-50.64600000000001,-30.274
2026-07-21 03:20:33.761,-0.05,-2.34,-1.79,408.39,-266.42,87.65,-0.8380000000000001,-0.502,0.5819999999999999,150.524,-118.31000000000002,6.544
2026-07-21 03:20:33.762,0.27,-2.09,-1.44,399.72,-195.5,71.9,-0.5319999999999999,-1.1199999999999999,-0.18600000000000008,251.31800000000004,-171.79000000000002,40.212
2026-07-21 03:20:33.765,0.27,-2.09,-1.44,399.72,-195.5,71.9,-0.238,-1.6199999999999999,-0.8280000000000001,321.546,-197.988,59.56
2026-07-21 03:20:33.795,0.29,-1.63,-0.83,362.37,-113.53,50.48,0.06000000000000001,-2.028,-1.348,384.304,-207.792,74.624
2026-07-21 03:20:33.797,0.29,-1.63,-0.83,362.37,-113.53,50.48,0.21400000000000002,-1.956,-1.266,386.514,-176.89600000000002,66.482
2026-07-21 03:20:33.859,0.01,-1.28,-0.69,336.98,-91.25,14.28,0.22600000000000003,-1.7439999999999998,-1.046,372.2320000000001,-141.862,51.80800000000001
2026-07-21 03:20:33.916,0.0,-1.16,-1.96,284.73,-27.04,33.26,0.172,-1.5579999999999998,-1.15,349.23400000000004,-108.17,44.08
2026-07-21 03:20:34.036,0.33,-0.95,-3.12,209.47,49.38,49.01,0.184,-1.3299999999999998,-1.4860000000000002,311.184,-59.194,39.501999999999995
2026-07-21 03:20:34.037,0.34,-0.65,-3.91,62.01,-8.24,-33.08,0.194,-1.134,-2.1020000000000003,251.112,-38.13600000000001,22.79
2026-07-21 03:20:34.095,0.53,-2.14,-2.53,-329.71,310.42,120.67,0.242,-1.236,-2.442,112.696,46.65399999999999,36.827999999999996
2026-07-21 03:20:34.156,0.5,-1.01,-1.48,-241.58,162.96,-69.03,0.33999999999999997,-1.182,-2.6,-3.015999999999991,97.49600000000001,20.166
2026-07-21 03:20:34.216,0.37,-0.42,-1.11,-203.98,104.98,-114.01,0.414,-1.034,-2.43,-100.758,123.9,-9.288000000000002
2026-07-21 03:20:34.218,0.37,-0.42,-1.11,-203.98,104.98,-114.01,0.422,-0.9280000000000002,-2.028,-183.448,135.01999999999998,-41.892
2026-07-21 03:20:34.278,0.19,-0.76,-0.68,-257.14,214.78,-64.15,0.392,-0.95,-1.3820000000000001,-247.27799999999996,179.624,-48.106
2026-07-21 03:20:34.336,0.14,-0.96,-0.68,-276.61,237.24,-68.91,0.314,-0.714,-1.012,-236.658,164.988,-86.022
2026-07-21 03:20:34.396,0.17,-0.88,-0.75,-279.97,244.87,-77.7,0.248,-0.688,-0.866,-244.336,181.37,-87.756
2026-07-21 03:20:34.456,0.1,-0.51,-0.65,-330.14,248.05,-26.67,0.194,-0.706,-0.774,-269.568,209.984,-70.28800000000001
2026-07-21 03:20:34.457,-0.16,-0.46,-0.38,-339.72,253.54,37.6,0.08800000000000001,-0.714,-0.628,-296.716,239.696,-39.966
2026-07-21 03:20:34.527,-0.49,-0.31,0.25,-216.86,249.21,118.59,-0.04799999999999999,-0.624,-0.442,-288.66,246.58200000000002,-3.4180000000000006
2026-07-21 03:20:34.575,-0.67,0.05,0.97,20.08,200.74,187.93,-0.21000000000000002,-0.42200000000000004,-0.11200000000000002,-229.32199999999997,239.282,47.95
2026-07-21 03:20:34.576,-0.58,0.42,1.24,195.8,83.98,238.16,-0.36,-0.162,0.286,-134.16799999999998,207.10399999999998,111.122
2026-07-21 03:20:34.636,-0.24,0.51,0.95,232.3,-99.18,284.91,-0.42799999999999994,0.041999999999999996,0.6060000000000001,-21.679999999999996,137.658,173.438
2026-07-21 03:20:34.637,-0.24,0.51,0.95,232.3,-99.18,284.91,-0.44399999999999995,0.236,0.8719999999999999,92.72400000000002,67.11399999999999,222.9
2026-07-21 03:20:34.696,0.16,0.31,0.38,164.0,-278.02,289.31,-0.31399999999999995,0.36,0.898,168.89600000000002,-38.33200000000001,257.044
2026-07-21 03:20:34.756,0.16,0.31,0.38,164.0,-278.02,289.31,-0.14799999999999996,0.41200000000000003,0.78,197.68,-134.084,277.32
2026-07-21 03:20:34.757,0.57,-0.27,-0.81,-205.81,-271.18,109.07,0.082,0.274,0.37,117.35800000000003,-205.11600000000004,251.50200000000004
2026-07-21 03:20:34.817,0.57,-0.27,-0.81,-205.81,-271.18,109.07,0.244,0.118,0.01799999999999997,29.73600000000001,-239.516,216.334
2026-07-21 03:20:34.818,0.47,-0.15,-0.86,-161.74,-240.23,63.48,0.386,-0.014000000000000007,-0.34400000000000003,-49.07199999999999,-267.726,172.04799999999997
2026-07-21 03:20:34.879,0.47,-0.15,-0.86,-161.74,-240.23,63.48,0.44800000000000006,-0.10600000000000001,-0.592,-114.21999999999998,-260.168,126.88199999999999
2026-07-21 03:20:34.880,0.34,-0.07,-0.87,-34.48,-228.58,50.78,0.484,-0.182,-0.842,-153.916,-250.28000000000003,79.176
2026-07-21 03:20:34.937,0.23,-0.05,-1.03,35.64,-231.45,46.08,0.41600000000000004,-0.138,-0.8859999999999999,-105.626,-242.334,66.578
2026-07-21 03:20:35.066,0.05,-0.05,-1.61,3.36,-315.61,-40.71,0.31200000000000006,-0.094,-1.0459999999999998,-63.791999999999994,-251.21999999999997,36.622
2026-07-21 03:20:35.067,-0.44,-0.23,-1.59,56.82,-323.61,-74.28,0.13000000000000006,-0.11000000000000001,-1.1920000000000002,-20.07999999999999,-267.896,9.069999999999999
2026-07-21 03:20:35.116,-0.44,-0.23,-1.59,99.55,-337.59,-65.31,-0.05199999999999997,-0.12600000000000003,-1.338,32.17800000000001,-287.36800000000005,-16.688000000000002
2026-07-21 03:20:35.175,-0.92,-0.69,-1.24,102.29,-298.22,-3.36,-0.304,-0.25,-1.4120000000000001,59.53200000000002,-301.29600000000005,-27.51600000000001
2026-07-21 03:20:35.176,-0.92,-0.69,-1.24,102.29,-298.22,-3.36,-0.534,-0.378,-1.4540000000000002,72.86200000000001,-314.65000000000003,-37.404
2026-07-21 03:20:35.235,-0.97,-0.94,-1.25,88.68,-220.4,67.93,-0.7379999999999999,-0.556,-1.3820000000000001,89.92600000000002,-295.60800000000006,-15.675999999999998
2026-07-21 03:20:35.238,-0.81,-0.99,-1.37,92.53,-162.78,123.84,-0.8119999999999999,-0.708,-1.338,97.06800000000001,-263.442,23.948
2026-07-21 03:20:35.356,-0.61,-0.91,-1.4,121.52,-108.28,172.97,-0.8459999999999999,-0.844,-1.3,101.46200000000002,-217.58000000000007,71.604
2026-07-21 03:20:35.357,-0.53,-0.79,-1.24,172.79,-20.08,215.64,-0.768,-0.8640000000000001,-1.3,115.56200000000001,-161.95200000000006,115.404
2026-07-21 03:20:35.359,-0.58,-0.66,-1.0,224.12,78.67,235.11,-0.7,-0.858,-1.252,139.92800000000003,-86.57400000000003,163.098
2026-07-21 03:20:35.476,-0.66,-0.54,-0.81,250.0,152.89,219.6,-0.638,-0.7780000000000001,-1.1640000000000001,172.192,-11.916000000000025,193.432
2026-07-21 03:20:35.478,-0.67,-0.51,-0.68,173.77,197.2,151.92,-0.61,-0.682,-1.026,188.44,60.07999999999997,199.04799999999997
2026-07-21 03:20:35.599,-0.62,-0.62,-0.64,82.58,175.17,131.59,-0.612,-0.624,-0.874,180.65200000000002,116.76999999999995,190.772
2026-07-21 03:20:35.613,-0.58,-0.71,-0.54,24.41,147.22,126.4,-0.6220000000000001,-0.608,-0.734,150.97600000000003,150.22999999999996,172.924
2026-07-21 03:20:35.614,-0.56,-0.71,-0.41,37.66,133.18,121.95,-0.618,-0.6180000000000001,-0.616,113.68400000000001,161.13199999999998,150.292
2026-07-21 03:20:35.658,-0.53,-0.64,-0.31,76.72,122.68,83.5,-0.592,-0.6380000000000001,-0.516,79.02800000000002,155.08999999999997,123.072
2026-07-21 03:20:35.720,-0.52,-0.55,-0.2,75.99,65.12,-74.71,-0.562,-0.646,-0.42000000000000004,59.472,128.67399999999998,77.74600000000001
2026-07-21 03:20:35.776,-0.58,-0.61,-0.11,46.39,22.95,-129.76,-0.554,-0.644,-0.314,52.234000000000016,98.22999999999999,25.476000000000006
2026-07-21 03:20:35.835,-0.67,-0.69,-0.03,31.92,-24.72,-133.85,-0.572,-0.6399999999999999,-0.21200000000000002,53.73600000000001,63.841999999999985,-26.573999999999995
2026-07-21 03:20:35.836,-0.78,-0.82,-0.0,48.65,-81.3,-120.24,-0.616,-0.6620000000000001,-0.13,55.93400000000001,20.94599999999998,-75.012
2026-07-21 03:20:35.896,-0.78,-0.82,-0.0,73.73,-151.67,-124.21,-0.666,-0.6980000000000001,-0.068,55.33600000000001,-33.92400000000002,-116.554
2026-07-21 03:20:35.897,-0.83,-1.04,-0.08,73.73,-151.67,-124.21,-0.728,-0.796,-0.044,54.884000000000015,-77.28200000000001,-126.454
2026-07-21 03:20:35.955,-0.88,-1.24,-0.25,93.32,-226.14,-131.96,-0.788,-0.922,-0.072,64.27000000000001,-127.1,-126.894
2026-07-21 03:20:35.956,-1.01,-1.33,-0.35,116.46,-271.79,-115.8,-0.8560000000000001,-1.05,-0.13599999999999998,81.17800000000001,-176.514,-123.28399999999999
2026-07-21 03:20:36.026,-1.11,-1.42,-0.39,146.48,-275.51,-70.98,-0.9219999999999999,-1.17,-0.21399999999999997,100.744,-215.35600000000005,-113.43199999999999
2026-07-21 03:20:36.027,-1.13,-1.4,-0.51,175.72,-249.27,-52.0,-0.992,-1.286,-0.316,121.14200000000001,-234.87600000000003,-98.99000000000001
2026-07-21 03:20:36.076,-1.13,-1.4,-0.51,175.72,-249.27,-52.0,-1.052,-1.358,-0.40199999999999997,141.54000000000002,-254.39600000000002,-84.548
2026-07-21 03:20:36.077,-1.09,-1.08,-0.57,199.58,-203.98,-84.9,-1.0939999999999999,-1.326,-0.466,162.792,-249.96400000000003,-75.136
2026-07-21 03:20:36.139,-0.95,-0.63,-0.54,193.12,-164.49,-136.5,-1.0819999999999999,-1.186,-0.504,178.12400000000002,-228.50400000000005,-79.276
2026-07-21 03:20:36.195,-0.73,-0.32,-0.5,152.95,-128.91,-160.7,-1.0059999999999998,-0.966,-0.526,179.418,-199.18400000000003,-97.22
2026-07-21 03:20:36.197,-0.56,-0.32,-0.33,124.76,-66.28,-101.99,-0.892,-0.75,-0.49000000000000005,169.22600000000003,-162.58600000000004,-107.218
2026-07-21 03:20:36.255,-0.51,-0.57,-0.01,118.59,9.95,20.75,-0.768,-0.5840000000000001,-0.39,157.8,-110.742,-92.668
2026-07-21 03:20:36.256,-0.51,-0.57,-0.01,118.59,9.95,20.75,-0.6519999999999999,-0.48200000000000004,-0.278,141.60200000000003,-67.95600000000003,-71.538
2026-07-21 03:20:36.318,-0.57,-0.77,0.29,117.98,78.92,123.29,-0.5759999999999998,-0.51,-0.11200000000000002,126.57400000000003,-19.274000000000022,-19.579999999999995
2026-07-21 03:20:36.319,-0.61,-0.77,0.5,109.01,149.23,176.15,-0.5519999999999999,-0.6,0.088,117.78600000000002,36.35399999999997,47.790000000000006
2026-07-21 03:20:36.375,-0.64,-0.71,0.53,47.73,204.35,197.69,-0.568,-0.678,0.26,102.38000000000002,90.47999999999998,107.726
2026-07-21 03:20:36.376,-0.64,-0.71,0.53,47.73,204.35,197.69,-0.594,-0.7060000000000001,0.368,88.20800000000001,129.35999999999996,143.11399999999998
2026-07-21 03:20:36.378,-0.77,-0.7,0.37,-55.91,194.64,197.33,-0.646,-0.732,0.44400000000000006,53.308000000000014,166.29799999999994,178.43
2026-07-21 03:20:36.507,-0.77,-0.7,0.37,-55.91,194.64,197.33,-0.6859999999999999,-0.7180000000000001,0.45999999999999996,18.530000000000012,189.44199999999995,193.238
2026-07-21 03:20:36.556,-0.8,-0.51,0.39,-11.96,-37.41,95.89,-0.724,-0.666,0.438,-5.663999999999989,152.11399999999998,177.18599999999998
2026-07-21 03:20:36.615,-0.83,-0.56,0.61,-38.82,33.75,-25.76,-0.7619999999999999,-0.6360000000000001,0.454,-22.97399999999999,117.99399999999996,132.496
2026-07-21 03:20:36.616,-0.83,-0.56,0.61,-38.82,33.75,-25.76,-0.8,-0.6060000000000001,0.47000000000000003,-40.283999999999985,83.87399999999998,87.80600000000001
2026-07-21 03:20:36.736,-0.86,-0.73,0.85,-30.76,8.97,-143.62,-0.818,-0.6120000000000001,0.5660000000000001,-35.253999999999984,46.739999999999974,19.616000000000003
2026-07-21 03:20:36.738,-0.83,-0.96,1.16,-20.75,-79.65,-226.32,-0.8300000000000001,-0.664,0.724,-28.221999999999987,-8.118000000000023,-65.114
2026-07-21 03:20:36.741,-0.83,-0.96,1.16,-20.75,-79.65,-226.32,-0.836,-0.7540000000000001,0.8779999999999999,-29.979999999999983,-16.566000000000024,-129.55599999999998
2026-07-21 03:20:36.800,-0.69,-1.04,1.33,26.61,-234.68,-145.57,-0.8079999999999998,-0.85,1.0219999999999998,-16.893999999999988,-70.25200000000002,-153.51799999999997
2026-07-21 03:20:36.861,-0.59,-0.6,1.3,63.9,-254.88,-30.64,-0.7599999999999999,-0.858,1.1600000000000001,3.6500000000000115,-127.97800000000002,-154.494
2026-07-21 03:20:36.924,-0.66,-0.42,1.38,-11.23,-253.11,29.42,-0.72,-0.796,1.266,7.556000000000012,-180.39400000000003,-119.886
2026-07-21 03:20:37.041,-0.66,-0.48,1.2,-138.12,-305.91,47.79,-0.6859999999999999,-0.7,1.2739999999999998,-15.917999999999989,-225.64600000000004,-65.064
2026-07-21 03:20:37.217,-0.29,-0.58,-0.19,158.02,-330.14,-104.2,-0.578,-0.624,1.004,19.836000000000013,-275.744,-40.64
2026-07-21 03:20:37.218,-0.29,-0.58,-0.19,158.02,-330.14,-104.2,-0.49799999999999994,-0.532,0.7,46.118000000000016,-294.836,-32.366
2026-07-21 03:20:37.219,0.08,-0.69,-0.4,173.1,-254.46,12.88,-0.364,-0.55,0.36,67.95800000000001,-294.75200000000007,-23.662000000000003
2026-07-21 03:20:37.280,0.46,-0.8,-0.27,3.97,-97.29,18.86,-0.13999999999999993,-0.626,0.02999999999999998,70.99800000000002,-263.588,-25.774
2026-07-21 03:20:37.281,0.46,-0.8,-0.27,3.97,-97.29,18.86,0.08400000000000006,-0.6900000000000001,-0.264,99.41600000000001,-221.86400000000003,-31.560000000000002
2026-07-21 03:20:37.335,0.58,-0.76,-0.11,21.61,14.28,-40.71,0.25800000000000006,-0.726,-0.24800000000000005,72.134,-152.98000000000002,-18.862
2026-07-21 03:20:37.336,0.67,-0.7,0.05,21.61,14.28,-40.71,0.45000000000000007,-0.7500000000000001,-0.20000000000000004,44.852000000000004,-84.09600000000003,-6.163999999999997
2026-07-21 03:20:37.396,0.77,-0.64,0.15,55.97,25.82,-46.94,0.5880000000000001,-0.74,-0.09000000000000001,21.426000000000005,-28.040000000000028,-18.127999999999997
2026-07-21 03:20:37.397,0.77,-0.64,0.15,55.97,25.82,-46.94,0.6500000000000001,-0.708,-0.006000000000000005,31.826000000000004,-3.418000000000024,-31.288
2026-07-21 03:20:37.579,0.84,-0.58,0.19,68.18,22.58,-40.04,0.7260000000000001,-0.664,0.086,44.668000000000006,20.555999999999976,-43.068
2026-07-21 03:20:37.580,0.86,-0.56,0.21,50.29,14.53,-24.78,0.782,-0.624,0.15,50.404,20.605999999999977,-39.882
2026-07-21 03:20:37.581,0.79,-0.57,0.13,10.44,-5.43,-1.71,0.806,-0.5980000000000001,0.16599999999999998,48.17,16.663999999999977,-32.081999999999994
2026-07-21 03:20:37.584,0.79,-0.57,0.13,10.44,-5.43,-1.71,0.8100000000000002,-0.584,0.16199999999999998,39.06400000000001,10.413999999999978,-23.035999999999994
2026-07-21 03:20:37.585,0.74,-0.58,0.07,5.68,-10.31,1.22,0.804,-0.572,0.146,29.006000000000007,3.1879999999999775,-13.403999999999996
2026-07-21 03:20:37.643,0.7,-0.58,0.04,12.27,-5.8,-1.4,0.776,-0.5720000000000001,0.11599999999999999,17.824000000000005,-2.488000000000022,-5.6759999999999975
2026-07-21 03:20:37.644,0.7,-0.58,0.04,12.27,-5.8,-1.4,0.744,-0.576,0.082,10.220000000000004,-6.554000000000022,-0.9999999999999971
2026-07-21 03:20:37.704,0.59,-0.51,0.02,36.01,17.27,-21.67,0.704,-0.564,0.06000000000000001,15.334000000000007,-2.014000000000023,-4.991999999999997
2026-07-21 03:20:37.760,0.49,-0.41,-0.01,17.46,18.01,-40.22,0.6439999999999999,-0.532,0.032,16.738000000000007,2.6739999999999777,-12.693999999999997
2026-07-21 03:20:37.761,0.49,-0.41,-0.01,17.46,18.01,-40.22,0.5940000000000001,-0.49800000000000005,0.016,19.094000000000005,8.337999999999978,-20.981999999999996
2026-07-21 03:20:37.815,0.35,-0.27,0.01,-11.54,26.43,-34.36,0.524,-0.43600000000000005,0.01,14.332000000000004,14.783999999999978,-27.574
2026-07-21 03:20:37.816,0.2,-0.13,0.04,-20.2,56.95,6.59,0.42400000000000004,-0.346,0.01,7.838000000000008,27.333999999999982,-25.976
2026-07-21 03:20:37.937,0.1,-0.07,0.09,-33.63,66.77,6.41,0.326,-0.25800000000000006,0.024,-6.0899999999999945,37.23399999999998,-20.359999999999996
2026-07-21 03:20:37.938,0.36,-0.2,0.26,-34.24,93.57,-129.7,0.30000000000000004,-0.21600000000000003,0.078,-16.429999999999996,52.34599999999998,-38.25599999999999
2026-07-21 03:20:38.002,0.3,-0.17,0.19,16.05,161.25,-149.54,0.26200000000000007,-0.16800000000000007,0.11800000000000002,-16.711999999999996,80.99399999999999,-60.11999999999999
2026-07-21 03:20:38.116,-0.2,-0.0,0.08,96.19,312.01,-39.0,0.15200000000000005,-0.11400000000000006,0.132,4.834000000000003,138.10999999999999,-61.04799999999999
2026-07-21 03:20:38.117,-0.71,0.07,0.38,98.94,350.22,-14.95,-0.029999999999999936,-0.07400000000000004,0.2,28.662,196.76399999999998,-65.356
2026-07-21 03:20:38.236,-0.83,0.13,0.52,82.7,268.49,11.05,-0.21599999999999991,-0.034000000000000044,0.28600000000000003,51.928,237.108,-64.42799999999998
2026-07-21 03:20:38.238,-0.69,0.07,1.05,40.77,162.41,104.31,-0.4259999999999999,0.019999999999999955,0.44399999999999995,66.93,250.87599999999998,-17.625999999999994
2026-07-21 03:20:38.296,0.32,-1.43,3.68,-92.1,207.34,219.6,-0.422,-0.23200000000000004,1.1420000000000001,45.300000000000004,260.094,56.202
2026-07-21 03:20:38.299,0.58,-1.36,3.33,-20.51,84.11,182.19,-0.2659999999999999,-0.5040000000000001,1.7920000000000003,21.960000000000004,214.51399999999998,100.44000000000001
2026-07-21 03:20:38.357,0.06,-0.63,2.56,26.37,-24.84,75.68,-0.11199999999999992,-0.644,2.228,7.446000000000007,139.502,118.566
2026-07-21 03:20:38.421,-0.49,-0.09,2.07,18.31,-38.39,-4.64,-0.04399999999999994,-0.6880000000000001,2.538,-5.431999999999994,78.12599999999999,115.428
2026-07-21 03:20:38.422,-0.71,-0.0,1.84,11.54,-15.32,-10.86,-0.047999999999999945,-0.7020000000000001,2.696,-11.277999999999995,42.57999999999999,92.394
2026-07-21 03:20:38.538,-0.64,-0.15,1.65,11.17,-18.86,24.54,-0.23999999999999994,-0.446,2.29,9.376000000000003,-2.660000000000012,53.382000000000005
2026-07-21 03:20:38.539,-0.64,-0.15,1.65,11.17,-18.86,24.54,-0.484,-0.20400000000000004,1.954,15.712000000000003,-23.254000000000012,21.852000000000007
2026-07-21 03:20:38.655,-0.3,-0.19,0.85,-31.01,-64.51,-42.24,-0.5559999999999999,-0.11600000000000003,1.612,4.236000000000002,-31.18800000000001,-1.731999999999995
2026-07-21 03:20:38.656,-0.3,-0.19,0.85,-31.01,-64.51,-42.24,-0.518,-0.13600000000000007,1.3679999999999999,-5.6279999999999974,-36.41200000000001,-9.251999999999995
2026-07-21 03:20:38.657,-0.22,-0.08,0.58,56.4,-8.42,-65.19,-0.41999999999999993,-0.15200000000000005,1.1159999999999999,3.3440000000000025,-35.03200000000002,-20.117999999999995
2026-07-21 03:20:38.895,-0.24,0.15,0.51,197.14,59.33,-18.01,-0.3399999999999999,-0.09200000000000005,0.8880000000000001,40.538,-19.394000000000013,-28.627999999999993
2026-07-21 03:20:38.901,-0.05,-0.14,0.37,-91.06,-80.08,25.76,-0.22199999999999992,-0.09000000000000005,0.6319999999999999,20.092000000000002,-31.638000000000012,-28.383999999999993
2026-07-21 03:20:38.902,0.02,-0.08,0.38,-106.75,-88.26,2.01,-0.15799999999999992,-0.06800000000000005,0.538,4.944,-36.38800000000002,-19.533999999999995
2026-07-21 03:20:39.017,0.11,-0.05,0.59,-64.27,-36.68,-3.97,-0.07599999999999993,-0.04000000000000005,0.48599999999999993,-1.7079999999999984,-30.822000000000013,-11.879999999999994
2026-07-21 03:20:39.140,0.12,-0.13,0.89,-15.56,-31.37,-33.02,-0.007999999999999933,-0.05000000000000006,0.5479999999999999,-16.1,-35.41200000000002,-5.445999999999995
2026-07-21 03:20:39.201,0.21,-0.17,0.83,2.26,-32.04,-23.13,0.08200000000000007,-0.11400000000000006,0.612,-55.076,-53.686000000000014,-6.469999999999994
2026-07-21 03:20:39.380,0.23,-0.19,0.86,-3.78,-21.06,-24.05,0.13800000000000007,-0.12400000000000004,0.71,-37.62,-41.88200000000002,-16.431999999999995
2026-07-21 03:20:39.381,0.24,-0.2,0.88,-4.58,-10.56,-24.78,0.18200000000000008,-0.14800000000000008,0.8099999999999999,-17.185999999999996,-26.342000000000013,-21.789999999999996
2026-07-21 03:20:39.382,0.25,-0.2,0.94,-2.93,2.87,-26.18,0.21000000000000005,-0.17800000000000005,0.8800000000000001,-4.9179999999999975,-18.432000000000013,-26.231999999999992
2026-07-21 03:20:39.437,0.26,-0.21,0.95,-5.86,4.15,-26.12,0.23800000000000007,-0.19400000000000003,0.892,-2.977999999999997,-11.328000000000015,-24.851999999999993
2026-07-21 03:20:39.496,0.27,-0.16,0.94,6.9,6.59,-25.76,0.2500000000000001,-0.19200000000000006,0.914,-2.0499999999999967,-3.6020000000000136,-25.377999999999993
2026-07-21 03:20:39.497,0.28,-0.15,0.94,4.09,8.12,-24.35,0.2600000000000001,-0.18400000000000005,0.93,-0.4759999999999973,2.2339999999999853,-25.437999999999995
2026-07-21 03:20:39.556,0.28,-0.15,0.94,4.09,8.12,-24.35,0.2680000000000001,-0.17400000000000004,0.942,1.2580000000000027,5.969999999999985,-25.351999999999997
2026-07-21 03:20:39.557,0.28,-0.15,0.95,0.61,8.67,-21.85,0.27400000000000013,-0.16400000000000006,0.944,1.9660000000000024,7.129999999999986,-24.485999999999997
2026-07-21 03:20:39.558,0.28,-0.15,0.95,0.61,8.67,-21.85,0.27800000000000014,-0.15200000000000005,0.944,3.260000000000003,8.033999999999985,-23.631999999999998
2026-07-21 03:20:39.617,0.28,-0.15,0.96,2.87,8.91,-19.84,0.28,-0.15,0.9480000000000001,2.454000000000003,8.497999999999987,-22.447999999999997
2026-07-21 03:20:39.618,0.27,-0.14,0.98,4.27,9.16,-18.74,0.27800000000000014,-0.14800000000000005,0.9559999999999998,2.490000000000003,8.705999999999985,-21.325999999999997
2026-07-21 03:20:39.683,0.26,-0.15,0.99,1.83,8.42,-18.07,0.27400000000000013,-0.14800000000000008,0.966,2.038000000000003,8.765999999999986,-20.069999999999997
2026-07-21 03:20:39.979,0.25,-0.15,0.99,0.67,5.0,-17.21,0.2680000000000001,-0.14800000000000005,0.9739999999999999,2.050000000000003,8.031999999999986,-19.141999999999992
2026-07-21 03:20:39.980,0.26,-0.15,0.97,-1.95,-1.1,-15.44,0.2640000000000001,-0.14800000000000005,0.978,1.5380000000000027,6.077999999999986,-17.859999999999992
2026-07-21 03:20:39.981,0.27,-0.17,0.96,-11.29,-6.23,-13.85,0.2620000000000001,-0.15200000000000005,0.978,-1.293999999999997,3.0499999999999856,-16.661999999999995
2026-07-21 03:20:39.982,0.28,-0.21,0.92,-26.55,-12.21,-25.33,0.2640000000000001,-0.16600000000000004,0.966,-7.457999999999997,-1.2240000000000144,-17.979999999999997
2026-07-21 03:20:39.983,0.31,-0.15,0.96,1.16,-3.05,-56.03,0.27400000000000013,-0.16600000000000004,0.96,-7.591999999999997,-3.518000000000014,-25.571999999999996
2026-07-21 03:20:40.039,0.27,-0.1,0.99,8.24,1.34,-59.75,0.27800000000000014,-0.15600000000000006,0.96,-6.077999999999998,-4.250000000000014,-34.08
2026-07-21 03:20:40.096,0.33,-0.12,0.9,-24.48,-45.35,-52.73,0.2920000000000001,-0.15000000000000005,0.9460000000000001,-10.583999999999998,-13.100000000000014,-41.538
2026-07-21 03:20:40.097,0.38,-0.15,0.83,-42.48,-52.25,-45.47,0.3140000000000001,-0.14600000000000005,0.9200000000000002,-16.821999999999996,-22.304000000000013,-47.861999999999995
2026-07-21 03:20:40.215,0.38,-0.15,0.83,-42.48,-52.25,-45.47,0.3340000000000001,-0.13400000000000006,0.9019999999999999,-20.007999999999996,-30.312000000000012,-51.89
2026-07-21 03:20:40.216,0.4,-0.23,0.72,-54.44,-31.01,-32.47,0.3520000000000001,-0.15000000000000005,0.8539999999999999,-31.127999999999997,-35.90400000000002,-47.17799999999999
2026-07-21 03:20:40.217,0.37,-0.27,0.6,1.28,35.77,-8.12,0.37200000000000005,-0.18400000000000005,0.776,-32.519999999999996,-29.01800000000001,-36.85199999999999
2026-07-21 03:20:40.283,0.18,-0.23,0.42,12.33,61.28,-0.98,0.3420000000000001,-0.20600000000000004,0.6799999999999999,-25.157999999999994,-7.692000000000013,-26.501999999999992
2026-07-21 03:20:40.397,0.07,-0.24,0.4,-7.63,89.17,20.63,0.2800000000000001,-0.22400000000000006,0.5940000000000001,-18.187999999999995,20.591999999999985,-13.281999999999993
2026-07-21 03:20:40.408,0.07,-0.24,0.4,-7.63,89.17,20.63,0.2180000000000001,-0.24200000000000008,0.508,-11.217999999999995,48.87599999999999,-0.06199999999999548
2026-07-21 03:20:40.455,-0.72,-0.58,0.62,-218.44,242.61,67.57,-0.005999999999999917,-0.312,0.488,-44.017999999999994,103.6,19.946000000000005
2026-07-21 03:20:40.456,-0.72,-0.58,0.62,-218.44,242.61,67.57,-0.22399999999999992,-0.374,0.492,-87.96199999999999,144.968,35.084
2026-07-21 03:20:40.516,-0.91,-0.87,0.72,-299.01,246.7,90.45,-0.4419999999999999,-0.502,0.5519999999999999,-150.22999999999996,182.052,53.370000000000005
2026-07-21 03:20:40.517,-0.94,-1.03,0.66,-319.58,217.77,116.21,-0.6439999999999999,-0.6599999999999999,0.604,-212.61999999999998,207.772,72.486
2026-07-21 03:20:40.636,-0.92,-1.04,0.5,-296.75,164.43,115.6,-0.842,-0.82,0.624,-270.444,222.82399999999998,91.47999999999999
2026-07-21 03:20:40.637,-0.92,-0.86,0.24,-81.85,93.26,84.05,-0.882,-0.876,0.548,-243.12599999999998,192.954,94.776
2026-07-21 03:20:40.696,-0.91,-0.77,0.19,23.07,91.37,74.04,-0.9199999999999999,-0.914,0.462,-194.82399999999998,162.706,96.07000000000001
2026-07-21 03:20:40.697,-0.91,-0.77,0.19,23.07,91.37,74.04,-0.9199999999999999,-0.8940000000000001,0.35600000000000004,-130.408,131.64,92.78800000000001
2026-07-21 03:20:40.758,-0.92,-0.7,0.17,68.91,98.02,70.37,-0.916,-0.828,0.258,-52.709999999999994,107.68999999999998,83.62
2026-07-21 03:20:40.822,-0.89,-0.76,0.17,12.27,69.09,91.43,-0.9099999999999999,-0.772,0.192,9.094000000000012,88.622,78.78600000000002
2026-07-21 03:20:40.824,-0.89,-0.76,0.17,12.27,69.09,91.43,-0.9039999999999999,-0.752,0.178,27.918000000000013,83.78799999999998,80.26200000000001
2026-07-21 03:20:40.880,-0.89,-0.76,0.17,12.27,69.09,91.43,-0.9,-0.75,0.174,25.75800000000001,79.332,83.74000000000002
2026-07-21 03:20:41.002,-0.78,-0.89,0.07,-63.54,-25.27,67.26,-0.8739999999999999,-0.774,0.15,8.43600000000001,56.003999999999984,82.38400000000001
2026-07-21 03:20:41.003,-0.71,-0.83,0.05,-40.1,-25.15,39.49,-0.8320000000000001,-0.8,0.126,-13.36599999999999,31.369999999999994,76.20800000000001
2026-07-21 03:20:41.059,-0.69,-0.73,0.06,-37.35,-28.87,-14.95,-0.7919999999999999,-0.794,0.10400000000000001,-23.28999999999999,11.77799999999999,54.932000000000016
2026-07-21 03:20:41.116,-0.69,-0.7,0.05,-62.13,-40.1,-37.78,-0.7519999999999999,-0.7819999999999999,0.08,-38.16999999999999,-10.060000000000011,29.09000000000001
2026-07-21 03:20:41.117,-0.73,-0.74,0.02,-90.64,-48.34,-58.78,-0.72,-0.778,0.05,-58.751999999999995,-33.546000000000014,-0.9519999999999925
2026-07-21 03:20:41.183,-0.78,-0.82,0.01,-106.81,-49.8,-71.66,-0.72,-0.764,0.038,-67.40599999999999,-38.45200000000001,-28.73599999999999
2026-07-21 03:20:41.237,-0.79,-0.85,0.01,-99.18,-44.37,-71.35,-0.736,-0.768,0.030000000000000006,-79.22200000000001,-42.296000000000014,-50.903999999999996
2026-07-21 03:20:41.355,-0.88,-0.9,0.01,-70.37,-28.44,-118.84,-0.7739999999999999,-0.8019999999999999,0.02,-85.826,-42.210000000000015,-71.68199999999999
2026-07-21 03:20:41.357,-0.87,-1.01,0.03,-34.85,-20.94,-194.76,-0.8099999999999999,-0.8640000000000001,0.016,-80.36999999999999,-38.37800000000001,-103.078
2026-07-21 03:20:41.358,-0.76,-1.12,0.03,35.1,6.29,-282.71,-0.8160000000000001,-0.9400000000000001,0.018,-55.22199999999998,-27.452000000000016,-147.86399999999998
2026-07-21 03:20:41.476,-0.64,-1.11,0.03,101.99,28.87,-315.73,-0.788,-0.998,0.022,-13.461999999999993,-11.718000000000012,-196.678
2026-07-21 03:20:41.477,-0.64,-1.11,0.03,101.99,28.87,-315.73,-0.758,-1.0500000000000003,0.026000000000000002,26.77200000000001,2.929999999999988,-245.554
2026-07-21 03:20:41.596,-0.65,-0.68,0.03,46.75,-95.46,-91.8,-0.712,-1.006,0.03,50.19600000000001,-10.474000000000009,-240.14600000000002
2026-07-21 03:20:41.598,-0.63,-0.61,-0.02,46.75,-95.46,-91.8,-0.6639999999999999,-0.9260000000000002,0.019999999999999997,66.516,-25.378000000000007,-219.554
2026-07-21 03:20:41.599,-0.42,-0.73,-0.02,-30.21,-130.98,-9.16,-0.5959999999999999,-0.8480000000000001,0.009999999999999998,53.45400000000001,-52.83200000000001,-164.844
2026-07-21 03:20:41.656,-0.42,-0.73,-0.02,-30.21,-130.98,-9.16,-0.5519999999999999,-0.772,-6.938893903907229e-19,27.01400000000001,-84.80199999999999,-103.53
2026-07-21 03:20:41.716,-0.43,-0.76,0.03,-19.29,-25.21,46.45,-0.51,-0.702,-6.938893903907229e-19,2.758000000000011,-95.61800000000001,-31.094
2026-07-21 03:20:41.837,-0.55,-0.74,0.07,9.83,35.22,53.04,-0.48999999999999994,-0.7140000000000001,0.008000000000000002,-4.625999999999989,-69.482,-2.125999999999999
2026-07-21 03:20:41.851,-0.68,-0.97,0.21,36.62,100.4,149.35,-0.5,-0.7859999999999999,0.054000000000000006,-6.651999999999989,-30.31000000000001,46.104
2026-07-21 03:20:41.895,-0.66,-1.09,0.24,42.42,92.22,193.3,-0.548,-0.858,0.10600000000000001,7.874000000000011,14.32999999999999,86.596
2026-07-21 03:20:41.896,-0.66,-1.09,0.24,42.42,92.22,193.3,-0.596,-0.93,0.158,22.400000000000013,58.969999999999985,127.08800000000001
2026-07-21 03:20:42.016,-0.63,-1.19,0.27,44.92,99.79,204.1,-0.6359999999999999,-1.016,0.20600000000000002,35.242000000000004,83.96999999999998,158.618
2026-07-21 03:20:42.019,-0.56,-1.18,0.34,49.07,135.74,157.35,-0.6380000000000001,-1.1039999999999999,0.26,43.09000000000002,104.07399999999998,179.48000000000002
2026-07-21 03:20:42.020,-0.56,-1.18,0.34,49.07,135.74,157.35,-0.6140000000000001,-1.1460000000000001,0.28600000000000003,45.58000000000001,111.14200000000001,181.07999999999998
2026-07-21 03:20:42.078,-0.49,-1.1,0.32,67.87,126.71,115.23,-0.58,-1.1480000000000001,0.302,50.670000000000016,118.03999999999999,165.46599999999998
2026-07-21 03:20:42.197,-0.4,-1.02,0.27,87.1,100.1,71.96,-0.5279999999999999,-1.134,0.308,59.606000000000016,119.61599999999999,141.198
2026-07-21 03:20:42.198,-0.33,-0.94,0.22,92.22,73.0,40.59,-0.46799999999999997,-1.084,0.298,69.066,114.258,108.49600000000001
2026-07-21 03:20:42.256,-0.3,-0.94,0.18,3.42,6.59,3.36,-0.41600000000000004,-1.036,0.266,59.936000000000014,88.42799999999998,77.69800000000001
2026-07-21 03:20:42.257,-0.3,-0.94,0.18,3.42,6.59,3.36,-0.364,-0.9879999999999999,0.23399999999999999,50.80600000000001,62.59799999999999,46.9
2026-07-21 03:20:42.316,-0.36,-1.11,0.21,-31.37,-7.81,-13.06,-0.33799999999999997,-0.99,0.21200000000000002,30.95800000000001,35.69399999999999,21.241999999999997
2026-07-21 03:20:42.317,-0.36,-1.11,0.21,-31.37,-7.81,-13.06,-0.32999999999999996,-1.008,0.19999999999999998,7.26400000000001,14.11199999999999,4.238000000000001
2026-07-21 03:20:42.380,-0.39,-1.26,0.25,-45.35,-6.65,-45.84,-0.34199999999999997,-1.0719999999999998,0.20599999999999996,-20.24999999999999,-1.8180000000000114,-13.048000000000002
2026-07-21 03:20:42.381,-0.41,-1.29,0.25,-31.07,1.1,-86.36,-0.364,-1.142,0.22000000000000003,-27.14799999999999,-2.9160000000000115,-30.991999999999997
2026-07-21 03:20:42.506,-0.46,-1.24,0.2,-1.28,8.12,-128.54,-0.39599999999999996,-1.202,0.22399999999999998,-28.087999999999987,-2.610000000000012,-57.372
2026-07-21 03:20:42.508,-0.52,-1.16,0.13,24.72,8.06,-166.81,-0.42799999999999994,-1.2120000000000002,0.20800000000000002,-16.869999999999987,0.5639999999999885,-88.122
2026-07-21 03:20:42.509,-0.59,-1.09,0.02,42.72,12.33,-196.35,-0.4739999999999999,-1.208,0.16999999999999998,-2.051999999999988,4.591999999999989,-124.78
2026-07-21 03:20:42.556,-0.6,-0.99,-0.09,61.58,12.57,-182.25,-0.516,-1.1540000000000001,0.10200000000000001,19.33400000000001,8.43599999999999,-152.06199999999998
2026-07-21 03:20:42.568,-0.6,-0.99,-0.09,61.58,12.57,-182.25,-0.5539999999999999,-1.094,0.03400000000000001,37.86400000000001,10.729999999999988,-171.23999999999998
2026-07-21 03:20:42.622,-0.48,-0.99,-0.01,54.75,-67.69,-86.73,-0.5579999999999999,-1.044,-0.007999999999999997,49.07000000000001,-4.432000000000011,-162.878
2026-07-21 03:20:42.736,-0.47,-1.13,0.07,10.44,-113.71,-85.75,-0.5479999999999999,-1.0379999999999998,-0.019999999999999997,46.21400000000001,-28.78600000000001,-146.666
2026-07-21 03:20:42.737,-0.47,-1.13,0.07,10.44,-113.71,-85.75,-0.5239999999999999,-1.0459999999999998,-0.009999999999999995,39.75800000000001,-53.99400000000001,-124.546
2026-07-21 03:20:42.738,-0.38,-1.27,0.11,-37.41,-154.48,-86.91,-0.47999999999999987,-1.1019999999999999,0.030000000000000006,19.960000000000015,-87.40400000000001,-105.478
2026-07-21 03:20:42.797,-0.27,-1.27,0.12,-68.48,-143.92,-121.64,-0.41399999999999987,-1.158,0.072,-6.051999999999988,-118.702,-93.35600000000001
2026-07-21 03:20:42.801,-0.34,-1.05,0.07,-40.04,-90.52,-139.77,-0.38599999999999995,-1.17,0.08800000000000001,-25.009999999999984,-123.26799999999999,-103.96400000000001
2026-07-21 03:20:42.918,-0.34,-1.05,0.07,-40.04,-90.52,-139.77,-0.36,-1.1540000000000001,0.08800000000000001,-35.10599999999998,-118.63000000000002,-114.768
2026-07-21 03:20:42.919,-0.39,-0.79,-0.01,-18.62,-48.71,-115.84,-0.344,-1.086,0.07200000000000001,-40.917999999999985,-105.63,-120.78600000000002
2026-07-21 03:20:42.976,-0.34,-0.55,-0.07,-30.58,3.97,-21.3,-0.33599999999999997,-0.942,0.036,-39.55199999999999,-73.94000000000001,-107.66400000000002
2026-07-21 03:20:42.982,-0.31,-0.52,-0.03,-18.98,36.99,-6.29,-0.344,-0.792,0.006000000000000003,-29.651999999999987,-37.75800000000001,-84.59400000000001
2026-07-21 03:20:43.105,-0.3,-0.55,0.0,-2.32,65.92,8.42,-0.33599999999999997,-0.692,-0.007999999999999998,-22.10799999999999,-6.47000000000001,-54.956
2026-07-21 03:20:43.106,-0.3,-0.55,0.0,-2.32,65.92,8.42,-0.32799999999999996,-0.5920000000000001,-0.022,-14.563999999999988,24.81799999999999,-25.318
2026-07-21 03:20:43.215,-0.36,-0.95,0.13,11.84,109.31,129.03,-0.32199999999999995,-0.624,0.006,-8.471999999999989,56.42199999999999,23.656
2026-07-21 03:20:43.216,-0.36,-0.95,0.13,11.84,109.31,129.03,-0.32599999999999996,-0.704,0.046,0.012000000000011113,77.48999999999998,53.722
2026-07-21 03:20:43.217,-0.41,-1.11,0.16,7.69,117.37,150.7,-0.346,-0.8220000000000001,0.084,5.346000000000012,93.56599999999999,85.11999999999999
2026-07-21 03:20:43.336,-0.62,-1.31,0.38,47.91,177.06,169.37,-0.41,-0.974,0.16,15.39200000000001,115.79400000000001,117.30999999999999
2026-07-21 03:20:43.337,-0.62,-1.31,0.38,45.23,174.68,175.23,-0.4739999999999999,-1.1260000000000001,0.23600000000000004,24.902000000000008,137.546,150.672
2026-07-21 03:20:43.338,-0.63,-1.36,0.64,33.69,143.01,155.76,-0.5279999999999999,-1.2080000000000002,0.338,29.27200000000001,144.286,156.01799999999997
2026-07-21 03:20:43.339,-0.63,-1.36,0.64,33.69,143.01,155.76,-0.582,-1.29,0.44000000000000006,33.64200000000001,151.02599999999998,161.36399999999998
2026-07-21 03:20:43.456,-0.49,-1.22,0.6,43.15,119.93,111.33,-0.598,-1.312,0.5279999999999999,40.73400000000001,151.538,153.48999999999998
2026-07-21 03:20:43.457,-0.49,-1.22,0.6,43.15,119.93,111.33,-0.572,-1.294,0.572,39.78200000000001,140.112,141.88199999999998
2026-07-21 03:20:43.459,-0.27,-1.08,0.48,76.54,105.35,61.1,-0.502,-1.248,0.592,46.04400000000001,126.24599999999998,119.056
2026-07-21 03:20:43.587,-0.01,-0.97,0.3,138.85,35.83,-62.13,-0.37799999999999995,-1.1700000000000002,0.524,67.07600000000001,104.80999999999999,75.478
2026-07-21 03:20:43.588,-0.21,-0.94,0.29,141.66,59.81,-102.11,-0.294,-1.0859999999999999,0.4539999999999999,88.67,88.16999999999999,23.904
2026-07-21 03:20:43.636,-0.45,-0.73,0.33,107.73,127.75,-72.39,-0.2859999999999999,-0.9879999999999999,0.4,101.58600000000001,89.734,-12.84
2026-07-21 03:20:43.755,-0.41,-0.69,0.27,65.92,122.38,-27.89,-0.26999999999999996,-0.882,0.33399999999999996,106.14000000000001,90.22399999999999,-40.684000000000005
2026-07-21 03:20:43.756,-0.38,-0.77,0.16,29.66,93.51,5.31,-0.2919999999999999,-0.82,0.26999999999999996,96.76400000000002,87.856,-51.842000000000006
2026-07-21 03:20:43.757,-0.34,-0.98,0.27,26.18,26.73,26.67,-0.358,-0.8219999999999998,0.264,74.23,86.03599999999999,-34.082
2026-07-21 03:20:43.816,-0.34,-0.98,0.27,26.18,26.73,26.67,-0.384,-0.8300000000000001,0.26,51.134000000000015,79.41999999999999,-8.325999999999999
2026-07-21 03:20:43.817,-0.33,-0.93,0.41,52.55,44.43,28.63,-0.36,-0.8699999999999999,0.27599999999999997,40.098000000000006,62.755999999999986,11.878
2026-07-21 03:20:43.936,-0.29,-0.84,0.43,75.5,54.69,14.1,-0.33599999999999997,-0.9,0.308,42.01400000000001,49.21799999999998,20.276
2026-07-21 03:20:43.937,-0.25,-0.81,0.36,77.7,38.33,-11.41,-0.30999999999999994,-0.908,0.348,51.622000000000014,38.18199999999999,16.932
2026-07-21 03:20:43.999,-0.26,-0.91,0.35,42.85,51.03,-64.76,-0.29399999999999993,-0.8939999999999999,0.364,54.956,43.04199999999999,-1.354000000000002
2026-07-21 03:20:44.120,-0.29,-0.93,0.39,46.08,86.49,-83.98,-0.2839999999999999,-0.884,0.388,58.936000000000014,54.993999999999986,-23.484
2026-07-21 03:20:44.121,-0.32,-0.95,0.39,56.52,104.43,-91.06,-0.282,-0.8879999999999999,0.384,59.73000000000002,66.99399999999999,-47.422000000000004
2026-07-21 03:20:44.176,-0.32,-1.04,0.3,51.15,70.31,-77.58,-0.288,-0.9280000000000002,0.358,54.860000000000014,70.11799999999998,-65.75800000000001
2026-07-21 03:20:44.178,-0.35,-1.08,0.32,31.31,52.55,-75.2,-0.30799999999999994,-0.982,0.35,45.582000000000015,72.96199999999999,-78.516
2026-07-21 03:20:44.295,-0.36,-1.07,0.36,14.1,41.81,-78.86,-0.32799999999999996,-1.014,0.352,39.83200000000001,71.118,-81.336
2026-07-21 03:20:44.476,-0.36,-1.07,0.36,14.1,41.81,-78.86,-0.34199999999999997,-1.0420000000000003,0.346,33.436000000000014,62.181999999999995,-80.31200000000001
2026-07-21 03:20:44.478,-0.27,-0.96,0.31,8.54,35.95,-82.34,-0.33199999999999996,-1.044,0.32999999999999996,23.84000000000001,48.48599999999999,-78.568
2026-07-21 03:20:44.479,-0.26,-0.9,0.3,13.98,44.43,-77.39,-0.31999999999999995,-1.016,0.32999999999999996,16.40600000000001,43.30999999999999,-78.53
2026-07-21 03:20:44.480,-0.27,-0.82,0.37,23.13,64.51,-86.73,-0.30399999999999994,-0.9640000000000001,0.33999999999999997,14.77000000000001,45.70199999999999,-80.836
2026-07-21 03:20:44.481,-0.26,-0.78,0.53,39.06,77.39,-93.99,-0.2839999999999999,-0.9059999999999999,0.374,19.76200000000001,52.818,-83.862
2026-07-21 03:20:44.536,-0.19,-0.84,0.6,64.21,46.26,-89.72,-0.24999999999999994,-0.86,0.422,29.784000000000013,53.70799999999999,-86.034
2026-07-21 03:20:44.537,-0.1,-0.93,0.46,83.01,4.64,-81.85,-0.21599999999999997,-0.8539999999999999,0.45199999999999996,44.67800000000001,47.44599999999999,-85.936
2026-07-21 03:20:44.595,-0.1,-0.93,0.46,83.01,4.64,-81.85,-0.18399999999999997,-0.86,0.484,58.484000000000016,39.48799999999999,-86.828
2026-07-21 03:20:44.596,-0.05,-0.98,0.25,68.36,9.64,-80.38,-0.13999999999999996,-0.892,0.45999999999999996,67.53000000000002,28.51399999999999,-85.55799999999999
2026-07-21 03:20:44.656,0.0,-1.01,0.15,15.99,47.55,-84.17,-0.08799999999999995,-0.938,0.384,62.91600000000001,22.545999999999985,-83.594
2026-07-21 03:20:44.717,0.19,-0.98,0.33,-85.45,148.25,-65.55,-0.011999999999999955,-0.966,0.32999999999999996,32.984000000000016,42.94399999999999,-78.76
2026-07-21 03:20:44.777,0.19,-0.98,0.33,-85.45,148.25,-65.55,0.04600000000000005,-0.976,0.304,-0.7079999999999899,71.66599999999998,-75.5
2026-07-21 03:20:44.778,0.21,-0.78,0.5,-70.01,185.61,-35.28,0.10800000000000005,-0.946,0.312,-31.31199999999999,107.85999999999999,-66.186
2026-07-21 03:20:44.897,0.21,-0.58,0.52,-19.84,156.13,-1.77,0.16000000000000006,-0.866,0.366,-48.95199999999999,137.158,-50.464000000000006
2026-07-21 03:20:44.960,0.43,-0.7,0.57,-20.02,-34.18,32.59,0.24600000000000005,-0.8039999999999999,0.45,-56.153999999999996,120.81199999999998,-27.112000000000002
2026-07-21 03:20:45.018,0.72,-1.52,1.19,-0.85,-85.39,-47.18,0.352,-0.9120000000000001,0.622,-39.233999999999995,74.08399999999999,-23.438
2026-07-21 03:20:45.076,0.63,-2.5,1.55,27.34,-197.08,-153.02,0.44000000000000006,-1.216,0.866,-16.67599999999999,5.017999999999989,-40.932
2026-07-21 03:20:45.138,0.16,-1.89,1.14,52.73,-219.3,-213.38,0.43,-1.438,0.994,7.872000000000011,-75.96400000000001,-76.55199999999999
2026-07-21 03:20:45.196,-0.31,-0.87,0.54,73.73,-218.87,-243.35,0.326,-1.496,0.9979999999999999,26.586000000000013,-150.964,-124.86800000000001
2026-07-21 03:20:45.324,-0.5,0.12,-0.21,33.94,-187.13,-127.75,0.14000000000000004,-1.332,0.842,37.37800000000001,-181.55400000000003,-156.936
2026-07-21 03:20:45.325,-0.5,0.12,-0.21,33.94,-187.13,-127.75,-0.10399999999999995,-1.004,0.562,44.33600000000001,-201.90200000000002,-173.05
2026-07-21 03:20:45.383,-0.3,-0.12,-0.16,10.5,75.81,35.52,-0.29,-0.5279999999999999,0.21999999999999997,40.96800000000001,-147.324,-135.342
2026-07-21 03:20:45.384,-0.3,-0.12,-0.16,10.5,75.81,35.52,-0.38199999999999995,-0.174,-0.039999999999999994,32.52200000000001,-88.30199999999999,-85.562
2026-07-21 03:20:45.436,-0.1,-0.53,0.12,-52.73,131.29,60.0,-0.33999999999999997,-0.10600000000000001,-0.124,7.230000000000011,-18.27000000000001,-24.892
2026-07-21 03:20:45.494,1.12,-1.84,0.93,-118.1,189.03,117.43,-0.015999999999999924,-0.49800000000000005,0.10400000000000001,-23.177999999999987,56.96199999999999,24.144000000000002
2026-07-21 03:20:45.495,1.12,-1.84,0.93,-118.1,189.03,117.43,0.3080000000000001,-0.89,0.332,-53.58599999999999,132.194,73.18
2026-07-21 03:20:45.556,1.74,-1.65,0.94,-83.25,139.53,105.59,0.7160000000000001,-1.1960000000000002,0.552,-72.33599999999998,144.93799999999996,87.194
2026-07-21 03:20:45.616,1.26,-0.85,0.51,-32.53,84.11,28.02,1.028,-1.342,0.6859999999999999,-80.94199999999998,146.59799999999998,85.694
2026-07-21 03:20:45.617,1.26,-0.85,0.51,-32.53,84.11,28.02,1.3000000000000003,-1.406,0.764,-76.90199999999997,137.16199999999998,79.298
2026-07-21 03:20:45.676,0.79,-0.27,0.18,-4.82,29.17,-25.15,1.2340000000000002,-1.092,0.614,-54.245999999999995,105.18999999999998,50.782000000000004
2026-07-21 03:20:45.736,0.51,-0.07,0.01,11.96,-65.55,-50.42,1.112,-0.738,0.43,-28.23399999999999,54.274,17.212
2026-07-21 03:20:45.803,0.59,-0.36,0.1,21.42,-86.61,-68.91,0.882,-0.48,0.26199999999999996,-7.299999999999988,9.045999999999989,-17.688
2026-07-21 03:20:45.855,1.61,-1.31,0.67,19.53,-151.79,-116.33,0.952,-0.572,0.29400000000000004,3.1120000000000116,-38.13400000000001,-46.558
2026-07-21 03:20:45.856,1.61,-1.31,0.67,19.53,-151.79,-116.33,1.022,-0.6639999999999999,0.326,13.524000000000012,-85.31400000000001,-75.428
2026-07-21 03:20:45.976,1.83,-1.75,0.87,21.0,-197.14,-142.33,1.23,-0.96,0.4640000000000001,18.68800000000001,-130.576,-98.864
2026-07-21 03:20:45.981,1.21,-1.48,0.75,39.06,-203.06,-182.56,1.37,-1.2419999999999998,0.612,24.10800000000001,-158.07800000000003,-125.292
2026-07-21 03:20:46.037,-0.36,-0.07,-0.22,91.92,-94.79,-191.04,1.1800000000000002,-1.184,0.548,38.20800000000001,-159.714,-149.71800000000002
2026-07-21 03:20:46.038,-0.52,0.09,-0.36,47.49,11.54,-103.88,0.7540000000000001,-0.9039999999999999,0.34199999999999997,43.80000000000001,-127.048,-147.228
2026-07-21 03:20:46.097,-0.57,-0.03,-0.14,-32.71,127.01,-20.87,0.31800000000000006,-0.648,0.18,33.35200000000001,-71.28800000000001,-128.136
2026-07-21 03:20:46.219,-0.52,-0.11,0.06,-88.68,174.19,38.45,-0.152,-0.31999999999999995,0.018000000000000006,11.416000000000011,2.977999999999986,-91.97999999999999
2026-07-21 03:20:46.220,-0.37,-0.15,0.02,-89.72,158.75,66.71,-0.46799999999999997,-0.05399999999999996,-0.12799999999999997,-14.33999999999999,75.33999999999999,-42.126
2026-07-21 03:20:46.276,1.53,-1.43,1.23,-161.74,198.24,102.36,-0.09000000000000004,-0.32599999999999996,0.162,-65.07199999999999,133.946,16.554
2026-07-21 03:20:46.279,2.62,-1.95,1.97,-222.66,234.62,143.8,0.538,-0.734,0.6279999999999999,-119.102,178.56199999999998,66.09
2026-07-21 03:20:46.341,2.62,-1.95,1.97,-222.66,234.62,143.8,1.176,-1.1179999999999999,1.05,-157.09199999999998,200.084,99.024
2026-07-21 03:20:46.342,2.47,-1.5,1.6,-141.66,190.8,113.77,1.7740000000000002,-1.3960000000000001,1.358,-167.688,203.406,114.08800000000001
2026-07-21 03:20:46.400,1.67,-0.77,0.71,-14.83,77.21,57.43,2.182,-1.52,1.496,-152.70999999999998,187.098,112.23200000000001
2026-07-21 03:20:46.401,0.93,-0.31,0.08,38.39,-22.64,29.79,2.0620000000000003,-1.2959999999999998,1.2659999999999998,-112.684,142.92199999999997,97.718
2026-07-21 03:20:46.516,0.51,-0.16,-0.14,29.54,-76.48,21.06,1.6400000000000001,-0.938,0.844,-62.24399999999999,80.70199999999998,73.17
2026-07-21 03:20:46.520,0.41,-0.21,-0.06,0.43,-105.96,16.3,1.198,-0.59,0.438,-17.625999999999987,12.58599999999999,47.67
2026-07-21 03:20:46.576,0.58,-0.4,0.16,-28.56,-149.41,-33.26,0.82,-0.37,0.15,4.994000000000012,-55.45600000000002,18.264
2026-07-21 03:20:46.759,0.99,-0.79,0.49,-10.07,-172.24,-87.1,0.6839999999999999,-0.374,0.10600000000000001,5.946000000000012,-105.346,-10.642
2026-07-21 03:20:46.760,0.99,-0.79,0.49,-10.07,-172.24,-87.1,0.696,-0.4699999999999999,0.188,-3.745999999999988,-135.26600000000002,-34.019999999999996
2026-07-21 03:20:46.761,0.68,-0.6,0.45,-16.91,-140.5,-126.95,0.73,-0.5579999999999999,0.30600000000000005,-13.035999999999987,-148.07,-63.622
2026-07-21 03:20:46.762,0.43,-0.33,0.31,-31.92,-45.78,-70.37,0.734,-0.582,0.38,-19.50599999999999,-136.03400000000002,-80.956
2026-07-21 03:20:46.763,0.32,-0.15,0.17,-20.94,49.87,24.05,0.6819999999999999,-0.5319999999999999,0.382,-17.98199999999999,-96.17800000000001,-69.494
2026-07-21 03:20:46.823,0.26,-0.1,-0.03,13.79,100.59,88.68,0.536,-0.39399999999999996,0.278,-13.209999999999988,-41.612000000000016,-34.338
2026-07-21 03:20:46.824,0.26,-0.1,-0.03,13.79,100.59,88.68,0.39,-0.25599999999999995,0.17400000000000002,-8.43799999999999,12.95399999999999,0.8180000000000007
2026-07-21 03:20:46.938,0.18,-0.16,-0.17,36.87,122.62,87.28,0.29,-0.16799999999999998,0.05000000000000001,2.3180000000000107,65.578,43.664
2026-07-21 03:20:46.996,0.84,-1.06,0.5,-103.88,165.65,22.64,0.372,-0.31399999999999995,0.08800000000000001,-12.073999999999987,107.86399999999999,62.266
2026-07-21 03:20:47.056,1.17,-1.28,0.71,-138.67,138.67,62.01,0.542,-0.54,0.196,-35.61999999999998,125.624,69.85799999999999
2026-07-21 03:20:47.236,1.17,-0.97,0.74,-35.52,96.56,22.83,0.724,-0.714,0.35,-45.481999999999985,124.81799999999998,56.68800000000001
2026-07-21 03:20:47.237,1.17,-0.97,0.74,-35.52,96.56,22.83,0.9059999999999999,-0.8879999999999999,0.504,-55.343999999999994,124.01199999999999,43.518
2026-07-21 03:20:47.238,1.11,-0.81,0.5,34.24,-61.95,7.26,1.092,-1.018,0.638,-55.86999999999999,87.09799999999998,27.514
2026-07-21 03:20:47.240,0.75,-0.59,0.25,53.41,-104.74,-18.55,1.0739999999999998,-0.924,0.588,-24.411999999999995,33.01999999999999,19.276
2026-07-21 03:20:47.299,0.52,-0.49,0.12,70.37,-129.27,-43.82,0.944,-0.7659999999999999,0.47000000000000003,17.396000000000008,-20.568000000000012,-1.8900000000000006
2026-07-21 03:20:47.359,0.49,-0.5,0.13,73.18,-142.76,-61.89,0.808,-0.6719999999999999,0.348,39.13600000000001,-68.43200000000002,-18.834
2026-07-21 03:20:47.427,0.54,-0.54,0.17,64.76,-159.48,-77.88,0.682,-0.586,0.23399999999999999,59.19200000000001,-119.64000000000001,-38.976
2026-07-21 03:20:47.536,0.75,-0.61,0.11,26.73,-181.09,-78.86,0.61,-0.5459999999999999,0.156,57.69000000000001,-143.46800000000002,-56.2
2026-07-21 03:20:47.537,0.85,-0.65,0.13,-34.42,-164.37,-46.14,0.63,-0.558,0.132,40.12400000000001,-155.39400000000003,-61.717999999999996
2026-07-21 03:20:47.597,0.59,-0.5,0.09,-79.35,-14.53,-16.11,0.6439999999999999,-0.5599999999999999,0.126,10.180000000000016,-132.446,-56.176
2026-07-21 03:20:47.656,0.38,-0.32,0.06,-45.78,83.44,-15.99,0.622,-0.5239999999999999,0.11200000000000002,-13.611999999999986,-87.206,-46.995999999999995
2026-07-21 03:20:47.657,0.27,-0.22,0.04,-23.56,142.15,6.77,0.568,-0.45999999999999996,0.086,-31.27599999999999,-26.880000000000013,-30.066000000000003
2026-07-21 03:20:47.716,0.27,-0.27,0.05,-28.75,143.98,53.83,0.472,-0.392,0.074,-42.371999999999986,38.133999999999986,-3.528
2026-07-21 03:20:47.778,0.34,-0.37,0.05,-47.06,117.61,96.92,0.37,-0.33599999999999997,0.057999999999999996,-44.89999999999999,94.53,25.084
2026-07-21 03:20:47.779,0.37,-0.41,0.04,-55.48,102.6,109.68,0.326,-0.31799999999999995,0.048,-40.12599999999999,117.95599999999999,50.242000000000004
2026-07-21 03:20:47.837,0.32,-0.42,0.05,-53.59,104.74,94.85,0.31399999999999995,-0.33799999999999997,0.046,-41.68799999999999,122.21599999999998,72.41
2026-07-21 03:20:47.958,0.38,-0.62,0.18,-60.06,115.17,84.59,0.33599999999999997,-0.418,0.074,-48.987999999999985,116.81999999999998,87.974
2026-07-21 03:20:48.020,1.39,-1.94,1.14,-64.39,229.25,111.27,0.5599999999999999,-0.752,0.292,-56.115999999999985,133.87399999999997,99.462
2026-07-21 03:20:48.021,1.06,-1.45,0.81,-33.2,141.48,69.58,0.704,-0.968,0.44399999999999995,-53.343999999999994,138.64799999999997,93.994
2026-07-21 03:20:48.079,0.56,-0.76,0.28,-4.7,17.09,10.44,0.742,-1.0379999999999998,0.492,-43.187999999999995,121.54599999999998,74.146
2026-07-21 03:20:48.135,0.24,-0.35,-0.09,18.25,-43.82,-24.66,0.726,-1.0239999999999998,0.4640000000000001,-28.819999999999993,91.83399999999999,50.24399999999999
2026-07-21 03:20:48.137,0.14,-0.25,-0.22,24.78,-31.13,-23.99,0.678,-0.9499999999999998,0.384,-11.851999999999993,62.57399999999999,28.528
2026-07-21 03:20:48.195,0.12,-0.33,-0.16,7.75,13.18,1.28,0.42400000000000004,-0.628,0.12400000000000003,2.576000000000011,19.359999999999985,6.529999999999999
2026-07-21 03:20:48.377,0.12,-0.33,-0.16,7.75,13.18,1.28,0.23600000000000004,-0.4039999999999999,-0.06999999999999999,10.76600000000001,-6.300000000000012,-7.13
2026-07-21 03:20:48.391,0.14,-0.52,-0.01,-24.72,50.78,38.94,0.152,-0.356,-0.128,6.762000000000012,0.4379999999999882,-1.4299999999999997
2026-07-21 03:20:48.392,0.41,-1.32,0.33,-84.11,95.03,99.12,0.186,-0.55,-0.044000000000000004,-13.709999999999988,28.207999999999988,23.326
2026-07-21 03:20:48.393,0.48,-1.78,0.19,-16.6,116.39,13.31,0.254,-0.8559999999999999,0.038,-21.98599999999999,57.71199999999999,30.786
2026-07-21 03:20:48.435,0.25,-1.42,-0.03,12.45,93.26,-46.08,0.27999999999999997,-1.0739999999999998,0.06399999999999999,-21.04599999999999,73.72799999999998,21.314
2026-07-21 03:20:48.436,0.25,-1.42,-0.03,12.45,93.26,-46.08,0.306,-1.2919999999999998,0.09,-20.105999999999987,89.74399999999999,11.841999999999999
2026-07-21 03:20:48.499,-0.02,-1.04,-0.08,-15.26,58.84,-61.71,0.274,-1.3960000000000001,0.076,-18.21399999999999,91.356,-8.288
2026-07-21 03:20:48.500,-0.13,-1.01,0.04,-65.67,35.71,-29.85,0.16599999999999998,-1.334,0.018,-14.525999999999991,79.49199999999999,-34.082
2026-07-21 03:20:48.557,-0.09,-1.12,0.27,-97.6,55.05,13.18,0.052000000000000005,-1.202,0.034,-30.72599999999999,67.22399999999999,-34.108000000000004
2026-07-21 03:20:48.616,-0.03,-1.07,0.45,-81.24,118.47,29.36,-0.003999999999999998,-1.1320000000000001,0.13,-49.463999999999984,72.26599999999999,-19.020000000000003
2026-07-21 03:20:48.617,-0.03,-1.07,0.45,-81.24,118.47,29.36,-0.06000000000000001,-1.0619999999999998,0.22600000000000003,-68.20199999999997,77.30799999999999,-3.932000000000002
2026-07-21 03:20:48.677,-0.0,-0.9,0.49,-33.94,170.04,20.51,-0.05600000000000001,-1.034,0.34,-71.93799999999999,99.54799999999997,12.511999999999997
2026-07-21 03:20:48.739,0.0,-0.67,0.44,-18.31,88.13,12.57,-0.030000000000000006,-0.966,0.42000000000000004,-62.46599999999999,110.032,20.996000000000002
2026-07-21 03:20:48.797,-0.04,-0.65,0.43,-26.37,31.92,13.18,-0.020000000000000007,-0.8720000000000001,0.45200000000000007,-48.219999999999985,105.40599999999999,20.996
2026-07-21 03:20:48.798,-0.13,-0.67,0.45,-11.78,24.66,5.37,-0.04000000000000001,-0.792,0.45199999999999996,-34.32799999999999,86.64399999999998,16.198
2026-07-21 03:20:48.861,-0.27,-0.74,0.47,18.8,56.21,-7.63,-0.08800000000000001,-0.726,0.45599999999999996,-14.319999999999988,74.19199999999998,8.799999999999999
2026-07-21 03:20:48.920,-0.41,-0.95,0.51,52.06,134.28,7.02,-0.17,-0.736,0.45999999999999996,2.8800000000000123,67.03999999999999,6.1019999999999985
2026-07-21 03:20:49.036,-0.36,-1.07,0.52,49.38,149.35,44.13,-0.242,-0.8160000000000001,0.476,16.418000000000013,79.28399999999999,12.413999999999998
2026-07-21 03:20:49.037,-0.36,-1.07,0.52,49.38,149.35,44.13,-0.306,-0.9,0.49400000000000005,31.56800000000002,102.76999999999998,18.604
2026-07-21 03:20:49.096,0.13,-1.13,0.31,43.33,85.75,122.31,-0.254,-0.992,0.466,42.59000000000002,114.98799999999999,41.992
2026-07-21 03:20:49.100,0.02,-1.3,0.24,27.95,5.19,99.79,-0.196,-1.1039999999999999,0.42000000000000004,44.42000000000001,104.78399999999999,63.476
2026-07-21 03:20:49.159,0.02,-1.3,0.24,27.95,5.19,99.79,-0.11000000000000001,-1.174,0.366,39.59800000000001,78.966,82.03
2026-07-21 03:20:49.160,-0.1,-1.39,0.19,10.74,-67.69,71.47,-0.057999999999999996,-1.238,0.3,31.87000000000001,35.55799999999999,87.498
2026-07-21 03:20:49.219,-0.13,-1.31,0.1,10.86,-92.53,46.87,-0.012,-1.286,0.21600000000000003,24.16600000000001,-12.818000000000007,88.046
2026-07-21 03:20:49.220,-0.13,-1.31,0.1,23.01,-78.61,17.52,-0.064,-1.3219999999999998,0.174,20.10200000000001,-45.69000000000001,67.088
2026-07-21 03:20:49.224,-0.15,-1.15,0.0,23.01,-78.61,17.52,-0.098,-1.292,0.12599999999999997,19.11400000000001,-62.45,50.634
2026-07-21 03:20:49.276,-0.23,-0.95,-0.0,21.97,-44.92,-14.89,-0.148,-1.222,0.078,17.918000000000013,-72.47200000000001,27.697999999999997
2026-07-21 03:20:49.282,-0.23,-0.95,-0.0,21.97,-44.92,-14.89,-0.174,-1.134,0.04,20.16400000000001,-67.918,10.425999999999997
2026-07-21 03:20:49.576,-0.31,-0.79,0.08,1.71,0.49,-35.83,-0.20999999999999996,-1.03,0.036,18.33400000000001,-49.31400000000001,-6.1140000000000025
2026-07-21 03:20:49.577,-0.37,-0.71,0.34,-36.87,80.26,-18.55,-0.258,-0.9099999999999998,0.084,6.358000000000009,-17.54000000000001,-13.328000000000003
2026-07-21 03:20:49.579,-0.29,-0.88,0.47,-34.48,66.65,60.79,-0.286,-0.8560000000000001,0.178,-5.139999999999988,11.511999999999995,-4.674000000000004
2026-07-21 03:20:49.581,-0.26,-1.15,0.58,-17.7,-33.45,140.38,-0.292,-0.8959999999999999,0.294,-13.07399999999999,13.805999999999994,26.379999999999995
2026-07-21 03:20:49.700,-0.17,-1.12,0.79,30.15,-103.76,125.12,-0.27999999999999997,-0.9299999999999999,0.45199999999999996,-11.437999999999988,2.037999999999994,54.38199999999999
2026-07-21 03:20:49.701,-0.2,-0.97,0.86,8.24,-139.65,75.07,-0.25799999999999995,-0.9659999999999999,0.608,-10.131999999999987,-25.99000000000001,76.562
2026-07-21 03:20:49.758,-0.51,-0.74,1.03,-106.99,-240.78,-0.79,-0.28600000000000003,-0.9719999999999999,0.746,-24.155999999999988,-90.19800000000001,80.11399999999999
2026-07-21 03:20:49.824,-0.7,-0.71,1.11,-152.77,-257.81,-38.21,-0.368,-0.938,0.874,-47.813999999999986,-155.09,60.314
2026-07-21 03:20:49.884,-0.73,-0.61,1.07,-144.65,-232.54,-80.75,-0.462,-0.8299999999999998,0.9719999999999999,-73.20399999999998,-194.90800000000002,16.088
2026-07-21 03:20:49.940,-0.59,-0.35,0.74,-25.21,-124.94,-127.38,-0.546,-0.6759999999999999,0.962,-84.27599999999998,-199.14400000000003,-34.412
2026-07-21 03:20:49.999,-0.55,-0.31,0.63,7.14,-89.72,-107.91,-0.616,-0.5439999999999998,0.916,-84.49599999999998,-189.15800000000004,-71.008
2026-07-21 03:20:50.000,-0.52,-0.33,0.57,2.81,-75.93,-63.05,-0.618,-0.4619999999999999,0.8240000000000001,-62.53599999999999,-156.18800000000002,-83.46
2026-07-21 03:20:50.056,-0.47,-0.39,0.51,-10.07,-67.93,-12.45,-0.572,-0.3979999999999999,0.704,-33.99599999999999,-118.21200000000003,-78.30799999999999
2026-07-21 03:20:50.117,-0.42,-0.46,0.43,-2.5,-47.55,19.65,-0.51,-0.3679999999999999,0.576,-5.565999999999983,-81.21400000000003,-58.227999999999994
2026-07-21 03:20:50.176,-0.36,-0.7,0.37,30.21,16.11,48.65,-0.46399999999999997,-0.4379999999999999,0.502,5.518000000000017,-53.00400000000002,-23.022
2026-07-21 03:20:50.238,-0.36,-0.94,0.51,25.76,42.11,69.21,-0.426,-0.5639999999999998,0.4779999999999999,9.242000000000017,-26.638000000000023,12.401999999999997
2026-07-21 03:20:50.300,-0.14,-1.11,0.84,36.93,114.87,51.33,-0.35,-0.72,0.532,16.066000000000017,11.521999999999977,35.278
2026-07-21 03:20:50.301,-0.14,-1.11,0.84,36.93,114.87,51.33,-0.284,-0.8640000000000001,0.5980000000000001,25.46600000000002,48.08199999999998,48.03399999999999
2026-07-21 03:20:50.423,0.01,-1.04,0.74,47.85,121.03,40.89,-0.198,-0.9799999999999999,0.6599999999999999,35.536000000000016,81.79799999999997,52.282
2026-07-21 03:20:50.426,-0.21,-1.04,0.51,-27.4,-12.45,87.77,-0.168,-1.0479999999999998,0.688,24.014000000000017,76.08599999999998,60.105999999999995
2026-07-21 03:20:50.437,-0.31,-1.02,0.46,-55.79,-53.22,107.73,-0.158,-1.064,0.6779999999999999,7.704000000000019,57.01999999999998,67.81
2026-07-21 03:20:50.537,-0.31,-1.02,0.46,-55.79,-53.22,107.73,-0.192,-1.0459999999999998,0.602,-10.839999999999982,23.401999999999976,79.09
2026-07-21 03:20:50.543,-0.35,-0.98,0.45,-51.88,-51.64,104.8,-0.23399999999999999,-1.02,0.524,-28.601999999999983,-9.900000000000023,89.78399999999999
2026-07-21 03:20:50.544,-0.35,-0.92,0.5,-47.67,-42.42,92.9,-0.30599999999999994,-0.9960000000000001,0.476,-47.70599999999998,-42.59000000000002,100.186
2026-07-21 03:20:50.596,-0.28,-0.88,0.52,-47.85,-50.23,88.62,-0.32,-0.9639999999999999,0.47800000000000004,-51.79599999999998,-50.14600000000003,100.35600000000001
2026-07-21 03:20:50.656,-0.17,-0.83,0.43,-59.08,-63.23,103.88,-0.292,-0.9259999999999999,0.4720000000000001,-52.453999999999986,-52.148000000000025,99.586
2026-07-21 03:20:50.717,-0.17,-0.83,0.43,-59.08,-63.23,103.88,-0.26399999999999996,-0.8879999999999999,0.466,-53.11199999999999,-54.15000000000002,98.816
2026-07-21 03:20:50.781,-0.52,-0.73,0.46,-86.36,-55.18,95.46,-0.298,-0.8379999999999999,0.46799999999999997,-60.00799999999998,-54.85800000000002,96.948
2026-07-21 03:20:50.782,-0.69,-0.7,0.52,-106.26,-61.89,115.05,-0.366,-0.7939999999999999,0.4720000000000001,-71.72599999999997,-58.752000000000024,101.378
2026-07-21 03:20:50.836,-0.71,-0.64,0.62,-129.46,-63.23,135.5,-0.45199999999999996,-0.7459999999999999,0.492,-88.04799999999997,-61.35200000000002,110.75399999999999
2026-07-21 03:20:50.839,-0.71,-0.64,0.62,-129.46,-63.23,135.5,-0.5599999999999999,-0.708,0.53,-102.12399999999998,-61.35200000000002,117.078
2026-07-21 03:20:50.848,-0.75,-0.52,0.63,-131.59,-55.24,120.97,-0.6759999999999999,-0.6459999999999999,0.5700000000000001,-116.62599999999998,-59.75400000000002,120.49600000000001
2026-07-21 03:20:50.896,-0.88,-0.38,0.55,-112.98,-42.6,74.22,-0.748,-0.5759999999999998,0.5880000000000001,-121.94999999999997,-57.23800000000002,116.248
2026-07-21 03:20:50.897,-0.88,-0.38,0.55,-112.98,-42.6,74.22,-0.7859999999999999,-0.5119999999999999,0.594,-123.29399999999998,-53.38000000000003,108.082
2026-07-21 03:20:51.016,-0.97,-0.3,0.44,-94.91,-33.63,35.71,-0.8379999999999999,-0.44399999999999995,0.558,-116.38399999999997,-47.46000000000002,88.124
2026-07-21 03:20:51.017,-0.95,-0.34,0.35,-85.02,-29.66,33.39,-0.8859999999999999,-0.3839999999999999,0.504,-107.49599999999998,-40.74600000000002,67.702
2026-07-21 03:20:51.018,-0.85,-0.44,0.35,-84.05,-19.96,52.73,-0.906,-0.36799999999999994,0.44800000000000006,-97.98799999999997,-33.69000000000002,54.053999999999995
2026-07-21 03:20:51.019,-0.85,-0.44,0.35,-84.05,-19.96,52.73,-0.9,-0.3799999999999999,0.40800000000000003,-92.20199999999998,-29.162000000000024,49.756
2026-07-21 03:20:51.076,-0.78,-0.54,0.4,-84.9,-0.67,58.59,-0.8799999999999999,-0.4119999999999999,0.378,-86.58599999999998,-20.776000000000025,46.63
2026-07-21 03:20:51.077,-0.75,-0.6,0.44,-76.97,18.92,43.27,-0.836,-0.47199999999999986,0.378,-82.99799999999998,-10.266000000000023,48.141999999999996
2026-07-21 03:20:51.196,-0.75,-0.6,0.44,-64.39,25.51,24.84,-0.7959999999999999,-0.5239999999999999,0.396,-78.87199999999999,0.7679999999999773,46.432
2026-07-21 03:20:51.260,-0.61,-0.59,0.48,-69.95,27.04,-7.51,-0.748,-0.5539999999999999,0.422,-76.05199999999999,10.167999999999978,34.384
2026-07-21 03:20:51.316,-0.41,-0.61,0.83,-101.75,14.04,-1.28,-0.6599999999999999,-0.5879999999999999,0.518,-79.59199999999998,16.96799999999998,23.582
2026-07-21 03:20:51.317,-0.13,-0.74,0.84,-154.24,-51.45,72.81,-0.53,-0.6279999999999999,0.6060000000000001,-93.45999999999998,6.8119999999999745,26.426
2026-07-21 03:20:51.376,0.22,-0.9,0.8,-218.69,-124.63,148.99,-0.33599999999999997,-0.688,0.6779999999999999,-121.804,-21.898000000000025,47.57
2026-07-21 03:20:51.379,0.22,-0.9,0.8,-218.69,-124.63,148.99,-0.14199999999999996,-0.7479999999999999,0.75,-152.664,-51.92600000000002,72.4
2026-07-21 03:20:51.504,0.36,-1.02,0.91,-288.21,-181.64,187.68,0.052000000000000025,-0.834,0.836,-196.31599999999997,-93.66200000000002,111.43800000000002
2026-07-21 03:20:51.505,0.36,-1.02,0.91,-288.21,-181.64,187.68,0.20600000000000004,-0.9159999999999998,0.852,-233.608,-132.798,149.23
2026-07-21 03:20:51.617,-0.05,-2.03,2.19,-452.15,-225.28,166.87,0.22200000000000003,-1.174,1.1219999999999999,-293.18999999999994,-167.56400000000002,168.042
2026-07-21 03:20:51.618,-0.41,-2.9,3.39,-558.9,-172.18,96.92,0.09600000000000002,-1.5739999999999998,1.64,-361.23199999999997,-177.074,157.628
2026-07-21 03:20:51.856,-3.68,-3.81,4.0,-259.64,-266.54,-598.0,-0.6839999999999999,-2.1559999999999997,2.2800000000000002,-369.4219999999999,-205.45600000000005,8.229999999999995
2026-07-21 03:20:51.858,-3.02,-2.59,3.54,-161.07,-406.86,-569.5,-1.3599999999999999,-2.4699999999999998,2.806,-343.99399999999997,-250.5,-143.206
2026-07-21 03:20:51.859,-2.88,-1.33,2.61,-156.56,-458.5,-458.0,-2.008,-2.5319999999999996,3.146,-317.66399999999993,-305.872,-272.342
2026-07-21 03:20:51.860,-2.76,0.03,1.18,-139.65,-450.13,-321.53,-2.55,-2.12,2.944,-255.16399999999993,-350.84200000000004,-370.022
2026-07-21 03:20:52.039,-1.21,0.45,-0.26,-53.53,-138.12,-25.27,-2.71,-1.4499999999999997,2.214,-154.08999999999997,-344.03000000000003,-394.46
2026-07-21 03:20:52.040,-0.33,-0.18,-0.21,18.49,23.93,58.35,-2.04,-0.724,1.3719999999999999,-98.46399999999997,-285.93600000000004,-263.19
2026-07-21 03:20:52.162,-0.04,-0.51,-0.04,72.33,109.44,14.22,-1.444,-0.30799999999999994,0.6559999999999999,-51.78399999999998,-182.67600000000002,-146.446
2026-07-21 03:20:52.163,0.15,-0.77,0.04,79.65,117.61,42.24,-0.8379999999999999,-0.1959999999999999,0.142,-4.5419999999999785,-67.45400000000002,-46.397999999999996
2026-07-21 03:20:52.165,0.36,-1.0,0.19,85.63,137.08,63.48,-0.2139999999999999,-0.40199999999999997,-0.05600000000000001,40.514000000000024,49.98799999999998,30.603999999999996
2026-07-21 03:20:52.175,0.36,-1.0,0.19,85.63,137.08,63.48,0.10000000000000009,-0.692,0.034,68.34600000000003,105.02799999999998,48.354
2026-07-21 03:20:52.276,0.52,-1.09,0.44,110.17,228.58,44.49,0.27000000000000013,-0.8739999999999999,0.164,86.68200000000003,145.958,45.58200000000001
2026-07-21 03:20:52.277,0.56,-1.24,0.77,104.49,226.01,76.78,0.3900000000000001,-1.02,0.326,93.11400000000003,169.272,58.093999999999994
2026-07-21 03:20:52.397,0.59,-1.31,0.85,85.51,209.17,118.41,0.4780000000000001,-1.128,0.488,94.28600000000003,187.584,73.328
2026-07-21 03:20:52.398,0.63,-1.28,0.98,60.49,296.57,70.37,0.5320000000000001,-1.184,0.646,89.25800000000002,219.48199999999997,74.70599999999999
2026-07-21 03:20:52.399,0.69,-1.2,1.23,39.79,332.46,46.81,0.5980000000000001,-1.2239999999999998,0.8539999999999999,80.09000000000002,258.55799999999994,71.372
2026-07-21 03:20:52.457,0.69,-1.2,1.23,39.79,332.46,46.81,0.6320000000000001,-1.246,1.012,66.01400000000002,279.33399999999995,71.836
2026-07-21 03:20:52.458,0.64,-1.13,1.32,33.63,386.6,-2.26,0.6480000000000001,-1.2239999999999998,1.1219999999999999,51.84200000000003,311.45199999999994,56.028
2026-07-21 03:20:52.515,0.48,-1.09,1.32,26.25,439.27,-76.17,0.6260000000000001,-1.18,1.216,39.99000000000002,357.4719999999999,17.112000000000002
2026-07-21 03:20:52.516,0.48,-1.09,1.32,26.25,439.27,-76.17,0.5960000000000001,-1.142,1.284,33.142000000000024,386.012,-12.196000000000002
2026-07-21 03:20:52.637,0.28,-1.08,1.24,-3.54,457.89,-150.94,0.514,-1.1179999999999999,1.286,24.47600000000002,411.09799999999996,-51.746
2026-07-21 03:20:52.640,0.07,-1.02,1.15,-38.88,460.88,-212.89,0.39000000000000007,-1.082,1.27,8.742000000000024,436.782,-103.686
2026-07-21 03:20:52.641,-0.05,-0.9,1.08,-52.31,444.82,-234.74,0.2520000000000001,-1.036,1.222,-8.445999999999978,448.42599999999993,-150.18200000000002
2026-07-21 03:20:52.644,-0.05,-0.9,1.08,-52.31,444.82,-234.74,0.14600000000000007,-0.9979999999999999,1.174,-24.15799999999998,449.53599999999994,-181.89600000000002
2026-07-21 03:20:52.756,-0.07,-0.79,1.04,-60.12,373.47,-199.28,0.036000000000000094,-0.938,1.1179999999999999,-41.43199999999998,436.37600000000003,-206.51799999999997
2026-07-21 03:20:52.757,-0.07,-0.79,1.04,-60.12,373.47,-199.28,-0.03399999999999991,-0.8799999999999999,1.0779999999999998,-52.747999999999976,419.492,-216.18599999999998
2026-07-21 03:20:52.758,0.05,-0.76,1.0,-120.0,145.39,-54.99,-0.03799999999999991,-0.828,1.048,-68.97199999999998,356.39399999999995,-184.60600000000002
2026-07-21 03:20:52.760,0.08,-0.76,0.98,-119.69,107.48,-52.06,-0.011999999999999917,-0.8,1.028,-82.44799999999998,288.926,-148.07
2026-07-21 03:20:52.876,0.08,-0.76,0.98,-119.69,107.48,-52.06,0.014000000000000087,-0.7719999999999999,1.008,-95.92399999999998,221.458,-111.53399999999999
2026-07-21 03:20:52.877,0.07,-0.73,0.92,-90.15,127.93,-106.26,0.04200000000000009,-0.7599999999999999,0.984,-101.92999999999998,172.34999999999997,-92.93
2026-07-21 03:20:52.878,0.02,-0.61,0.75,-62.38,117.8,-179.44,0.060000000000000095,-0.724,0.9259999999999999,-102.38199999999998,121.21599999999998,-88.962
2026-07-21 03:20:52.936,0.02,-0.61,0.75,-62.38,117.8,-179.44,0.05400000000000008,-0.694,0.876,-90.85799999999998,115.69799999999998,-113.852
2026-07-21 03:20:53.126,0.14,-0.64,0.48,-20.08,18.37,-67.32,0.0660000000000001,-0.6699999999999999,0.776,-70.93599999999998,97.87599999999998,-116.904
2026-07-21 03:20:53.176,0.63,-1.11,0.3,47.61,-66.59,91.31,0.1760000000000001,-0.74,0.64,-37.47599999999998,63.06199999999997,-88.22999999999999
2026-07-21 03:20:53.177,0.63,-1.11,0.3,47.61,-66.59,91.31,0.2880000000000001,-0.8160000000000001,0.516,-9.923999999999978,24.157999999999976,-48.715999999999994
2026-07-21 03:20:53.236,0.65,-1.14,0.38,49.8,-72.45,72.88,0.41400000000000003,-0.9219999999999999,0.442,12.512000000000022,-13.892000000000024,1.7480000000000018
2026-07-21 03:20:53.237,0.52,-1.12,0.39,61.89,-97.11,40.83,0.514,-1.0239999999999998,0.37,37.36600000000002,-56.874000000000024,45.802
2026-07-21 03:20:53.297,0.36,-1.1,0.36,70.92,-142.09,18.74,0.558,-1.116,0.346,55.56600000000002,-88.96600000000002,63.013999999999996
2026-07-21 03:20:53.300,0.26,-1.13,0.3,63.42,-187.19,10.13,0.4840000000000001,-1.1199999999999999,0.346,58.72800000000002,-113.08600000000001,46.778
2026-07-21 03:20:53.356,0.26,-1.13,0.3,63.42,-187.19,10.13,0.41000000000000014,-1.1239999999999999,0.346,61.89000000000002,-137.20600000000002,30.541999999999994
2026-07-21 03:20:53.358,0.21,-1.14,0.24,42.48,-220.64,-1.89,0.3220000000000001,-1.1239999999999999,0.318,60.42600000000002,-166.84400000000002,15.588
2026-07-21 03:20:53.416,0.19,-1.13,0.18,24.78,-243.53,-20.02,0.25600000000000006,-1.126,0.27599999999999997,53.00400000000002,-196.12800000000001,3.418
2026-07-21 03:20:53.542,0.24,-1.01,0.04,21.24,-207.03,-51.21,0.23200000000000007,-1.1079999999999999,0.21200000000000002,43.068000000000026,-209.11600000000004,-10.572
2026-07-21 03:20:53.543,0.29,-0.94,0.04,24.29,-114.69,-63.29,0.23800000000000007,-1.0699999999999998,0.16,35.242000000000026,-194.616,-25.256
2026-07-21 03:20:53.605,0.47,-0.98,0.09,27.4,67.2,-47.18,0.2800000000000001,-1.0399999999999998,0.118,28.03800000000002,-143.738,-36.718
2026-07-21 03:20:53.606,0.94,-1.32,0.11,27.4,67.2,-47.18,0.42600000000000005,-1.0759999999999998,0.092,25.022000000000023,-86.17000000000003,-45.775999999999996
2026-07-21 03:20:53.896,1.71,-1.87,0.09,36.19,40.59,-54.57,0.7300000000000001,-1.2239999999999998,0.074,27.30400000000002,-29.34600000000002,-52.686
2026-07-21 03:20:53.897,2.41,-2.39,0.34,72.94,-16.91,-108.95,1.1640000000000001,-1.5,0.134,37.64400000000002,8.67799999999998,-64.234
2026-07-21 03:20:53.898,1.73,-2.43,1.58,58.59,-282.84,-292.3,1.452,-1.798,0.442,44.50400000000002,-24.952000000000016,-110.03600000000002
2026-07-21 03:20:53.901,0.62,-1.67,1.97,-14.53,-418.46,-358.34,1.482,-1.936,0.818,36.11800000000002,-122.08400000000002,-172.268
2026-07-21 03:20:53.902,-0.78,-0.27,0.68,-77.51,-303.83,-370.42,1.1380000000000003,-1.7259999999999998,0.932,15.136000000000019,-196.29000000000002,-236.916
2026-07-21 03:20:53.903,-0.78,-0.27,0.68,-77.51,-303.83,-370.42,0.6400000000000001,-1.406,1.05,-7.60399999999998,-265.174,-300.086
2026-07-21 03:20:54.019,-0.86,-0.25,0.11,32.96,-164.43,-331.91,-0.013999999999999924,-0.9780000000000001,1.004,-15.599999999999977,-294.678,-344.678
2026-07-21 03:20:54.020,-1.01,-0.13,-0.24,134.83,-66.59,-265.62,-0.5619999999999999,-0.518,0.64,-0.35199999999997544,-251.42800000000003,-339.342
2026-07-21 03:20:54.076,-1.01,-0.13,-0.24,134.83,-66.59,-265.62,-0.8879999999999999,-0.21000000000000002,0.198,29.520000000000028,-181.05400000000003,-320.79800000000006
2026-07-21 03:20:54.137,-0.71,-0.21,-1.33,182.98,-98.57,28.2,-0.8739999999999999,-0.198,-0.20400000000000001,81.61800000000002,-140.002,-241.074
2026-07-21 03:20:54.260,-0.24,-0.28,-1.61,121.4,15.08,3.17,-0.7659999999999999,-0.2,-0.6620000000000001,121.40000000000002,-76.22000000000003,-166.35600000000002
2026-07-21 03:20:54.316,-0.31,-0.0,-0.99,1.95,-36.01,-49.56,-0.6559999999999999,-0.15,-0.882,115.19800000000005,-50.53600000000002,-109.88600000000001
2026-07-21 03:20:54.496,-0.35,-0.0,-1.02,-5.8,-17.15,-57.98,-0.5239999999999999,-0.124,-1.0379999999999998,87.07200000000003,-40.648000000000025,-68.35800000000002
2026-07-21 03:20:54.499,-0.22,-0.0,-1.0,7.39,22.95,-71.35,-0.3659999999999999,-0.098,-1.19,61.584000000000024,-22.74000000000002,-29.50400000000001
2026-07-21 03:20:54.500,0.05,-0.08,-0.96,61.89,12.63,-156.92,-0.2139999999999999,-0.07200000000000001,-1.116,37.36600000000003,-0.5000000000000224,-66.528
2026-07-21 03:20:54.556,0.05,-0.08,-0.96,61.89,12.63,-156.92,-0.15599999999999992,-0.032,-0.986,25.46400000000002,-0.9900000000000222,-98.546
2026-07-21 03:20:54.624,0.06,-0.17,-0.94,73.18,-8.06,-187.74,-0.0819999999999999,-0.066,-0.976,39.71000000000002,4.599999999999977,-126.18200000000002
2026-07-21 03:20:54.625,0.06,-0.17,-0.94,73.18,-8.06,-187.74,8.881784197001253e-17,-0.1,-0.96,55.50600000000003,6.417999999999978,-152.13400000000001
2026-07-21 03:20:54.685,0.08,-0.36,-0.9,81.97,-32.23,-268.62,0.06000000000000009,-0.172,-0.9400000000000001,70.42200000000003,-4.6180000000000225,-191.58800000000002
2026-07-21 03:20:54.689,0.11,-0.47,-0.93,68.24,-43.15,-311.46,0.07200000000000009,-0.25,-0.9339999999999999,71.69200000000002,-15.774000000000024,-222.496
2026-07-21 03:20:54.737,0.16,-0.53,-0.97,47.3,-46.63,-323.73,0.09400000000000008,-0.33999999999999997,-0.9359999999999999,68.77400000000003,-27.626000000000023,-255.85800000000003
2026-07-21 03:20:54.796,0.22,-0.49,-0.95,25.33,-42.18,-292.48,0.12600000000000008,-0.404,-0.938,59.20400000000002,-34.450000000000024,-276.80600000000004
2026-07-21 03:20:54.797,0.24,-0.4,-0.91,9.58,-39.43,-226.99,0.1620000000000001,-0.45,-0.932,46.48400000000002,-40.724000000000025,-284.65600000000006
2026-07-21 03:20:54.859,0.2,-0.36,-0.95,4.46,-39.92,-140.32,0.1860000000000001,-0.45,-0.942,30.982000000000017,-42.26200000000002,-258.99600000000004
2026-07-21 03:20:54.860,0.2,-0.36,-0.95,4.46,-39.92,-140.32,0.2040000000000001,-0.42800000000000005,-0.946,18.22600000000002,-41.61600000000002,-224.76800000000003
2026-07-21 03:20:54.916,0.17,-0.39,-0.99,0.31,-30.58,-47.3,0.2060000000000001,-0.4,-0.95,8.82800000000002,-38.40600000000002,-169.48200000000003
2026-07-21 03:20:54.917,0.19,-0.41,-0.97,-15.26,-5.49,45.1,0.2000000000000001,-0.384,-0.954,0.7100000000000201,-31.068000000000023,-101.96600000000001
2026-07-21 03:20:54.979,0.19,-0.41,-0.95,-40.47,19.65,151.06,0.1900000000000001,-0.386,-0.962,-9.29999999999998,-19.252000000000024,-26.356000000000016
2026-07-21 03:20:55.039,0.12,-0.42,-0.95,-62.26,29.24,291.02,0.1740000000000001,-0.398,-0.962,-22.64399999999998,-5.420000000000024,59.91199999999998
2026-07-21 03:20:55.216,-0.17,-0.53,-0.88,-57.62,47.79,597.05,0.10000000000000009,-0.43200000000000005,-0.9480000000000001,-35.05999999999998,12.121999999999977,207.38599999999997
2026-07-21 03:20:55.220,-0.24,-0.56,-0.8,-38.51,74.1,690.19,0.01800000000000009,-0.466,-0.9099999999999999,-42.82399999999998,33.05799999999998,354.88399999999996
2026-07-21 03:20:55.457,-0.11,-0.55,-0.85,74.28,115.54,590.7,-0.04199999999999991,-0.49400000000000005,-0.8859999999999999,-24.91599999999998,57.263999999999974,464.004
2026-07-21 03:20:55.458,-0.06,-0.64,-0.91,103.27,107.79,496.4,-0.09199999999999992,-0.54,-0.8780000000000001,3.8320000000000194,74.89199999999997,533.072
2026-07-21 03:20:55.459,0.04,-0.68,-0.94,94.91,98.02,403.69,-0.10799999999999992,-0.592,-0.876,35.26600000000002,88.64799999999998,555.606
2026-07-21 03:20:55.460,0.11,-0.41,-0.94,10.07,42.18,225.16,-0.051999999999999914,-0.568,-0.8879999999999999,48.804000000000016,87.52599999999998,481.22799999999995
2026-07-21 03:20:55.461,0.02,-0.28,-0.95,-19.9,9.09,147.95,9.089951014118469e-17,-0.5120000000000001,-0.9179999999999999,52.526000000000025,74.52399999999997,372.78
2026-07-21 03:20:55.516,-0.09,-0.22,-0.98,-31.92,-11.72,82.28,0.004000000000000092,-0.446,-0.944,31.28600000000002,49.07199999999998,271.09599999999995
2026-07-21 03:20:55.517,-0.13,-0.23,-1.0,-28.87,-16.85,21.06,-0.009999999999999908,-0.364,-0.962,4.858000000000019,24.143999999999977,176.02799999999996
2026-07-21 03:20:55.756,-0.1,-0.27,-0.99,-19.96,-12.57,-40.83,-0.03799999999999991,-0.28200000000000003,-0.9719999999999999,-18.11599999999998,2.0259999999999763,87.12399999999998
2026-07-21 03:20:55.757,-0.1,-0.31,-0.96,-20.14,-14.89,-102.05,-0.07999999999999992,-0.262,-0.976,-24.15799999999998,-9.388000000000023,21.681999999999977
2026-07-21 03:20:55.759,-0.2,-0.33,-0.95,-41.08,-50.35,-195.07,-0.12399999999999992,-0.272,-0.976,-28.393999999999984,-21.27600000000002,-46.92200000000002
2026-07-21 03:20:55.760,-0.21,-0.35,-0.93,-41.26,-72.27,-236.15,-0.1479999999999999,-0.29800000000000004,-0.966,-30.26199999999998,-33.386000000000024,-110.60800000000002
2026-07-21 03:20:55.766,-0.21,-0.35,-0.93,-41.26,-72.27,-236.15,-0.1639999999999999,-0.322,-0.952,-32.73999999999998,-44.47000000000003,-162.05
2026-07-21 03:20:55.935,-0.27,-0.39,-0.89,-38.57,-91.92,-292.91,-0.1979999999999999,-0.346,-0.932,-36.461999999999975,-60.34000000000003,-212.46600000000004
2026-07-21 03:20:55.937,-0.36,-0.43,-0.86,-44.01,-95.64,-358.28,-0.24999999999999992,-0.37,-0.9120000000000001,-41.235999999999976,-76.49000000000004,-263.71200000000005
2026-07-21 03:20:55.938,-0.33,-0.33,-0.9,-65.31,-51.21,-425.35,-0.2759999999999999,-0.37,-0.9019999999999999,-46.08199999999998,-76.66200000000002,-309.76800000000003
2026-07-21 03:20:55.940,-0.26,-0.24,-0.94,-59.33,-36.07,-413.02,-0.2859999999999999,-0.348,-0.9040000000000001,-49.695999999999984,-69.42200000000001,-345.142
2026-07-21 03:20:56.124,-0.21,-0.16,-0.97,-39.12,-34.91,-376.71,-0.2859999999999999,-0.31,-0.9119999999999999,-49.26799999999998,-61.950000000000024,-373.254
2026-07-21 03:20:56.125,-0.2,-0.13,-0.98,-11.41,-36.99,-319.03,-0.2719999999999999,-0.258,-0.9299999999999999,-43.83599999999998,-50.96400000000002,-378.478
2026-07-21 03:20:56.126,-0.21,-0.13,-0.98,10.8,-31.56,-240.3,-0.2419999999999999,-0.198,-0.954,-32.87399999999998,-38.148000000000025,-354.88200000000006
2026-07-21 03:20:56.175,-0.19,-0.14,-0.97,17.82,-14.89,-154.42,-0.21399999999999988,-0.16,-0.968,-16.24799999999998,-30.884000000000025,-300.696
2026-07-21 03:20:56.186,-0.19,-0.14,-0.97,17.82,-14.89,-154.42,-0.1999999999999999,-0.14,-0.974,-0.8179999999999794,-26.648000000000025,-248.97600000000003
2026-07-21 03:20:56.476,-0.08,-0.12,-0.98,-18.55,45.78,-59.94,-0.1739999999999999,-0.132,-0.976,3.29600000000002,-10.510000000000023,-185.622
2026-07-21 03:20:56.478,-0.07,-0.08,-0.94,-1.46,73.79,-75.68,-0.1479999999999999,-0.122,-0.968,5.28600000000002,11.64599999999998,-136.95200000000006
2026-07-21 03:20:56.479,-0.01,-0.06,-0.91,9.7,81.97,-68.73,-0.10799999999999992,-0.10800000000000001,-0.954,5.066000000000019,34.351999999999975,-102.638
2026-07-21 03:20:56.480,0.4,-0.09,-0.87,18.55,114.69,-55.73,0.010000000000000087,-0.098,-0.9339999999999999,5.212000000000019,60.26799999999999,-82.90000000000002
2026-07-21 03:20:56.481,0.66,-0.11,-0.85,18.68,120.48,-59.14,0.1800000000000001,-0.092,-0.9099999999999999,5.38400000000002,87.34199999999998,-63.84400000000003
2026-07-21 03:20:56.482,0.82,-0.11,-0.8,17.64,98.69,-57.37,0.36000000000000004,-0.09,-0.874,12.62200000000002,97.92399999999998,-63.33000000000002
2026-07-21 03:20:56.655,0.82,-0.11,-0.8,17.64,98.69,-57.37,0.538,-0.096,-0.8460000000000001,16.442000000000018,102.90399999999997,-59.66800000000002
2026-07-21 03:20:56.656,0.82,-0.15,-0.73,20.39,16.17,-29.6,0.704,-0.11400000000000002,-0.8099999999999999,18.58000000000002,89.74399999999997,-51.84200000000002
2026-07-21 03:20:56.657,0.82,-0.15,-0.73,20.39,16.17,-29.6,0.788,-0.126,-0.782,18.94800000000002,70.03999999999998,-46.61600000000002
2026-07-21 03:20:56.659,0.81,-0.21,-0.73,18.13,-0.55,-23.74,0.818,-0.146,-0.758,18.83800000000002,45.833999999999975,-39.53600000000002
2026-07-21 03:20:56.898,0.86,-0.28,-0.71,3.05,4.88,-23.74,0.826,-0.18,-0.74,15.92000000000002,27.07199999999998,-32.810000000000024
2026-07-21 03:20:56.899,0.78,-0.21,-0.68,-14.28,-17.82,8.42,0.8180000000000002,-0.2,-0.716,9.53600000000002,3.7699999999999774,-19.652000000000022
2026-07-21 03:20:56.900,0.68,-0.23,-0.74,-8.54,-26.0,35.52,0.7900000000000001,-0.21600000000000003,-0.718,3.75000000000002,-4.664000000000023,-6.628000000000021
2026-07-21 03:20:56.901,0.69,-0.28,-0.77,0.92,-18.19,39.55,0.7640000000000001,-0.242,-0.726,-0.1439999999999802,-11.536000000000024,7.201999999999979
2026-07-21 03:20:56.957,0.7,-0.32,-0.79,3.91,-14.53,41.02,0.7420000000000002,-0.264,-0.738,-2.9879999999999796,-14.332000000000026,20.15399999999998
2026-07-21 03:20:57.015,0.67,-0.33,-0.82,-2.38,-19.04,40.28,0.7040000000000001,-0.274,-0.76,-4.073999999999979,-19.11600000000002,32.957999999999984
2026-07-21 03:20:57.016,0.63,-0.3,-0.87,-13.49,-27.95,37.66,0.6740000000000002,-0.292,-0.7979999999999999,-3.91599999999998,-21.14200000000002,38.805999999999976
2026-07-21 03:20:57.136,0.56,-0.26,-0.93,-23.01,-38.09,33.69,0.6500000000000001,-0.29800000000000004,-0.836,-6.809999999999979,-23.560000000000024,38.439999999999976
2026-07-21 03:20:57.137,0.56,-0.26,-0.93,-23.01,-38.09,33.69,0.6240000000000001,-0.29400000000000004,-0.868,-11.59599999999998,-27.54000000000002,37.26799999999998
2026-07-21 03:20:57.143,0.4,-0.19,-1.0,-18.98,-54.38,24.84,0.5640000000000002,-0.268,-0.9100000000000001,-16.17399999999998,-35.510000000000026,34.031999999999975
2026-07-21 03:20:57.144,0.4,-0.19,-1.0,-18.98,-54.38,24.84,0.5100000000000001,-0.24,-0.9460000000000001,-19.493999999999982,-42.578000000000024,30.94399999999997
2026-07-21 03:20:57.195,0.3,-0.17,-0.91,-9.64,-58.29,21.97,0.4440000000000001,-0.21400000000000002,-0.9540000000000001,-18.72399999999998,-48.64600000000003,27.805999999999973
2026-07-21 03:20:57.196,0.3,-0.17,-0.91,-9.64,-58.29,21.97,0.39200000000000007,-0.196,-0.95,-16.049999999999983,-52.68600000000002,25.461999999999975
2026-07-21 03:20:57.495,0.21,-0.16,-0.77,-1.59,-59.57,22.89,0.3220000000000001,-0.176,-0.9179999999999999,-11.76599999999998,-56.98200000000003,23.30199999999998
2026-07-21 03:20:57.497,-0.03,-0.18,-0.57,-4.46,-68.6,27.77,0.23600000000000007,-0.174,-0.8320000000000001,-8.86199999999998,-59.82600000000002,23.887999999999977
2026-07-21 03:20:57.498,-0.33,-0.26,-0.8,-15.81,-64.21,22.4,0.09000000000000008,-0.188,-0.792,-8.22799999999998,-61.792000000000016,23.399999999999977
2026-07-21 03:20:57.499,-0.33,-0.26,-0.8,-15.81,-64.21,22.4,-0.03599999999999992,-0.20600000000000002,-0.77,-9.46199999999998,-62.97600000000002,23.485999999999976
2026-07-21 03:20:57.500,-0.39,-0.31,-1.04,-20.26,-50.05,15.08,-0.17399999999999993,-0.23400000000000004,-0.796,-11.58599999999998,-61.32800000000002,22.107999999999976
2026-07-21 03:20:57.501,-0.36,-0.36,-1.25,-4.7,-22.4,4.21,-0.2879999999999999,-0.27399999999999997,-0.8920000000000001,-12.20799999999998,-53.89400000000002,18.37199999999998
2026-07-21 03:20:57.504,-0.26,-0.35,-1.34,-4.7,-22.4,4.21,-0.3339999999999999,-0.308,-1.046,-12.25599999999998,-44.65400000000002,13.659999999999977
