Timestamp,AccX,AccY,AccZ,GyroX,GyroY,GyroZ,AccX_smooth,AccY_smooth,AccZ_smooth,GyroX_smooth,GyroY_smooth,GyroZ_smooth
2026-07-22 23:49:40.130,0.19,-0.56,0.5,219.54,-106.81,-167.05,0.19,-0.56,0.5,219.54,-106.81,-167.05
2026-07-22 23:49:40.173,0.13,-0.54,0.42,159.18,-141.54,129.82,0.16,-0.55,0.45999999999999996,189.36,-124.175,-18.61500000000001
2026-07-22 23:49:40.181,0.13,-0.54,0.42,159.18,-141.54,129.82,0.15,-0.5466666666666667,0.4466666666666666,179.29999999999998,-129.96333333333334,30.863333333333326
2026-07-22 23:49:40.211,0.1,-0.39,0.26,178.04,-151.18,192.69,0.1375,-0.5075000000000001,0.4,178.985,-135.26749999999998,71.32
2026-07-22 23:49:40.242,0.19,-0.25,0.3,219.24,-103.27,70.68,0.148,-0.45600000000000007,0.38,187.036,-128.868,71.192
2026-07-22 23:49:40.257,0.19,-0.25,0.3,219.24,-103.27,70.68,0.14800000000000002,-0.394,0.33999999999999997,186.97600000000003,-128.16,118.73800000000001
2026-07-22 23:49:40.277,0.43,-0.54,0.64,136.96,-68.42,-85.51,0.20800000000000002,-0.394,0.384,182.53199999999998,-113.53599999999999,75.672
2026-07-22 23:49:40.317,0.43,-0.54,0.64,136.96,-68.42,-85.51,0.26799999999999996,-0.394,0.42800000000000005,178.08800000000002,-98.912,32.606
2026-07-22 23:49:40.326,0.69,-1.15,0.92,-85.82,-58.72,-175.6,0.386,-0.546,0.5599999999999999,125.31600000000003,-80.42,-41.052
2026-07-22 23:49:40.399,0.55,-1.5,1.06,-164.67,45.9,-129.21,0.458,-0.796,0.712,48.534000000000006,-50.586,-81.03
2026-07-22 23:49:40.414,0.17,-1.26,1.42,33.14,153.69,-30.21,0.454,-0.998,0.9359999999999999,11.314000000000007,0.8060000000000003,-101.208
2026-07-22 23:49:40.430,0.17,-1.26,1.42,33.14,153.69,-30.21,0.40199999999999997,-1.142,1.092,-9.449999999999994,45.227999999999994,-90.148
2026-07-22 23:49:40.451,0.04,-0.88,1.67,167.18,109.56,8.18,0.324,-1.21,1.298,-3.4059999999999944,80.824,-71.41
2026-07-22 23:49:40.480,0.03,-0.98,1.69,52.12,30.7,35.52,0.192,-1.1760000000000002,1.452,24.182000000000006,98.708,-29.186
2026-07-22 23:49:40.496,0.03,-0.98,1.69,52.12,30.7,35.52,0.088,-1.072,1.5779999999999998,67.54,95.66799999999999,3.7600000000000007
2026-07-22 23:49:40.548,-0.01,-1.25,1.83,-57.98,30.58,106.69,0.05200000000000001,-1.0699999999999998,1.6600000000000001,49.315999999999995,71.046,31.139999999999997
2026-07-22 23:49:40.574,0.24,-1.07,2.0,-3.97,70.86,228.27,0.06599999999999999,-1.032,1.7759999999999998,41.894,54.48,82.83600000000001
2026-07-22 23:49:40.620,0.77,-0.39,1.92,60.3,133.79,349.3,0.21200000000000002,-0.9339999999999999,1.8259999999999998,20.518,59.326,151.06
2026-07-22 23:49:40.646,1.09,0.35,1.46,33.87,242.55,391.24,0.42400000000000004,-0.6679999999999999,1.78,16.868000000000002,101.696,222.204
2026-07-22 23:49:40.653,1.09,0.35,1.46,33.87,242.55,391.24,0.6360000000000001,-0.402,1.734,13.218,144.066,293.348
2026-07-22 23:49:40.693,1.0,0.78,0.82,1.65,343.14,323.97,0.8380000000000001,0.003999999999999981,1.532,25.144,206.57799999999997,336.804
2026-07-22 23:49:40.719,1.0,0.78,0.82,1.65,343.14,323.97,0.99,0.374,1.2959999999999998,26.268,261.034,355.944
2026-07-22 23:49:40.721,1.0,0.78,0.82,1.65,343.14,323.97,1.036,0.608,1.076,14.537999999999997,302.904,350.87800000000004
2026-07-22 23:49:40.746,1.0,0.78,0.82,1.65,343.14,323.97,1.018,0.6940000000000001,0.9480000000000001,8.094,323.02200000000005,337.42400000000004
2026-07-22 23:49:40.760,0.37,0.67,-0.13,31.56,386.41,1.46,0.874,0.758,0.63,7.632,351.794,259.468
2026-07-22 23:49:40.805,0.15,0.31,-0.3,24.41,341.8,-150.39,0.704,0.664,0.40599999999999997,12.184000000000001,351.526,164.59600000000003
2026-07-22 23:49:40.826,0.15,0.31,-0.3,24.41,341.8,-150.39,0.534,0.5700000000000001,0.182,16.736,351.25800000000004,69.72400000000002
2026-07-22 23:49:40.843,0.02,-0.14,-0.34,32.59,251.83,-232.54,0.33799999999999997,0.386,-0.05000000000000001,22.924,332.996,-41.57799999999999
2026-07-22 23:49:40.872,0.02,-0.14,-0.34,32.59,251.83,-232.54,0.142,0.202,-0.28200000000000003,29.112000000000002,314.73400000000004,-152.87999999999997
2026-07-22 23:49:40.895,-0.07,-0.63,-0.41,117.74,133.54,-241.88,0.054000000000000006,-0.05799999999999998,-0.33799999999999997,46.348,264.16,-201.54799999999997
2026-07-22 23:49:40.919,-0.17,-1.03,-0.54,206.97,21.79,-218.87,-0.010000000000000004,-0.32599999999999996,-0.386,82.86,200.15800000000002,-215.244
2026-07-22 23:49:40.947,-0.17,-1.03,-0.54,206.97,21.79,-218.87,-0.074,-0.594,-0.434,119.372,136.156,-228.94
2026-07-22 23:49:40.976,-0.24,-1.21,-0.58,190.25,-59.14,-191.89,-0.126,-0.808,-0.48200000000000004,150.904,73.96200000000002,-220.81
2026-07-22 23:49:40.993,-0.24,-1.21,-0.58,190.25,-59.14,-191.89,-0.178,-1.022,-0.53,182.436,11.767999999999997,-212.68
2026-07-22 23:49:41.020,-0.23,-1.14,-0.42,99.61,-102.05,-154.11,-0.21000000000000002,-1.124,-0.532,178.81,-35.35,-195.126
2026-07-22 23:49:41.036,-0.2,-1.05,-0.04,18.13,-123.54,-114.56,-0.21600000000000003,-1.128,-0.43200000000000005,141.042,-64.416,-174.264
2026-07-22 23:49:41.062,-0.2,-1.05,-0.04,18.13,-123.54,-114.56,-0.22200000000000003,-1.1320000000000001,-0.33199999999999996,103.274,-93.482,-153.402
2026-07-22 23:49:41.095,-0.19,-1.06,0.33,-24.6,-137.27,-88.93,-0.21200000000000002,-1.1019999999999999,-0.15,60.303999999999995,-109.10799999999999,-132.81
2026-07-22 23:49:41.110,-0.19,-1.06,0.33,-24.6,-137.27,-88.93,-0.202,-1.0719999999999998,0.03200000000000001,17.333999999999996,-124.73400000000001,-112.218
2026-07-22 23:49:41.141,-0.15,-1.11,0.46,-18.31,-142.58,-74.89,-0.186,-1.066,0.20800000000000002,-6.250000000000001,-132.84,-96.37400000000001
2026-07-22 23:49:41.156,-0.11,-1.21,0.44,41.38,-153.38,-69.15,-0.16799999999999998,-1.098,0.304,-1.6,-138.808,-87.292
2026-07-22 23:49:41.186,-0.11,-1.21,0.44,41.38,-153.38,-69.15,-0.15,-1.13,0.4,3.0500000000000007,-144.776,-78.21000000000001
2026-07-22 23:49:41.224,-0.04,-1.26,0.44,101.26,-170.35,-56.34,-0.12,-1.17,0.42200000000000004,28.222,-151.392,-71.692
2026-07-22 23:49:41.236,-0.04,-1.26,0.44,101.26,-170.35,-56.34,-0.09,-1.21,0.44400000000000006,53.394000000000005,-158.008,-65.174
2026-07-22 23:49:41.262,0.01,-1.31,0.47,97.41,-164.25,-27.59,-0.05800000000000001,-1.25,0.446,76.538,-162.342,-55.714
2026-07-22 23:49:41.277,0.02,-1.38,0.46,25.82,-127.14,2.08,-0.031999999999999994,-1.284,0.45,73.426,-157.094,-41.468
2026-07-22 23:49:41.308,0.02,-1.38,0.46,25.82,-127.14,2.08,-0.006,-1.318,0.454,70.31400000000001,-151.846,-27.221999999999998
2026-07-22 23:49:41.352,0.03,-1.34,0.47,-36.07,-104.31,19.17,0.007999999999999998,-1.334,0.45999999999999996,42.848,-138.638,-12.120000000000001
2026-07-22 23:49:41.397,0.03,-1.34,0.47,-36.07,-104.31,19.17,0.022,-1.35,0.466,15.382,-125.42999999999999,2.9820000000000007
2026-07-22 23:49:41.413,0.04,-1.25,0.47,-45.84,-108.15,22.89,0.028000000000000004,-1.338,0.466,-13.268,-114.21,13.078
2026-07-22 23:49:41.469,0.17,-1.17,0.5,-14.77,-124.76,3.72,0.05800000000000001,-1.296,0.47400000000000003,-21.386,-113.734,13.406
2026-07-22 23:49:41.531,0.23,-1.24,0.5,-49.32,-94.48,-1.4,0.1,-1.268,0.48199999999999993,-36.414,-107.202,12.71
2026-07-22 23:49:41.533,0.23,-1.24,0.5,-49.32,-94.48,-1.4,0.14,-1.248,0.488,-39.06400000000001,-105.23600000000002,8.596
2026-07-22 23:49:41.586,0.29,-1.42,0.43,-117.61,-70.98,-1.95,0.192,-1.2639999999999998,0.48,-55.372,-98.57000000000001,4.372
2026-07-22 23:49:41.660,0.3,-1.4,0.47,-83.25,-113.04,19.41,0.244,-1.294,0.48,-62.854,-99.54800000000002,3.6759999999999997
2026-07-22 23:49:41.711,0.26,-1.11,0.54,-20.81,-121.22,84.96,0.262,-1.282,0.488,-64.06199999999998,-98.84,19.924
2026-07-22 23:49:41.770,0.17,-0.98,0.56,-11.84,-97.72,99.67,0.25,-1.23,0.5,-56.565999999999995,-99.48800000000001,40.138
2026-07-22 23:49:41.841,0.08,-0.93,0.56,-2.99,-80.02,97.47,0.22000000000000003,-1.168,0.512,-47.3,-96.596,59.912
2026-07-22 23:49:41.891,-0.07,-0.79,0.43,-35.89,-22.64,91.67,0.148,-1.042,0.512,-30.956,-86.928,78.636
2026-07-22 23:49:41.892,-0.07,-0.79,0.43,-35.89,-22.64,91.67,0.07399999999999998,-0.9199999999999999,0.504,-21.484,-68.848,93.088
2026-07-22 23:49:41.957,-0.15,-0.77,0.35,-42.36,1.83,82.09,-0.008000000000000007,-0.852,0.466,-25.794,-44.238,92.514
2026-07-22 23:49:42.014,-0.27,-0.77,0.17,6.9,24.66,75.44,-0.09600000000000002,-0.8099999999999999,0.388,-22.046,-19.762,87.66799999999999
2026-07-22 23:49:42.062,-0.32,-0.74,0.12,10.56,26.49,66.65,-0.17600000000000002,-0.772,0.3,-19.336000000000002,1.5399999999999998,81.50399999999999
2026-07-22 23:49:42.133,-0.38,-0.7,0.14,3.54,27.28,54.99,-0.23800000000000004,-0.754,0.242,-11.45,11.524000000000001,74.16799999999999
2026-07-22 23:49:42.134,-0.38,-0.7,0.14,18.13,31.19,53.04,-0.3,-0.736,0.184,-0.6460000000000001,22.29,66.442
2026-07-22 23:49:42.195,-0.41,-0.68,0.15,18.13,31.19,53.04,-0.35200000000000004,-0.718,0.144,11.451999999999998,28.162,60.632000000000005
2026-07-22 23:49:42.258,-0.49,-0.63,-0.01,26.73,63.23,44.43,-0.396,-0.69,0.10800000000000001,15.418000000000001,35.876,54.42999999999999
2026-07-22 23:49:42.311,-0.52,-0.64,-0.05,16.05,69.7,36.38,-0.43600000000000005,-0.67,0.074,16.516,44.518,48.376
2026-07-22 23:49:42.313,-0.55,-0.69,-0.08,11.35,64.64,25.02,-0.47000000000000003,-0.6679999999999999,0.03,18.077999999999996,51.989999999999995,42.382
2026-07-22 23:49:42.363,-0.58,-0.72,-0.09,12.02,54.75,16.36,-0.51,-0.672,-0.016000000000000004,16.855999999999998,56.702,35.046
2026-07-22 23:49:42.427,-0.59,-0.73,-0.04,11.66,43.7,12.7,-0.546,-0.682,-0.054000000000000006,15.562000000000001,59.20399999999999,26.978
2026-07-22 23:49:42.493,-0.57,-0.84,-0.0,11.35,43.64,7.39,-0.562,-0.724,-0.052000000000000005,12.485999999999999,55.286,19.57
2026-07-22 23:49:42.546,-0.57,-0.83,-0.05,18.31,51.15,15.08,-0.572,-0.7619999999999999,-0.052000000000000005,12.937999999999999,51.576,15.309999999999999
2026-07-22 23:49:42.611,-0.57,-0.75,-0.13,26.18,56.21,26.37,-0.576,-0.774,-0.062,15.904,49.89,15.580000000000002
2026-07-22 23:49:42.670,-0.57,-0.73,-0.22,9.46,46.75,15.44,-0.5740000000000001,-0.776,-0.088,15.392,48.29,15.396
2026-07-22 23:49:42.738,-0.53,-0.78,-0.3,-5.31,41.08,11.54,-0.562,-0.7859999999999999,-0.13999999999999999,11.998000000000001,47.766,15.163999999999998
2026-07-22 23:49:42.781,-0.53,-0.78,-0.3,-5.31,41.08,11.54,-0.554,-0.774,-0.2,8.666,47.254000000000005,15.994
2026-07-22 23:49:42.791,-0.54,-0.74,-0.39,-10.5,46.14,19.9,-0.548,-0.756,-0.26799999999999996,2.9039999999999995,46.251999999999995,16.958
2026-07-22 23:49:42.858,-0.6,-0.71,-0.49,-63.78,66.28,52.73,-0.554,-0.748,-0.34,-15.088,48.266,22.229999999999997
2026-07-22 23:49:42.918,-0.61,-0.62,-0.55,-122.99,82.95,106.51,-0.562,-0.726,-0.40599999999999997,-41.578,55.50599999999999,40.444
2026-07-22 23:49:42.974,-0.6,-0.21,-0.61,-168.58,63.9,317.87,-0.576,-0.612,-0.46799999999999997,-74.232,60.07000000000001,101.71000000000001
2026-07-22 23:49:43.039,-0.64,0.16,-0.59,-165.41,37.9,467.83,-0.598,-0.42400000000000004,-0.526,-106.252,59.43399999999999,192.968
2026-07-22 23:49:43.090,-0.45,0.84,-0.23,-147.46,-48.95,404.3,-0.5800000000000001,-0.10800000000000001,-0.49400000000000005,-133.644,40.416,269.848
2026-07-22 23:49:43.145,-0.32,0.85,-0.2,-113.83,-69.09,255.07,-0.524,0.20400000000000001,-0.43599999999999994,-143.65400000000002,13.342000000000002,310.316
2026-07-22 23:49:43.216,-0.03,0.86,-0.33,-15.93,9.95,166.02,-0.40800000000000003,0.5,-0.392,-122.242,-1.258000000000002,322.21799999999996
2026-07-22 23:49:43.268,-0.03,0.86,-0.33,-15.93,9.95,166.02,-0.29400000000000004,0.714,-0.33599999999999997,-91.712,-12.048000000000002,291.84799999999996
2026-07-22 23:49:43.329,0.06,0.86,-0.31,30.76,46.69,148.56,-0.15400000000000003,0.8539999999999999,-0.27999999999999997,-52.477999999999994,-10.290000000000001,227.994
2026-07-22 23:49:43.378,0.35,0.77,-0.36,79.59,73.97,154.17,0.005999999999999972,0.8400000000000001,-0.30599999999999994,-7.067999999999998,14.294,177.96800000000002
2026-07-22 23:49:43.451,0.64,0.64,-0.44,117.0,136.78,135.62,0.19799999999999998,0.7979999999999999,-0.354,39.098,55.468,154.078
2026-07-22 23:49:43.505,0.73,0.55,-0.47,134.83,154.24,130.55,0.35,0.736,-0.382,69.25,84.326,146.98399999999998
2026-07-22 23:49:43.511,0.82,0.44,-0.41,160.89,209.35,131.16,0.5199999999999999,0.652,-0.398,104.614,124.20599999999999,140.012
2026-07-22 23:49:43.569,0.95,0.33,-0.36,183.72,239.26,129.7,0.698,0.546,-0.40800000000000003,135.206,162.71999999999997,136.24
2026-07-22 23:49:43.645,1.0,0.21,-0.41,174.19,160.71,129.15,0.828,0.434,-0.418,154.126,180.06799999999998,131.236
2026-07-22 23:49:43.682,0.88,0.14,-0.41,113.46,33.02,115.66,0.876,0.33399999999999996,-0.4119999999999999,153.418,159.31599999999997,127.244
2026-07-22 23:49:43.745,0.84,0.03,-0.31,-0.24,-8.18,110.11,0.898,0.23000000000000004,-0.38,126.404,126.832,123.15599999999999
2026-07-22 23:49:43.816,0.98,-0.09,-0.33,-0.73,12.21,131.41,0.9299999999999999,0.124,-0.364,94.08,87.404,123.20599999999999
2026-07-22 23:49:43.930,0.96,-0.27,-0.37,-15.5,-14.89,106.51,0.932,0.0040000000000000036,-0.366,54.236000000000004,36.574,118.56800000000001
2026-07-22 23:49:43.995,0.78,-0.42,-0.19,26.37,42.79,99.73,0.8879999999999999,-0.122,-0.32199999999999995,24.671999999999997,12.99,112.68400000000001
2026-07-22 23:49:44.045,0.77,-0.49,-0.25,0.85,6.23,85.33,0.866,-0.248,-0.29,2.1499999999999995,7.632,106.61800000000001
2026-07-22 23:49:44.113,0.84,-0.46,-0.41,-122.07,-35.46,-13.67,0.866,-0.346,-0.30999999999999994,-22.216,2.1760000000000006,81.862
2026-07-22 23:49:44.142,0.84,-0.46,-0.41,-122.07,-35.46,-13.67,0.8379999999999999,-0.42000000000000004,-0.32599999999999996,-46.483999999999995,-7.358,52.846000000000004
2026-07-22 23:49:44.176,0.82,-0.41,-0.44,-119.93,-70.25,-27.89,0.8099999999999999,-0.44799999999999995,-0.33999999999999997,-67.37,-18.43,25.966
2026-07-22 23:49:44.184,0.8,-0.35,-0.49,-97.78,-108.89,-27.71,0.8140000000000001,-0.434,-0.4,-92.2,-48.766,0.4779999999999994
2026-07-22 23:49:44.232,0.8,-0.35,-0.49,-97.78,-108.89,-27.71,0.82,-0.40599999999999997,-0.44800000000000006,-111.926,-71.79,-22.130000000000003
2026-07-22 23:49:44.280,0.67,-0.18,-0.71,-60.49,-83.19,0.73,0.786,-0.35,-0.508,-99.60999999999999,-81.33599999999998,-19.25
2026-07-22 23:49:44.350,0.59,-0.28,-0.84,-31.92,-96.19,112.98,0.736,-0.314,-0.5940000000000001,-81.58000000000001,-93.482,6.080000000000001
2026-07-22 23:49:44.416,0.52,-0.39,-0.93,-109.92,-135.8,132.02,0.6759999999999999,-0.30999999999999994,-0.692,-79.578,-106.59200000000001,38.062
2026-07-22 23:49:44.469,0.25,-0.32,-1.08,-156.13,-127.56,81.67,0.5660000000000001,-0.304,-0.8099999999999999,-91.248,-110.326,59.93800000000001
2026-07-22 23:49:44.532,0.11,-0.14,-1.11,-208.13,-135.5,-44.31,0.42799999999999994,-0.262,-0.9339999999999999,-113.31800000000001,-115.648,56.61800000000001
2026-07-22 23:49:44.583,0.05,0.34,-1.12,-260.62,-134.46,-266.3,0.30399999999999994,-0.158,-1.016,-153.344,-125.902,3.2120000000000117
2026-07-22 23:49:44.592,0.05,0.34,-1.12,-260.62,-134.46,-266.3,0.19599999999999998,-0.03399999999999999,-1.072,-199.084,-133.556,-72.64399999999999
2026-07-22 23:49:44.594,-0.11,0.41,-0.95,-197.75,-36.99,-220.34,0.06999999999999998,0.12600000000000003,-1.076,-216.65,-113.79400000000001,-143.116
2026-07-22 23:49:44.652,-0.11,0.41,-0.95,-197.75,-36.99,-220.34,-0.0020000000000000213,0.272,-1.05,-224.974,-95.68,-203.51799999999997
2026-07-22 23:49:44.707,-0.15,0.48,-0.74,-94.42,-38.02,-138.98,-0.05400000000000003,0.396,-0.976,-202.232,-76.184,-222.452
2026-07-22 23:49:44.772,-0.22,0.46,-0.68,-77.88,-17.09,-108.4,-0.10800000000000001,0.42000000000000004,-0.8880000000000001,-165.684,-52.71,-190.87199999999999
2026-07-22 23:49:44.832,-0.32,0.49,-0.67,-6.96,22.71,-60.79,-0.18200000000000002,0.45,-0.798,-114.952,-21.276000000000003,-149.77
2026-07-22 23:49:44.881,-0.39,0.58,-0.79,55.3,4.21,-14.16,-0.23800000000000004,0.484,-0.766,-64.342,-13.036000000000001,-108.53399999999999
2026-07-22 23:49:44.951,-0.29,0.46,-0.88,132.32,-18.19,67.26,-0.274,0.49400000000000005,-0.752,1.671999999999997,-9.276,-51.01399999999999
2026-07-22 23:49:45.020,-0.22,0.2,-0.91,234.74,8.91,107.48,-0.28800000000000003,0.438,-0.7860000000000001,67.50399999999999,0.11000000000000014,-1.7219999999999884
2026-07-22 23:49:45.066,-0.26,-0.35,-0.93,298.58,-63.9,48.95,-0.29600000000000004,0.276,-0.8360000000000001,142.796,-9.251999999999999,29.74800000000001
2026-07-22 23:49:45.072,-0.26,-0.35,-0.93,298.58,-63.9,48.95,-0.28400000000000003,0.10800000000000003,-0.8880000000000001,203.904,-26.574,51.69600000000001
2026-07-22 23:49:45.130,-0.26,-0.35,-0.93,298.58,-63.9,48.95,-0.25800000000000006,-0.07799999999999996,-0.916,252.56,-40.196000000000005,64.31800000000001
2026-07-22 23:49:45.132,-0.26,-0.35,-0.93,298.58,-63.9,48.95,-0.25200000000000006,-0.23999999999999994,-0.9259999999999999,285.812,-49.338,60.65600000000002
2026-07-22 23:49:45.182,-0.64,-0.33,-0.92,47.79,-31.07,65.43,-0.336,-0.346,-0.9279999999999999,248.42199999999997,-57.334,52.246000000000016
2026-07-22 23:49:45.261,-0.71,-0.15,-0.89,-60.79,33.33,105.65,-0.426,-0.306,-0.9200000000000002,176.54799999999997,-37.888,63.58600000000001
2026-07-22 23:49:45.308,-0.47,0.13,-0.97,-342.29,80.14,126.95,-0.4680000000000001,-0.20999999999999996,-0.9280000000000002,48.37399999999997,-9.079999999999998,79.186
2026-07-22 23:49:45.371,-0.38,0.37,-0.83,-410.28,73.97,127.99,-0.492,-0.06599999999999998,-0.908,-93.39800000000001,18.494,94.994
2026-07-22 23:49:45.372,-0.28,0.6,-0.62,-411.87,59.14,156.37,-0.4960000000000001,0.12400000000000003,-0.8460000000000001,-235.488,43.102,116.47800000000002
2026-07-22 23:49:45.432,-0.28,0.6,-0.62,-411.87,59.14,156.37,-0.42400000000000004,0.31000000000000005,-0.7859999999999999,-327.41999999999996,61.144000000000005,134.66600000000003
2026-07-22 23:49:45.482,0.09,0.67,-0.12,-334.41,11.9,186.89,-0.264,0.47400000000000003,-0.632,-382.144,56.858000000000004,150.914
2026-07-22 23:49:45.551,0.24,0.68,0.11,-284.97,0.24,152.22,-0.12200000000000004,0.5840000000000001,-0.41600000000000004,-370.68,40.878,155.96800000000002
2026-07-22 23:49:45.623,0.31,0.87,0.42,-210.45,4.88,78.98,0.01599999999999997,0.6839999999999999,-0.16599999999999998,-330.71400000000006,27.060000000000002,146.166
2026-07-22 23:49:45.672,0.34,0.78,0.52,-185.61,5.43,71.59,0.13999999999999999,0.72,0.06200000000000001,-285.462,16.318,129.21
2026-07-22 23:49:45.723,0.33,0.6,0.75,-131.77,21.79,44.8,0.262,0.72,0.336,-229.44200000000006,8.847999999999999,106.896
2026-07-22 23:49:45.799,0.34,0.55,0.7,-111.33,23.56,37.29,0.31199999999999994,0.696,0.5,-184.82600000000002,11.18,76.97600000000001
2026-07-22 23:49:45.846,0.36,0.51,0.69,-106.81,16.54,43.88,0.33599999999999997,0.662,0.6159999999999999,-149.19400000000002,14.439999999999998,55.308000000000014
2026-07-22 23:49:45.921,0.41,0.39,0.86,-174.62,50.96,31.86,0.356,0.5660000000000001,0.704,-142.02800000000002,23.656,45.88400000000001
2026-07-22 23:49:45.927,0.27,0.19,1.0,-200.5,81.12,17.58,0.34199999999999997,0.44800000000000006,0.8,-145.00600000000003,38.794,35.08200000000001
2026-07-22 23:49:45.931,0.27,0.19,1.0,-200.5,81.12,17.58,0.32999999999999996,0.366,0.85,-158.752,50.660000000000004,29.638000000000012
2026-07-22 23:49:45.972,0.26,0.11,1.07,-174.13,63.05,0.67,0.31399999999999995,0.278,0.924,-171.31200000000004,58.55800000000001,22.314000000000014
2026-07-22 23:49:45.974,0.32,0.12,1.07,-134.03,29.11,-32.71,0.306,0.20000000000000004,1.0,-176.75600000000003,61.072,6.996000000000011
2026-07-22 23:49:46.021,0.32,0.12,1.07,-134.03,29.11,-32.71,0.288,0.14600000000000002,1.042,-168.638,56.702,-5.9179999999999895
2026-07-22 23:49:46.091,0.26,-0.12,0.99,-186.89,46.69,-46.26,0.28600000000000003,0.084,1.04,-165.916,49.815999999999995,-18.68599999999999
2026-07-22 23:49:46.098,0.19,-0.43,0.73,-360.35,31.01,-57.62,0.27,-0.03999999999999998,0.986,-197.88600000000002,39.794,-33.725999999999985
2026-07-22 23:49:46.148,0.18,-0.73,0.43,-522.64,-31.56,-65.37,0.25399999999999995,-0.20799999999999996,0.858,-267.588,20.872000000000003,-46.93399999999998
2026-07-22 23:49:46.222,0.25,-0.87,0.27,-489.07,-66.04,-43.03,0.24,-0.40599999999999997,0.698,-338.596,1.8419999999999987,-48.99799999999999
2026-07-22 23:49:46.322,0.3,-0.97,0.25,-160.77,5.49,-39.67,0.236,-0.624,0.534,-343.944,-2.882000000000001,-50.389999999999986
2026-07-22 23:49:46.385,0.35,-0.92,-0.07,-183.17,-57.5,-61.04,0.25399999999999995,-0.784,0.32199999999999995,-343.2,-23.72,-53.34599999999999
2026-07-22 23:49:46.450,0.38,-0.63,-0.71,-363.34,-175.6,-62.74,0.292,-0.8240000000000001,0.03400000000000001,-343.798,-65.042,-54.36999999999999
2026-07-22 23:49:46.455,0.33,-0.45,-0.87,-344.48,-199.28,-63.96,0.32199999999999995,-0.768,-0.22599999999999998,-308.166,-98.58599999999998,-54.08799999999999
2026-07-22 23:49:46.511,0.33,-0.45,-0.87,-344.48,-199.28,-63.96,0.33799999999999997,-0.6839999999999999,-0.454,-279.248,-125.23400000000001,-58.27399999999999
2026-07-22 23:49:46.632,0.24,-0.42,-0.99,-142.52,-98.45,23.99,0.32599999999999996,-0.5740000000000001,-0.702,-275.598,-146.022,-45.54199999999999
2026-07-22 23:49:46.644,0.2,-0.45,-1.03,-87.71,-69.15,53.1,0.296,-0.48,-0.8940000000000001,-256.506,-148.352,-22.713999999999988
2026-07-22 23:49:46.645,0.16,-0.48,-1.04,-30.46,-37.6,56.09,0.252,-0.45,-0.9600000000000002,-189.93,-120.752,1.0520000000000125
2026-07-22 23:49:46.695,0.13,-0.49,-1.04,6.04,-17.82,36.56,0.21199999999999997,-0.4579999999999999,-0.9940000000000001,-119.82600000000002,-84.46000000000001,21.156000000000013
2026-07-22 23:49:46.749,0.1,-0.45,-1.03,17.03,-10.74,8.85,0.16599999999999998,-0.4579999999999999,-1.026,-47.524,-46.752,35.71800000000001
2026-07-22 23:49:46.813,0.08,-0.4,-0.96,31.74,4.39,-10.31,0.13399999999999995,-0.454,-1.02,-12.672,-26.183999999999997,28.85800000000001
2026-07-22 23:49:46.859,0.08,-0.4,-0.96,31.74,4.39,-10.31,0.10999999999999999,-0.44399999999999995,-1.006,11.218,-11.476,16.176000000000013
2026-07-22 23:49:46.870,0.08,-0.4,-0.92,46.26,8.06,-7.32,0.09399999999999997,-0.42799999999999994,-0.982,26.562,-2.3440000000000003,3.4940000000000113
2026-07-22 23:49:46.875,0.08,-0.41,-0.88,80.2,13.24,-10.31,0.08399999999999998,-0.41200000000000003,-0.95,41.39399999999999,3.868,-5.879999999999989
2026-07-22 23:49:46.923,0.08,-0.45,-0.84,110.72,10.07,-13.67,0.08,-0.4119999999999999,-0.9119999999999999,60.13199999999999,8.03,-10.38399999999999
2026-07-22 23:49:46.992,0.07,-0.46,-0.84,60.06,-10.25,-7.81,0.07799999999999999,-0.42400000000000004,-0.8879999999999999,65.79599999999999,5.101999999999999,-9.883999999999988
2026-07-22 23:49:47.052,0.05,-0.36,-0.95,-148.44,-50.84,10.68,0.07199999999999998,-0.4159999999999999,-0.8859999999999999,29.76,-5.944000000000001,-5.685999999999989
2026-07-22 23:49:47.176,0.04,-0.33,-0.98,-114.32,-37.72,9.95,0.06399999999999997,-0.40199999999999997,-0.898,-2.3560000000000003,-15.1,-2.2319999999999887
2026-07-22 23:49:47.233,0.02,-0.35,-0.94,-2.62,-5.68,2.69,0.05199999999999998,-0.38999999999999996,-0.9099999999999999,-18.920000000000005,-18.884000000000004,0.3680000000000111
2026-07-22 23:49:47.289,0.01,-0.34,-0.92,30.58,9.16,-0.55,0.03799999999999998,-0.368,-0.9259999999999999,-34.948,-19.066,2.9920000000000107
2026-07-22 23:49:47.296,0.01,-0.34,-0.92,30.58,9.16,-0.55,0.025999999999999978,-0.344,-0.942,-40.84400000000001,-15.184000000000001,4.444000000000011
2026-07-22 23:49:47.354,0.05,-0.42,-0.9,84.35,25.51,6.77,0.025999999999999978,-0.356,-0.932,5.713999999999993,0.08600000000000066,3.6620000000000106
2026-07-22 23:49:47.412,0.09,-0.75,-0.63,385.86,81.48,-23.8,0.035999999999999976,-0.43999999999999995,-0.8620000000000001,105.75,23.926000000000002,-3.087999999999989
2026-07-22 23:49:47.416,0.09,-0.75,-0.63,385.86,81.48,-23.8,0.049999999999999975,-0.5199999999999999,-0.8,183.446,41.358000000000004,-8.38599999999999
2026-07-22 23:49:47.479,0.16,-0.88,-0.27,554.02,110.47,-72.51,0.07999999999999999,-0.6279999999999999,-0.67,288.134,61.620000000000005,-22.77799999999999
2026-07-22 23:49:47.532,0.31,-0.88,0.27,322.2,91.92,-103.52,0.13999999999999996,-0.736,-0.43199999999999994,346.45799999999997,78.172,-43.37199999999999
2026-07-22 23:49:47.599,0.34,-0.82,0.4,152.16,65.98,-87.52,0.198,-0.8160000000000001,-0.172,360.02000000000004,86.26599999999999,-62.23
2026-07-22 23:49:47.655,0.21,-0.66,0.72,120.24,257.93,35.22,0.22199999999999998,-0.7979999999999999,0.098,306.896,121.556,-50.42599999999999
2026-07-22 23:49:47.713,0.03,-0.67,0.76,51.33,314.45,62.81,0.21000000000000002,-0.7819999999999999,0.376,239.98999999999995,168.15,-33.103999999999985
2026-07-22 23:49:47.764,-0.23,-0.96,0.51,-51.88,254.82,76.66,0.13199999999999995,-0.7979999999999999,0.532,118.80999999999999,197.01999999999998,-3.2699999999999876
2026-07-22 23:49:47.828,-0.37,-0.87,0.44,88.81,309.75,92.04,-0.004000000000000026,-0.796,0.5660000000000001,72.13199999999999,240.586,35.84200000000001
2026-07-22 23:49:47.896,-0.93,-0.56,0.48,156.19,373.66,149.29,-0.25800000000000006,-0.744,0.5820000000000001,72.938,302.122,83.20400000000002
2026-07-22 23:49:47.966,-0.92,-0.5,0.42,80.75,107.24,127.08,-0.484,-0.712,0.522,65.03999999999999,271.984,101.57600000000001
2026-07-22 23:49:48.014,-0.67,-0.45,0.23,-99.06,-106.75,-26.86,-0.6240000000000001,-0.6679999999999999,0.41600000000000004,34.962,187.74399999999997,83.64200000000001
2026-07-22 23:49:48.082,-0.67,-0.49,0.29,-92.41,9.09,33.26,-0.712,-0.5740000000000001,0.372,26.856,138.598,74.96200000000002
2026-07-22 23:49:48.083,-0.67,-0.49,0.29,-92.41,9.09,33.26,-0.772,-0.49799999999999994,0.34199999999999997,-9.388,78.46600000000001,63.206
2026-07-22 23:49:48.135,-0.7,-0.55,0.34,-40.28,75.13,52.86,-0.7260000000000001,-0.496,0.314,-48.682,18.759999999999998,43.92000000000001
2026-07-22 23:49:48.196,-0.62,-0.5,0.11,44.19,188.96,-226.75,-0.666,-0.496,0.252,-55.99399999999999,35.104,-26.845999999999993
2026-07-22 23:49:48.226,-0.62,-0.5,0.11,44.19,188.96,-226.75,-0.656,-0.506,0.22799999999999998,-27.344,94.24600000000001,-66.82399999999998
2026-07-22 23:49:48.247,-0.51,-0.64,-0.09,36.25,325.01,-306.46,-0.624,-0.536,0.152,-1.6120000000000005,157.43,-134.76799999999997
2026-07-22 23:49:48.321,-0.25,-1.06,-0.28,-5.62,309.27,-236.82,-0.54,-0.65,0.038,15.745999999999999,217.46599999999998,-188.78399999999996
2026-07-22 23:49:48.431,-0.14,-1.19,-0.29,-4.46,301.33,-173.28,-0.42799999999999994,-0.778,-0.088,22.91,262.706,-234.012
2026-07-22 23:49:48.482,0.05,-0.97,-0.05,60.97,-33.14,15.44,-0.29400000000000004,-0.8719999999999999,-0.12000000000000002,26.266,218.28599999999997,-185.57399999999998
2026-07-22 23:49:48.559,0.05,-0.96,-0.05,10.62,-34.91,25.33,-0.16000000000000003,-0.9639999999999999,-0.152,19.552,173.512,-135.158
2026-07-22 23:49:48.669,0.04,-0.98,-0.06,-13.0,-19.59,19.53,-0.050000000000000024,-1.032,-0.146,9.702,104.59199999999998,-69.96
2026-07-22 23:49:48.672,0.06,-1.0,-0.09,-2.26,13.98,-13.24,0.011999999999999976,-1.02,-0.10800000000000001,10.373999999999999,45.534,-25.24399999999999
2026-07-22 23:49:48.673,0.12,-0.96,-0.1,-1.34,27.71,-19.41,0.06399999999999997,-0.974,-0.06999999999999999,10.998,-9.19,5.530000000000011
2026-07-22 23:49:48.732,0.12,-0.96,-0.1,-1.34,27.71,-19.41,0.07799999999999999,-0.9720000000000001,-0.08,-1.464,2.9800000000000013,-1.4399999999999888
2026-07-22 23:49:48.797,0.33,-0.76,-0.17,-51.21,130.19,-75.07,0.13399999999999998,-0.932,-0.10400000000000001,-13.830000000000002,36.0,-21.51999999999999
2026-07-22 23:49:48.852,0.33,-0.8,-0.31,-42.36,161.93,-122.74,0.192,-0.8959999999999999,-0.154,-19.701999999999998,72.304,-49.97399999999999
2026-07-22 23:49:48.913,0.39,-1.1,-0.22,38.02,41.38,-131.53,0.258,-0.916,-0.18,-11.646,77.784,-73.63199999999998
2026-07-22 23:49:48.972,0.38,-1.19,-0.12,-58.47,-57.31,-14.65,0.30999999999999994,-0.962,-0.184,-23.071999999999996,60.78000000000001,-72.67999999999998
2026-07-22 23:49:49.041,0.25,-1.14,-0.02,15.14,-79.65,79.47,0.33599999999999997,-0.998,-0.16799999999999998,-19.776,39.30800000000001,-52.90399999999998
2026-07-22 23:49:49.042,0.25,-1.14,-0.02,15.14,-79.65,79.47,0.31999999999999995,-1.074,-0.13799999999999998,-6.5059999999999985,-2.6600000000000024,-21.995999999999988
2026-07-22 23:49:49.094,0.29,-1.02,0.1,123.66,-56.46,-3.48,0.312,-1.1179999999999999,-0.05600000000000001,26.698,-46.33800000000001,1.8560000000000123
2026-07-22 23:49:49.151,0.48,-0.82,0.17,46.45,55.3,-84.23,0.32999999999999996,-1.0619999999999998,0.022000000000000002,28.384000000000004,-43.55400000000001,11.316000000000011
2026-07-22 23:49:49.152,0.48,-0.82,0.17,46.45,55.3,-84.23,0.35,-0.9879999999999999,0.08,49.368,-21.032000000000004,-2.5999999999999885
2026-07-22 23:49:49.276,0.5,-0.9,0.1,-25.82,120.36,-113.77,0.4,-0.9400000000000001,0.10400000000000001,41.176,18.97,-41.24799999999999
2026-07-22 23:49:49.277,0.57,-1.02,-0.0,-84.96,110.11,-65.25,0.46399999999999997,-0.916,0.10800000000000001,21.156,56.922000000000004,-70.19199999999998
2026-07-22 23:49:49.332,0.33,-1.06,-0.36,-67.02,-154.36,96.86,0.472,-0.9239999999999998,0.016000000000000004,-16.979999999999997,37.342,-50.12399999999999
2026-07-22 23:49:49.417,0.18,-1.13,-0.44,-6.9,-123.66,110.6,0.4119999999999999,-0.986,-0.10600000000000001,-27.65,1.55,-11.157999999999987
2026-07-22 23:49:49.418,0.18,-1.13,-0.44,-6.9,-123.66,110.6,0.352,-1.0479999999999998,-0.22800000000000004,-38.32,-34.242,27.808000000000014
2026-07-22 23:49:49.456,0.15,-1.21,-0.39,1.59,-36.01,100.95,0.282,-1.1099999999999999,-0.326,-32.838,-65.51599999999999,70.75200000000001
2026-07-22 23:49:49.512,0.08,-1.19,-0.35,-1.4,-21.73,127.5,0.184,-1.1439999999999997,-0.396,-16.126,-91.88399999999999,109.30199999999999
2026-07-22 23:49:49.513,-0.0,-1.01,-0.29,-14.28,-60.79,188.84,0.11799999999999997,-1.134,-0.382,-5.578000000000003,-73.16999999999999,127.69800000000001
2026-07-22 23:49:49.516,-0.06,-0.73,-0.19,-48.1,-116.39,268.31,0.06999999999999998,-1.0539999999999998,-0.332,-13.818000000000003,-71.716,159.24000000000004
2026-07-22 23:49:49.573,-0.06,-0.73,-0.19,-48.1,-116.39,268.31,0.021999999999999978,-0.974,-0.28200000000000003,-22.058000000000003,-70.26199999999999,190.782
2026-07-22 23:49:49.630,-0.26,-0.26,-0.16,-126.04,-96.98,281.31,-0.06000000000000002,-0.784,-0.236,-47.584,-82.45599999999999,226.85399999999998
2026-07-22 23:49:49.631,-0.36,-0.15,-0.3,-172.18,8.97,254.03,-0.14800000000000002,-0.576,-0.22599999999999998,-81.74000000000001,-76.316,252.16000000000003
2026-07-22 23:49:49.693,-0.36,-0.15,-0.3,-172.18,8.97,254.03,-0.22000000000000003,-0.404,-0.22799999999999998,-113.32000000000001,-62.36399999999999,265.19800000000004
2026-07-22 23:49:49.762,-0.62,-0.17,-0.52,-229.19,102.72,234.8,-0.332,-0.292,-0.294,-149.538,-18.541999999999994,258.49600000000004
2026-07-22 23:49:49.811,-0.95,0.03,-0.87,-138.98,107.24,137.82,-0.51,-0.13999999999999999,-0.43,-167.714,26.184000000000005,232.398
2026-07-22 23:49:49.872,-0.89,0.22,-0.9,-57.56,49.32,68.12,-0.636,-0.044,-0.578,-154.018,55.444,189.76000000000005
2026-07-22 23:49:49.873,-0.78,0.25,-0.81,-27.71,-7.14,35.58,-0.7200000000000001,0.036,-0.68,-125.124,52.222,146.07000000000002
2026-07-22 23:49:49.931,-0.65,0.21,-0.68,-18.19,-45.65,35.64,-0.778,0.10799999999999998,-0.756,-94.326,41.298,102.39200000000002
2026-07-22 23:49:49.932,-0.51,0.19,-0.54,-2.56,-63.6,26.49,-0.756,0.18,-0.76,-49.0,8.034000000000004,60.73000000000002
2026-07-22 23:49:49.991,-0.51,0.19,-0.54,-2.56,-63.6,26.49,-0.668,0.21200000000000002,-0.6940000000000001,-21.716,-26.133999999999993,38.46400000000002
2026-07-22 23:49:49.992,-0.45,0.21,-0.49,8.42,-51.09,5.49,-0.58,0.21000000000000002,-0.6120000000000001,-8.52,-46.215999999999994,25.938000000000024
2026-07-22 23:49:49.994,-0.45,0.21,-0.49,8.42,-51.09,5.49,-0.514,0.202,-0.5479999999999999,-1.294,-55.00599999999999,19.920000000000023
2026-07-22 23:49:50.055,-0.53,0.23,-0.53,5.8,-14.34,0.61,-0.49000000000000005,0.20600000000000002,-0.518,3.504,-48.744,12.914000000000021
2026-07-22 23:49:50.111,-0.64,0.24,-0.62,0.73,21.55,12.21,-0.516,0.21600000000000003,-0.534,4.162,-31.714,10.058000000000025
2026-07-22 23:49:50.112,-0.76,0.25,-0.73,0.55,38.94,21.42,-0.5660000000000001,0.22800000000000004,-0.5720000000000001,4.784000000000001,-11.205999999999998,9.044000000000022
2026-07-22 23:49:50.113,-0.76,0.25,-0.73,0.55,38.94,21.42,-0.628,0.23600000000000004,-0.6199999999999999,3.21,6.8000000000000025,12.230000000000024
2026-07-22 23:49:50.172,-0.84,0.27,-0.81,-4.27,33.94,25.51,-0.7060000000000001,0.248,-0.6839999999999999,0.672,23.806000000000004,16.234000000000027
2026-07-22 23:49:50.232,-0.79,0.43,-0.78,-28.2,-13.98,16.3,-0.758,0.288,-0.734,-6.128,23.878,19.372000000000025
2026-07-22 23:49:50.297,-0.73,0.55,-0.74,-62.13,-27.59,9.28,-0.776,0.35,-0.758,-18.7,14.05,18.786000000000023
2026-07-22 23:49:50.351,-0.79,0.5,-0.69,-161.87,-89.11,110.78,-0.782,0.4,-0.75,-51.184000000000005,-11.559999999999995,36.65800000000003
2026-07-22 23:49:50.415,-0.88,0.43,-0.4,-140.38,-142.94,105.16,-0.806,0.43600000000000005,-0.6839999999999999,-79.37,-47.93599999999999,53.40600000000003
2026-07-22 23:49:50.416,-0.75,0.42,-0.23,-99.43,-130.13,85.39,-0.788,0.466,-0.5680000000000001,-98.40200000000002,-80.74999999999999,65.38200000000002
2026-07-22 23:49:50.478,-0.75,0.42,-0.23,-99.43,-130.13,85.39,-0.78,0.46399999999999997,-0.458,-112.648,-103.97999999999999,79.20000000000002
2026-07-22 23:49:50.538,-0.53,0.57,-0.1,-35.28,-63.6,76.97,-0.74,0.46799999999999997,-0.32999999999999996,-107.27799999999999,-111.18199999999999,92.73800000000003
2026-07-22 23:49:50.539,-0.53,0.57,-0.1,-35.28,-63.6,76.97,-0.6880000000000001,0.48199999999999993,-0.21200000000000002,-81.96000000000001,-106.08,85.97600000000003
2026-07-22 23:49:50.593,-0.5,0.67,-0.09,-15.14,-72.75,70.62,-0.6120000000000001,0.53,-0.15,-56.912,-92.042,79.06800000000003
2026-07-22 23:49:50.614,-0.5,0.72,-0.08,-3.36,-80.51,83.07,-0.562,0.5900000000000001,-0.12000000000000002,-37.698,-82.11799999999998,78.60400000000003
2026-07-22 23:49:50.615,-0.5,0.72,-0.08,13.73,-97.05,101.01,-0.5120000000000001,0.65,-0.09,-15.065999999999999,-75.50199999999998,81.72800000000002
2026-07-22 23:49:50.656,-0.46,0.78,-0.08,13.73,-97.05,101.01,-0.49800000000000005,0.692,-0.086,-5.264,-82.192,86.53600000000003
2026-07-22 23:49:50.657,-0.32,0.88,-0.06,28.38,-107.6,124.76,-0.45600000000000007,0.754,-0.078,7.468000000000001,-90.99199999999999,96.09400000000002
2026-07-22 23:49:50.711,-0.32,0.88,-0.06,28.38,-107.6,124.76,-0.42000000000000004,0.796,-0.07200000000000001,16.172,-97.96199999999999,106.92200000000003
2026-07-22 23:49:50.712,-0.18,0.96,-0.03,21.12,-84.17,140.14,-0.35600000000000004,0.844,-0.062,21.068,-98.69399999999999,118.33600000000001
2026-07-22 23:49:50.771,-0.09,1.0,-0.02,5.55,-44.98,116.09,-0.274,0.9,-0.05,19.432,-88.27999999999999,121.35200000000002
2026-07-22 23:49:50.772,-0.04,0.99,-0.01,-5.68,-21.24,62.68,-0.19000000000000003,0.942,-0.036,15.55,-73.11799999999998,113.68600000000004
2026-07-22 23:49:50.832,-0.04,0.99,-0.01,-5.68,-21.24,62.68,-0.13400000000000004,0.9640000000000001,-0.026000000000000002,8.738,-55.84599999999999,101.27000000000002
2026-07-22 23:49:50.833,-0.05,0.96,0.01,-11.11,-12.63,15.44,-0.08000000000000003,0.9800000000000001,-0.012,0.8400000000000005,-36.85199999999999,79.40600000000002
2026-07-22 23:49:50.892,-0.09,0.92,0.02,-10.99,-7.81,-4.52,-0.06200000000000002,0.9720000000000001,-0.0020000000000000005,-5.581999999999999,-21.57999999999999,50.474000000000025
2026-07-22 23:49:50.946,-0.09,0.92,0.02,-10.99,-7.81,-4.52,-0.06200000000000002,0.9560000000000001,0.006,-8.889999999999999,-14.145999999999992,26.35200000000002
2026-07-22 23:49:50.947,-0.1,0.9,0.06,-7.63,-5.25,-12.27,-0.07400000000000002,0.938,0.02,-9.28,-10.947999999999995,11.362000000000021
2026-07-22 23:49:50.956,-0.1,0.86,0.1,-2.99,2.32,-28.2,-0.08600000000000002,0.9120000000000001,0.042,-8.741999999999999,-6.235999999999994,-6.813999999999977
2026-07-22 23:49:50.957,-0.1,0.86,0.1,-2.99,2.32,-28.2,-0.09600000000000002,0.892,0.06,-7.117999999999999,-3.245999999999994,-15.541999999999977
2026-07-22 23:49:51.011,-0.11,0.8,0.11,4.03,15.75,-54.63,-0.10000000000000002,0.868,0.078,-4.114,1.466000000000006,-25.56399999999998
2026-07-22 23:49:51.012,-0.11,0.8,0.11,4.03,15.75,-54.63,-0.10400000000000002,0.8440000000000001,0.096,-1.1099999999999999,6.178000000000006,-35.58599999999998
2026-07-22 23:49:51.071,0.02,0.63,0.14,12.08,10.68,-119.75,-0.08000000000000003,0.79,0.11200000000000002,2.832,9.364000000000006,-57.08199999999997
2026-07-22 23:49:51.131,0.29,-0.49,0.16,-10.07,28.14,-355.47,-0.002000000000000024,0.52,0.124,1.4159999999999997,14.528000000000006,-122.53599999999997
2026-07-22 23:49:51.132,-0.37,-0.66,-0.32,44.74,126.77,-376.4,-0.05600000000000003,0.21600000000000003,0.040000000000000015,10.962,39.418000000000006,-192.176
2026-07-22 23:49:51.207,-0.37,-0.66,-0.32,44.74,126.77,-376.4,-0.10800000000000003,-0.076,-0.04599999999999999,19.104000000000003,61.622,-256.53
2026-07-22 23:49:51.254,-1.26,-0.19,-1.07,150.88,177.8,-335.63,-0.338,-0.274,-0.28200000000000003,48.474000000000004,94.03200000000001,-312.72999999999996
2026-07-22 23:49:51.316,-1.32,-0.52,-0.99,104.25,119.93,-352.54,-0.6060000000000001,-0.504,-0.508,66.908,115.88200000000002,-359.288
2026-07-22 23:49:51.381,-1.34,-0.85,-0.71,36.93,65.61,-165.89,-0.932,-0.5760000000000001,-0.6819999999999999,76.308,123.376,-321.37199999999996
2026-07-22 23:49:51.429,-1.2,-0.71,-0.69,58.9,44.8,-69.76,-1.098,-0.5860000000000001,-0.756,79.14,106.98200000000001,-260.044
2026-07-22 23:49:51.481,-0.64,-0.03,-0.96,38.82,54.57,51.33,-1.152,-0.45999999999999996,-0.884,77.95599999999999,92.542,-174.49799999999996
2026-07-22 23:49:51.557,-0.39,0.2,-1.21,-36.93,82.64,76.97,-0.9780000000000001,-0.382,-0.9119999999999999,40.394,73.51,-91.97799999999998
2026-07-22 23:49:51.559,-0.29,0.2,-1.4,-133.48,90.03,51.09,-0.772,-0.238,-0.9939999999999998,-7.151999999999998,67.53,-11.251999999999963
2026-07-22 23:49:51.613,-0.37,0.01,-1.51,-207.64,80.63,3.72,-0.5780000000000001,-0.06599999999999999,-1.154,-56.065999999999995,70.53399999999999,22.670000000000034
2026-07-22 23:49:51.671,-0.49,-0.19,-1.59,-243.9,73.43,-35.03,-0.43600000000000005,0.038000000000000006,-1.334,-116.626,76.26000000000002,29.616000000000035
2026-07-22 23:49:51.672,-0.69,-0.31,-1.68,-256.23,73.24,-49.13,-0.446,-0.017999999999999995,-1.478,-175.63600000000002,79.994,9.524000000000033
2026-07-22 23:49:51.730,-0.89,-0.26,-1.72,-257.87,59.02,-50.29,-0.546,-0.11000000000000001,-1.58,-219.82399999999998,75.27000000000001,-15.927999999999965
2026-07-22 23:49:51.782,-0.97,-0.16,-1.65,-243.9,16.85,-47.61,-0.682,-0.182,-1.6299999999999997,-241.908,60.634,-35.66799999999997
2026-07-22 23:49:51.847,-0.99,-0.28,-1.26,-126.22,-62.68,-30.21,-0.806,-0.24,-1.5799999999999998,-225.62400000000002,31.972,-42.453999999999965
2026-07-22 23:49:51.910,-1.03,-0.44,-0.9,-86.85,-99.24,-59.69,-0.914,-0.29,-1.442,-194.214,-2.5620000000000003,-47.38599999999997
2026-07-22 23:49:51.914,-1.05,-0.52,-0.54,-97.35,-183.9,-113.1,-0.9860000000000001,-0.33199999999999996,-1.214,-162.43800000000002,-53.989999999999995,-60.179999999999964
2026-07-22 23:49:52.084,-1.03,-0.6,-0.26,-127.32,-282.9,-114.0,-1.014,-0.4,-0.9219999999999999,-136.328,-122.37399999999998,-72.92199999999995
2026-07-22 23:49:52.096,-1.03,-0.6,-0.26,-127.32,-282.9,-114.0,-1.026,-0.488,-0.644,-113.01199999999999,-182.32399999999998,-86.19999999999996
2026-07-22 23:49:52.151,-0.36,-0.07,0.02,74.28,-221.98,22.95,-0.9000000000000001,-0.446,-0.388,-72.91199999999999,-214.18400000000003,-75.56799999999996
2026-07-22 23:49:52.158,-0.31,0.1,0.09,109.86,-182.86,-4.94,-0.7560000000000001,-0.33799999999999997,-0.19,-33.56999999999999,-230.908,-64.61799999999997
2026-07-22 23:49:52.212,-0.29,0.24,0.1,121.03,-145.02,-7.26,-0.6040000000000001,-0.186,-0.06199999999999996,10.106000000000003,-223.13199999999998,-43.44999999999997
2026-07-22 23:49:52.271,-0.25,0.35,0.1,134.89,-112.61,9.46,-0.44800000000000006,0.0040000000000000036,0.010000000000000045,62.548,-189.074,-18.757999999999964
2026-07-22 23:49:52.308,-0.25,0.35,0.1,134.89,-112.61,9.46,-0.2920000000000001,0.194,0.08200000000000005,114.99000000000001,-155.01600000000002,5.934000000000035
2026-07-22 23:49:52.330,-0.19,0.45,0.09,147.71,-60.36,-2.01,-0.2580000000000001,0.298,0.09600000000000004,129.676,-122.69200000000001,0.9420000000000346
2026-07-22 23:49:52.385,-0.19,0.48,0.06,147.03,-38.02,-9.03,-0.23400000000000007,0.374,0.09000000000000005,137.10999999999999,-93.72400000000002,0.12400000000003467
2026-07-22 23:49:52.450,-0.24,0.58,0.01,150.09,-11.84,-15.81,-0.22400000000000012,0.442,0.07200000000000004,142.922,-67.088,-1.5859999999999652
2026-07-22 23:49:52.513,-0.6,0.64,-0.04,150.63,19.17,-22.22,-0.2940000000000001,0.5,0.044000000000000046,146.07,-40.732,-7.921999999999966
2026-07-22 23:49:52.571,-0.92,0.49,0.03,149.9,6.84,-74.89,-0.4280000000000001,0.528,0.030000000000000037,149.072,-16.842000000000002,-24.791999999999966
2026-07-22 23:49:52.630,-1.82,0.28,-0.05,198.12,-72.02,-257.45,-0.7540000000000001,0.49400000000000005,0.002000000000000041,159.154,-19.174,-75.87999999999997
2026-07-22 23:49:52.687,-1.76,0.27,-0.16,231.32,-126.16,-294.07,-1.068,0.45200000000000007,-0.04199999999999996,176.012,-36.802,-132.88799999999998
2026-07-22 23:49:52.751,-1.03,-0.13,0.03,170.35,-115.17,-151.06,-1.2260000000000002,0.31,-0.037999999999999964,180.064,-57.467999999999996,-159.93799999999996
2026-07-22 23:49:52.814,-0.81,-0.27,0.09,125.37,-66.47,-71.84,-1.2680000000000002,0.128,-0.01199999999999996,175.012,-74.596,-169.86199999999997
2026-07-22 23:49:52.862,-0.93,-0.25,0.06,96.8,-64.03,-36.99,-1.27,-0.019999999999999997,-0.005999999999999961,164.392,-88.77,-162.28199999999998
2026-07-22 23:49:52.931,-0.84,-0.2,0.28,51.51,-106.45,-66.22,-1.0740000000000003,-0.11600000000000002,0.06000000000000004,135.07,-95.65599999999999,-124.03599999999997
2026-07-22 23:49:52.988,-0.76,-0.18,0.36,16.24,9.46,-61.16,-0.8740000000000002,-0.20600000000000002,0.16400000000000003,92.054,-68.53200000000001,-77.45399999999998
2026-07-22 23:49:53.045,-1.03,-0.16,0.51,50.29,89.05,-23.32,-0.8740000000000002,-0.21200000000000002,0.26000000000000006,68.042,-27.688000000000006,-51.90599999999997
2026-07-22 23:49:53.110,-1.1,-0.27,0.57,21.36,45.1,-65.12,-0.932,-0.21200000000000002,0.35600000000000004,47.239999999999995,-5.374000000000002,-50.56199999999997
2026-07-22 23:49:53.163,-1.05,-0.45,0.61,-73.73,-40.83,-156.13,-0.9560000000000001,-0.252,0.466,13.133999999999995,-0.7340000000000018,-74.38999999999996
2026-07-22 23:49:53.231,-0.56,-0.91,0.49,-155.64,-142.15,-273.1,-0.9000000000000001,-0.394,0.508,-28.296,-7.8740000000000006,-115.76599999999996
2026-07-22 23:49:53.290,-0.5,-0.88,0.29,-94.91,-154.54,-287.29,-0.8480000000000002,-0.534,0.49399999999999994,-50.525999999999996,-40.674,-160.99199999999996
2026-07-22 23:49:53.296,-0.57,-0.75,0.16,-18.43,-74.58,-176.45,-0.7560000000000001,-0.652,0.42400000000000004,-64.27,-73.4,-191.61799999999997
2026-07-22 23:49:53.364,-0.68,-0.65,0.21,36.5,61.95,-13.92,-0.672,-0.7280000000000001,0.35200000000000004,-61.242,-70.03,-181.37799999999996
2026-07-22 23:49:53.417,-0.87,-0.53,0.25,60.12,150.21,68.36,-0.6360000000000001,-0.744,0.28,-34.471999999999994,-31.821999999999996,-136.47999999999996
2026-07-22 23:49:53.465,-1.06,-0.39,0.18,79.77,191.1,57.5,-0.736,-0.64,0.21800000000000005,12.61,34.828,-70.35999999999997
2026-07-22 23:49:53.532,-0.6,-0.48,0.05,69.82,167.11,15.81,-0.7560000000000001,-0.56,0.17000000000000004,45.556,99.158,-9.739999999999963
2026-07-22 23:49:53.591,-0.22,-0.75,0.09,65.49,101.14,-7.81,-0.686,-0.56,0.15600000000000006,62.339999999999996,134.302,23.988000000000035
2026-07-22 23:49:53.645,-0.27,-0.75,0.09,84.53,54.32,7.93,-0.604,-0.5800000000000001,0.13200000000000006,71.946,132.776,28.358000000000033
2026-07-22 23:49:53.674,-0.34,-0.71,0.15,95.09,12.02,15.38,-0.4980000000000001,-0.616,0.11200000000000006,78.94,105.138,17.762000000000036
2026-07-22 23:49:53.703,-0.43,-0.74,0.26,91.25,8.12,20.87,-0.37200000000000005,-0.6859999999999999,0.12800000000000006,81.236,68.542,10.436000000000035
2026-07-22 23:49:53.770,-0.53,-0.78,0.35,70.43,5.25,15.14,-0.3580000000000001,-0.746,0.18800000000000003,81.358,36.17,10.302000000000035
2026-07-22 23:49:53.832,-0.45,-0.85,0.52,-53.77,-152.89,-56.21,-0.4040000000000001,-0.766,0.274,57.50599999999999,-14.636,0.622000000000034
2026-07-22 23:49:53.890,-0.32,-0.81,0.43,-106.14,-242.61,-100.1,-0.41400000000000003,-0.7779999999999999,0.342,19.372000000000003,-74.022,-20.983999999999966
2026-07-22 23:49:53.945,-0.32,-0.63,0.55,8.06,-147.28,30.21,-0.41000000000000014,-0.762,0.42200000000000004,1.9659999999999993,-105.88199999999999,-18.017999999999965
2026-07-22 23:49:54.005,-0.38,-0.55,0.68,41.38,-75.26,90.94,-0.4000000000000001,-0.724,0.506,-8.008,-122.55799999999999,-4.003999999999968
2026-07-22 23:49:54.069,-0.46,-0.37,0.88,89.66,37.29,80.2,-0.3860000000000001,-0.642,0.6120000000000001,-4.162000000000001,-116.15,9.008000000000033
2026-07-22 23:49:54.131,-0.36,-0.34,1.03,104.25,69.4,63.35,-0.36800000000000005,-0.54,0.7140000000000001,27.442,-71.69200000000001,32.92000000000003
2026-07-22 23:49:54.140,-0.36,-0.34,1.03,104.25,69.4,63.35,-0.3760000000000001,-0.446,0.8340000000000002,69.52000000000001,-9.289999999999997,65.61000000000004
2026-07-22 23:49:54.196,-0.2,-0.32,1.43,53.47,23.01,37.84,-0.3520000000000001,-0.384,1.0100000000000002,78.602,24.768000000000004,67.13600000000004
2026-07-22 23:49:54.308,-0.36,-0.22,1.38,-16.54,-44.49,47.3,-0.3480000000000001,-0.318,1.15,67.018,30.922000000000004,58.40800000000004
2026-07-22 23:49:54.318,-0.54,-0.17,1.32,-58.78,-125.37,36.56,-0.3640000000000001,-0.278,1.238,37.33,-1.6099999999999965,49.680000000000035
2026-07-22 23:49:54.370,-0.42,-0.22,1.35,5.74,-118.53,1.53,-0.37600000000000006,-0.254,1.302,17.628,-39.196,37.31600000000003
2026-07-22 23:49:54.418,-0.27,-0.26,1.22,15.5,-80.14,-46.75,-0.3580000000000001,-0.238,1.34,-0.12200000000000025,-69.104,15.296000000000031
2026-07-22 23:49:54.481,-0.09,-0.42,1.23,50.11,26.98,-123.17,-0.33600000000000013,-0.258,1.3,-0.7939999999999998,-68.31,-16.90599999999997
2026-07-22 23:49:54.551,0.1,-0.6,1.19,-1.65,1.59,-172.67,-0.24400000000000008,-0.33399999999999996,1.262,2.184,-59.093999999999994,-60.89999999999996
2026-07-22 23:49:54.552,0.1,-0.6,1.19,-1.65,1.59,-172.67,-0.11600000000000008,-0.42000000000000004,1.236,13.61,-33.70199999999999,-102.74599999999995
2026-07-22 23:49:54.623,0.17,-0.52,0.93,-16.78,0.18,-171.51,0.001999999999999913,-0.48,1.1520000000000001,9.106,-9.959999999999997,-137.35399999999996
2026-07-22 23:49:54.671,0.18,-0.39,0.76,100.16,129.64,-97.96,0.09199999999999992,-0.506,1.06,26.038,31.996000000000002,-147.59599999999995
2026-07-22 23:49:54.734,-0.01,-0.23,0.83,151.31,134.77,-56.34,0.10799999999999992,-0.46799999999999997,0.9800000000000001,46.278,53.55400000000001,-134.22999999999996
2026-07-22 23:49:54.797,0.11,-0.26,1.03,38.51,-95.09,-138.92,0.10999999999999992,-0.4,0.9480000000000001,54.31,34.218,-127.47999999999998
2026-07-22 23:49:54.854,0.25,-0.26,0.91,-19.65,-177.0,-155.52,0.13999999999999993,-0.33199999999999996,0.8920000000000001,50.709999999999994,-1.4999999999999942,-124.04999999999998
2026-07-22 23:49:54.908,0.34,-0.16,0.58,42.79,-26.55,-121.46,0.1739999999999999,-0.26,0.8220000000000001,62.624,-6.845999999999995,-114.03999999999996
2026-07-22 23:49:54.973,0.3,-0.13,0.56,40.65,80.93,-105.41,0.1979999999999999,-0.20800000000000002,0.782,50.721999999999994,-16.587999999999987,-115.52999999999997
2026-07-22 23:49:55.035,0.3,-0.13,0.56,40.65,80.93,-105.41,0.2599999999999999,-0.188,0.728,28.589999999999993,-27.355999999999987,-125.34399999999997
2026-07-22 23:49:55.083,0.2,-0.08,0.91,10.25,80.93,-66.96,0.2779999999999999,-0.152,0.7040000000000001,22.937999999999995,7.848000000000013,-110.95199999999996
2026-07-22 23:49:55.157,0.16,-0.06,0.99,39.0,89.6,-58.41,0.2599999999999999,-0.11200000000000002,0.72,34.66799999999999,61.168000000000006,-91.52999999999997
2026-07-22 23:49:55.211,0.01,-0.06,1.03,12.7,52.55,-76.97,0.1939999999999999,-0.092,0.8100000000000002,28.649999999999995,76.98800000000001,-82.63199999999996
2026-07-22 23:49:55.275,0.02,-0.06,1.02,-27.59,6.53,-88.87,0.1379999999999999,-0.07799999999999999,0.9019999999999999,15.001999999999992,62.10800000000002,-79.32399999999997
2026-07-22 23:49:55.323,0.11,-0.03,1.0,-48.89,-7.26,-102.72,0.0999999999999999,-0.05800000000000001,0.9900000000000002,-2.906000000000006,44.47000000000001,-78.78599999999997
2026-07-22 23:49:55.386,0.16,-0.03,0.98,-37.41,-0.18,-110.53,0.0919999999999999,-0.048,1.004,-12.438000000000006,28.248,-87.49999999999997
2026-07-22 23:49:55.452,0.04,-0.13,0.89,6.65,59.27,-90.33,0.0679999999999999,-0.062,0.984,-18.908000000000005,22.18200000000001,-93.88399999999996
2026-07-22 23:49:55.508,-0.08,-0.29,0.94,7.87,20.87,-97.66,0.049999999999999906,-0.10800000000000001,0.966,-19.874000000000006,15.846000000000009,-98.02199999999996
2026-07-22 23:49:55.572,-0.04,-0.38,1.05,20.94,3.48,-108.7,0.0379999999999999,-0.172,0.9720000000000001,-10.168000000000005,15.23600000000001,-101.98799999999997
2026-07-22 23:49:55.625,0.04,-0.44,1.11,19.78,-7.32,-112.49,0.023999999999999903,-0.254,0.9940000000000001,3.5659999999999954,15.224000000000013,-103.94199999999996
2026-07-22 23:49:55.689,-0.05,-0.31,0.91,-8.24,9.58,-83.86,-0.0180000000000001,-0.30999999999999994,0.9800000000000001,9.399999999999995,17.17600000000001,-98.60799999999998
2026-07-22 23:49:55.695,-0.05,-0.31,0.91,-8.24,9.58,-83.86,-0.0360000000000001,-0.346,0.9840000000000002,6.421999999999994,7.238000000000008,-97.31399999999996
2026-07-22 23:49:55.810,-0.12,-0.23,0.93,-1.16,14.22,-84.47,-0.044000000000000095,-0.33399999999999996,0.982,4.615999999999994,5.908000000000008,-94.67599999999996
2026-07-22 23:49:55.864,0.04,-0.27,0.96,1.28,32.65,-103.76,-0.028000000000000098,-0.312,0.9640000000000001,0.6839999999999945,11.742000000000008,-93.68799999999996
2026-07-22 23:49:55.927,0.06,-0.26,1.0,17.33,35.34,-100.46,-0.024000000000000098,-0.27599999999999997,0.9420000000000002,0.1939999999999941,20.274000000000008,-91.28199999999995
2026-07-22 23:49:55.991,0.07,-0.24,0.99,16.42,27.1,-92.83,-9.71445146547012e-17,-0.262,0.9580000000000002,5.125999999999995,23.77800000000001,-93.07599999999998
2026-07-22 23:49:56.045,0.04,-0.29,0.98,17.27,62.19,-50.84,0.017999999999999905,-0.258,0.9720000000000001,10.227999999999994,34.30000000000001,-86.47199999999997
2026-07-22 23:49:56.111,0.04,-0.35,0.94,-11.05,52.92,-39.73,0.0499999999999999,-0.28200000000000003,0.974,8.249999999999995,42.040000000000006,-77.52399999999997
2026-07-22 23:49:56.172,-0.03,-0.4,0.96,-18.31,0.98,-51.15,0.0359999999999999,-0.308,0.974,4.3319999999999945,35.706,-67.00199999999997
2026-07-22 23:49:56.227,-0.07,-0.39,0.93,0.85,-8.06,-53.47,0.009999999999999901,-0.33399999999999996,0.9600000000000002,1.0359999999999954,27.026000000000003,-57.60399999999997
2026-07-22 23:49:56.291,-0.13,-0.4,0.91,-5.49,10.44,-33.14,-0.030000000000000103,-0.366,0.9440000000000002,-3.346000000000005,23.69400000000001,-45.66599999999996
2026-07-22 23:49:56.351,-0.07,-0.44,0.94,-10.93,9.7,-29.79,-0.052000000000000116,-0.396,0.9360000000000002,-8.986000000000006,13.196000000000009,-41.45599999999997
2026-07-22 23:49:56.402,-0.07,-0.44,0.94,-10.93,9.7,-29.79,-0.07400000000000011,-0.414,0.9360000000000002,-8.962000000000005,4.5520000000000085,-39.46799999999997
2026-07-22 23:49:56.469,-0.13,-0.55,0.85,-150.02,19.78,-60.85,-0.09400000000000011,-0.44400000000000006,0.914,-35.30400000000001,8.312000000000008,-41.407999999999966
2026-07-22 23:49:56.530,-0.03,-0.62,0.66,-368.1,25.27,9.4,-0.0860000000000001,-0.49000000000000005,0.8600000000000001,-109.09400000000001,14.978000000000009,-28.833999999999964
2026-07-22 23:49:56.534,0.06,-0.77,0.34,-368.1,25.27,9.4,-0.04800000000000011,-0.5640000000000001,0.7460000000000001,-181.616,17.94400000000001,-20.325999999999965
2026-07-22 23:49:56.576,0.09,-0.92,0.03,-450.5,88.01,10.93,-0.016000000000000108,-0.66,0.5640000000000001,-269.53000000000003,33.60600000000001,-12.181999999999968
2026-07-22 23:49:56.646,0.1,-0.95,-0.13,-346.5,69.7,-49.74,0.017999999999999895,-0.7620000000000001,0.3500000000000001,-336.644,45.60600000000001,-16.171999999999965
2026-07-22 23:49:56.702,0.1,-1.08,-0.13,33.45,-62.74,28.69,0.0639999999999999,-0.868,0.1540000000000001,-299.95,29.10200000000001,1.7360000000000348
2026-07-22 23:49:56.713,0.04,-1.02,-0.11,81.48,-39.73,46.2,0.0779999999999999,-0.9480000000000001,1.1379786002407854e-16,-210.03400000000002,16.10200000000001,9.096000000000036
2026-07-22 23:49:56.829,-0.02,-0.94,-0.09,27.34,4.76,0.0,0.0619999999999999,-0.982,-0.0859999999999999,-130.946,12.00000000000001,7.216000000000035
2026-07-22 23:49:56.894,-0.38,-1.01,-0.12,-56.34,-152.34,76.6,-0.032000000000000105,-1.0,-0.11599999999999991,-52.114,-36.06999999999999,20.350000000000033
2026-07-22 23:49:56.946,-0.35,-1.01,0.01,-34.85,-111.51,30.03,-0.12200000000000011,-1.012,-0.0879999999999999,10.216000000000001,-72.31199999999998,36.30400000000004
2026-07-22 23:49:57.005,-0.35,-1.01,0.01,-34.85,-111.51,30.03,-0.2120000000000001,-0.998,-0.0599999999999999,-3.444,-82.06599999999999,36.57200000000004
2026-07-22 23:49:57.081,-0.28,-1.1,0.08,-16.11,5.86,-77.58,-0.27600000000000013,-1.014,-0.021999999999999888,-22.962,-72.94800000000001,11.816000000000034
2026-07-22 23:49:57.138,-0.24,-1.0,0.08,-25.57,-10.68,-28.99,-0.3200000000000001,-1.026,0.012000000000000111,-33.544,-76.036,6.018000000000034
2026-07-22 23:49:57.179,-0.22,-1.0,0.03,3.17,1.65,21.18,-0.28800000000000014,-1.024,0.04200000000000011,-21.642000000000003,-45.23799999999999,-5.065999999999964
2026-07-22 23:49:57.246,-0.21,-0.89,0.06,-13.79,25.88,28.5,-0.2600000000000001,-1.0,0.052000000000000116,-17.43,-17.759999999999998,-5.371999999999964
2026-07-22 23:49:57.306,-0.2,-0.83,-0.0,-20.14,42.54,34.0,-0.23000000000000012,-0.9640000000000001,0.050000000000000114,-14.488,13.050000000000006,-4.577999999999965
2026-07-22 23:49:57.316,-0.2,-0.83,-0.0,-20.14,42.54,34.0,-0.2140000000000001,-0.9099999999999999,0.034000000000000107,-15.294,20.386000000000006,17.738000000000035
2026-07-22 23:49:57.370,-0.26,-0.86,-0.11,34.67,35.34,24.9,-0.2180000000000001,-0.882,-0.0039999999999998925,-3.2459999999999996,29.59000000000001,28.51600000000003
2026-07-22 23:49:57.445,-0.3,-0.9,-0.07,46.75,23.56,20.26,-0.23400000000000012,-0.8619999999999999,-0.023999999999999893,5.470000000000001,33.97200000000001,28.332000000000033
2026-07-22 23:49:57.481,-0.34,-0.99,-0.02,36.93,14.34,15.14,-0.2600000000000001,-0.882,-0.03999999999999989,15.613999999999999,31.66400000000001,25.660000000000036
2026-07-22 23:49:57.545,-0.42,-1.03,-0.03,32.59,2.69,21.97,-0.3040000000000001,-0.9219999999999999,-0.04599999999999989,26.160000000000004,23.694000000000006,23.254000000000037
2026-07-22 23:49:57.608,-0.43,-0.95,-0.07,25.21,-5.98,19.53,-0.3500000000000001,-0.9460000000000001,-0.0599999999999999,35.23,13.990000000000006,20.360000000000035
2026-07-22 23:49:57.671,-0.41,-0.91,-0.14,5.68,-15.87,15.01,-0.38000000000000006,-0.9560000000000001,-0.0659999999999999,29.432,3.7480000000000055,18.382000000000033
2026-07-22 23:49:57.783,-0.37,-1.02,-0.18,13.31,-46.69,4.33,-0.39400000000000013,-0.9800000000000001,-0.0879999999999999,22.744,-10.301999999999994,15.196000000000037
2026-07-22 23:49:57.848,-0.25,-0.9,-0.13,-46.87,-48.28,-16.97,-0.3760000000000001,-0.9620000000000001,-0.1099999999999999,5.984,-22.825999999999993,8.774000000000036
2026-07-22 23:49:57.912,-0.17,-0.83,-0.14,-70.25,-49.07,-34.73,-0.32600000000000007,-0.9219999999999999,-0.1319999999999999,-14.583999999999998,-33.17799999999999,-2.5659999999999634
2026-07-22 23:49:57.973,-0.12,-0.89,-0.22,-91.92,-33.57,-51.51,-0.2640000000000001,-0.9099999999999999,-0.1619999999999999,-38.010000000000005,-38.69599999999999,-16.773999999999962
2026-07-22 23:49:58.021,-0.05,-0.86,-0.26,-50.23,1.22,-34.97,-0.19200000000000012,-0.9,-0.1859999999999999,-49.192,-35.27799999999999,-26.769999999999964
2026-07-22 23:49:58.086,-0.06,-0.94,-0.24,-10.31,-3.54,-16.97,-0.13000000000000012,-0.884,-0.1979999999999999,-53.916,-26.647999999999996,-31.029999999999966
2026-07-22 23:49:58.094,-0.1,-1.1,-0.23,20.2,-14.59,2.56,-0.10000000000000012,-0.924,-0.2179999999999999,-40.501999999999995,-19.909999999999993,-27.123999999999967
2026-07-22 23:49:58.148,-0.12,-1.18,-0.15,31.19,-32.29,21.48,-0.09000000000000011,-0.994,-0.2199999999999999,-20.214,-16.553999999999995,-15.881999999999962
2026-07-22 23:49:58.212,-0.14,-1.21,-0.06,25.15,-48.34,24.48,-0.09400000000000011,-1.058,-0.1879999999999999,3.2000000000000006,-19.507999999999996,-0.6839999999999641
2026-07-22 23:49:58.274,-0.17,-0.98,0.02,6.29,-58.04,5.19,-0.1180000000000001,-1.082,-0.1319999999999999,14.504000000000001,-31.359999999999996,7.348000000000036
2026-07-22 23:49:58.322,-0.14,-0.89,-0.01,4.46,-57.31,-4.39,-0.13400000000000012,-1.072,-0.08599999999999988,17.458,-42.114,9.864000000000036
2026-07-22 23:49:58.386,-0.16,-1.04,0.0,2.5,-47.91,-18.92,-0.1460000000000001,-1.06,-0.03999999999999988,13.918000000000001,-48.778,5.568000000000035
2026-07-22 23:49:58.462,-0.18,-0.91,0.02,-8.97,-44.25,-0.12,-0.15800000000000008,-1.006,-0.005999999999999889,5.885999999999998,-51.169999999999995,1.2480000000000353
2026-07-22 23:49:58.465,-0.2,-0.75,0.05,-14.22,-46.02,18.74,-0.17000000000000012,-0.914,0.01600000000000011,-1.9880000000000009,-50.705999999999996,0.10000000000003481
2026-07-22 23:49:58.512,-0.2,-0.75,0.05,-3.3,-47.55,23.5,-0.1760000000000001,-0.868,0.02200000000000011,-3.906000000000001,-48.60799999999999,3.7620000000000346
2026-07-22 23:49:58.571,-0.25,-0.79,0.09,9.34,-45.1,14.22,-0.19800000000000012,-0.8480000000000001,0.042000000000000114,-2.930000000000001,-46.16599999999999,7.484000000000035
2026-07-22 23:49:58.576,-0.26,-0.96,0.05,5.37,-42.91,-2.26,-0.2180000000000001,-0.8320000000000001,0.052000000000000116,-2.3560000000000008,-45.16599999999999,10.816000000000034
2026-07-22 23:49:58.624,-0.24,-1.08,0.03,-5.37,-49.8,-10.44,-0.23000000000000012,-0.866,0.05400000000000012,-1.636000000000001,-46.275999999999996,8.752000000000034
2026-07-22 23:49:58.696,-0.21,-1.12,0.05,-3.36,-66.47,0.12,-0.23200000000000012,-0.9400000000000001,0.05400000000000012,0.5359999999999991,-50.36599999999999,5.028000000000036
2026-07-22 23:49:58.752,-0.13,-1.12,0.07,11.72,-80.26,24.41,-0.2180000000000001,-1.014,0.05800000000000012,3.539999999999999,-56.907999999999994,5.2100000000000355
2026-07-22 23:49:58.815,-0.09,-1.13,0.05,8.91,-71.78,19.65,-0.1860000000000001,-1.082,0.050000000000000114,3.4539999999999993,-62.24399999999999,6.296000000000035
2026-07-22 23:49:58.869,-0.07,-1.06,-0.04,-14.95,-54.63,-3.42,-0.14800000000000013,-1.1019999999999999,0.03200000000000011,-0.6100000000000009,-64.588,6.064000000000034
2026-07-22 23:49:58.926,-0.1,-0.94,-0.02,-21.36,-55.24,-5.07,-0.12000000000000013,-1.074,0.022000000000000113,-3.8080000000000007,-65.676,7.138000000000035
2026-07-22 23:49:58.992,-0.11,-0.83,-0.03,-15.44,-51.15,-2.62,-0.10000000000000012,-1.016,0.006000000000000113,-6.224000000000001,-62.612,6.5900000000000345
2026-07-22 23:49:59.046,-0.1,-0.84,-0.12,1.89,-29.54,-10.5,-0.09400000000000011,-0.96,-0.03199999999999988,-8.190000000000001,-52.467999999999996,-0.3919999999999654
2026-07-22 23:49:59.114,-0.11,-0.91,-0.13,-13.79,-11.29,-23.07,-0.09800000000000011,-0.916,-0.06799999999999988,-12.73,-40.36999999999999,-8.935999999999964
2026-07-22 23:49:59.126,-0.11,-0.91,-0.13,-13.79,-11.29,-23.07,-0.10600000000000012,-0.8859999999999999,-0.08599999999999988,-12.498000000000001,-31.70199999999999,-12.865999999999966
2026-07-22 23:49:59.174,-0.11,-0.98,-0.17,-17.4,-2.99,-26.55,-0.10800000000000012,-0.8939999999999999,-0.11599999999999988,-11.706,-21.251999999999992,-17.161999999999967
2026-07-22 23:49:59.228,-0.15,-1.16,-0.07,-17.46,-8.36,-23.44,-0.1160000000000001,-0.96,-0.12399999999999989,-12.110000000000001,-12.693999999999994,-21.325999999999965
2026-07-22 23:49:59.291,-0.13,-1.2,-0.0,-16.11,-10.56,-14.47,-0.12200000000000011,-1.032,-0.0999999999999999,-15.710000000000003,-8.897999999999993,-22.119999999999965
2026-07-22 23:49:59.295,-0.09,-1.21,0.01,-15.2,-7.2,-5.98,-0.1180000000000001,-1.092,-0.0719999999999999,-15.991999999999999,-8.079999999999995,-18.701999999999966
2026-07-22 23:49:59.356,-0.11,-1.16,0.01,-16.42,-7.14,-0.49,-0.1180000000000001,-1.142,-0.04399999999999989,-16.518,-7.249999999999995,-14.185999999999964
2026-07-22 23:49:59.366,-0.11,-1.16,0.01,-16.42,-7.14,-0.49,-0.1180000000000001,-1.178,-0.007999999999999891,-16.322,-8.079999999999995,-8.973999999999965
2026-07-22 23:49:59.403,-0.15,-1.03,0.01,-17.21,-15.38,7.87,-0.1180000000000001,-1.152,0.008000000000000111,-16.272000000000002,-9.483999999999995,-2.711999999999965
2026-07-22 23:49:59.466,-0.16,-0.95,0.04,-11.41,-26.18,16.66,-0.12400000000000011,-1.1019999999999999,0.01600000000000011,-15.332000000000003,-12.607999999999993,3.514000000000035
2026-07-22 23:49:59.593,-0.17,-1.11,0.06,8.73,-26.12,8.97,-0.14000000000000012,-1.082,0.026000000000000113,-10.546000000000001,-16.391999999999996,6.504000000000035
2026-07-22 23:49:59.595,-0.25,-0.92,0.05,1.59,-18.43,14.22,-0.1680000000000001,-1.034,0.034000000000000107,-6.944000000000001,-18.649999999999995,9.446000000000035
2026-07-22 23:49:59.704,-0.26,-0.82,0.03,5.31,-17.4,17.46,-0.19800000000000012,-0.966,0.03800000000000011,-2.5980000000000016,-20.70199999999999,13.036000000000035
2026-07-22 23:49:59.768,-0.25,-0.87,-0.03,-10.38,-17.76,2.38,-0.2180000000000001,-0.9339999999999999,0.030000000000000117,-1.2320000000000015,-21.177999999999994,11.938000000000034
2026-07-22 23:49:59.831,-0.35,-0.85,0.07,-6.96,-28.38,4.03,-0.2560000000000001,-0.914,0.03600000000000011,-0.3420000000000014,-21.617999999999995,9.412000000000035
2026-07-22 23:49:59.879,-0.41,-0.86,0.11,-3.11,-28.38,2.93,-0.3040000000000001,-0.8640000000000001,0.04600000000000011,-2.7100000000000017,-22.069999999999993,8.204000000000034
2026-07-22 23:49:59.946,-0.45,-0.91,0.12,-5.62,-23.44,-0.92,-0.34400000000000014,-0.8620000000000001,0.06000000000000011,-4.152000000000002,-23.071999999999996,5.176000000000036
2026-07-22 23:50:00.006,-0.5,-0.98,0.03,-17.21,-15.32,-4.7,-0.3920000000000001,-0.8939999999999999,0.06000000000000012,-8.656000000000002,-22.655999999999995,0.7440000000000347
2026-07-22 23:50:00.070,-0.46,-0.98,-0.04,-16.05,-19.41,1.46,-0.43400000000000016,-0.916,0.05800000000000011,-9.790000000000001,-22.985999999999997,0.5600000000000348
2026-07-22 23:50:00.195,-0.22,-1.07,-0.07,0.55,-41.14,14.83,-0.4080000000000001,-0.96,0.030000000000000103,-8.288000000000002,-25.537999999999997,2.720000000000035
2026-07-22 23:50:00.198,-0.22,-1.07,-0.07,1.34,-49.62,13.85,-0.3700000000000001,-1.002,-0.005999999999999894,-7.398000000000003,-29.785999999999994,4.9040000000000346
2026-07-22 23:50:00.247,0.03,-1.21,0.0,-17.4,-59.94,4.27,-0.27400000000000013,-1.062,-0.029999999999999895,-9.754000000000001,-37.086,5.942000000000034
2026-07-22 23:50:00.317,-0.02,-1.07,0.0,-15.87,-59.39,9.52,-0.17800000000000013,-1.0799999999999998,-0.03599999999999989,-9.486,-45.89999999999999,8.786000000000035
2026-07-22 23:50:00.399,-0.09,-0.81,-0.07,-1.34,-40.83,21.06,-0.10400000000000012,-1.046,-0.04199999999999989,-6.544000000000001,-50.184,12.706000000000035
2026-07-22 23:50:00.418,-0.11,-0.8,-0.17,4.33,-26.31,13.37,-0.08200000000000013,-0.992,-0.0619999999999999,-5.788,-47.217999999999996,12.414000000000033
2026-07-22 23:50:00.490,-0.19,-0.72,-0.17,2.69,-21.48,-2.38,-0.07600000000000012,-0.922,-0.08199999999999989,-5.518000000000001,-41.58999999999999,9.168000000000035
2026-07-22 23:50:00.498,-0.21,-0.79,-0.18,-0.73,-22.4,-17.7,-0.12400000000000011,-0.8380000000000001,-0.11799999999999988,-2.184000000000001,-34.081999999999994,4.774000000000035
2026-07-22 23:50:00.547,-0.21,-0.79,-0.18,-0.73,-22.4,-17.7,-0.1620000000000001,-0.782,-0.1539999999999999,0.8439999999999988,-26.68399999999999,-0.6699999999999655
2026-07-22 23:50:00.613,-0.23,-1.08,-0.15,-8.91,-38.51,-43.46,-0.1900000000000001,-0.8360000000000001,-0.1699999999999999,-0.6700000000000014,-26.21999999999999,-13.573999999999966
2026-07-22 23:50:00.667,-0.24,-1.16,-0.08,-13.73,-50.84,-34.91,-0.2160000000000001,-0.908,-0.15199999999999989,-4.282000000000002,-31.125999999999994,-23.22999999999997
2026-07-22 23:50:00.736,-0.24,-1.17,0.04,-20.57,-58.17,-7.08,-0.22600000000000012,-0.998,-0.10999999999999988,-8.934000000000001,-38.464,-24.169999999999966
2026-07-22 23:50:00.784,-0.19,-1.12,0.07,-8.79,-54.81,1.16,-0.22200000000000011,-1.064,-0.05999999999999989,-10.546000000000001,-44.946,-20.397999999999964
2026-07-22 23:50:00.848,-0.14,-0.97,0.06,13.12,-47.49,16.24,-0.20800000000000013,-1.1,-0.01199999999999989,-7.776000000000002,-49.964,-13.609999999999966
2026-07-22 23:50:00.911,-0.14,-0.84,0.09,-5.31,-44.49,25.21,-0.1900000000000001,-1.052,0.03600000000000011,-7.056000000000002,-51.16,0.12400000000003572
2026-07-22 23:50:00.969,-0.14,-0.77,0.07,-2.38,-25.33,12.57,-0.17000000000000012,-0.974,0.06600000000000011,-4.786000000000001,-46.058,9.620000000000035
2026-07-22 23:50:01.038,-0.16,-0.92,-0.02,24.84,-15.81,-2.2,-0.15400000000000014,-0.924,0.054000000000000103,4.2959999999999985,-37.586,10.596000000000034
2026-07-22 23:50:01.092,-0.16,-1.16,0.08,84.59,-32.41,16.42,-0.14800000000000013,-0.932,0.05600000000000012,22.972,-33.105999999999995,13.648000000000035
2026-07-22 23:50:01.094,-0.16,-1.16,0.08,84.59,-32.41,16.42,-0.15200000000000014,-0.97,0.06000000000000011,37.266,-30.089999999999993,13.684000000000037
2026-07-22 23:50:01.171,-0.21,-1.14,0.22,68.18,-40.47,18.68,-0.16600000000000012,-1.03,0.08600000000000012,51.964,-29.28599999999999,12.378000000000034
2026-07-22 23:50:01.172,-0.27,-0.96,0.3,-4.03,-38.88,4.21,-0.19200000000000012,-1.068,0.13200000000000012,51.634,-31.99599999999999,10.706000000000035
2026-07-22 23:50:01.213,-0.29,-0.74,0.29,-63.48,-35.58,-7.08,-0.21800000000000014,-1.032,0.19400000000000012,33.97,-35.949999999999996,9.730000000000036
2026-07-22 23:50:01.277,-0.29,-0.67,0.22,-52.25,-34.3,-5.25,-0.24400000000000013,-0.9339999999999999,0.22200000000000011,6.602000000000002,-36.327999999999996,5.3960000000000345
2026-07-22 23:50:01.338,-0.32,-1.05,0.15,45.96,-46.57,4.76,-0.27600000000000013,-0.9120000000000001,0.23600000000000013,-1.1239999999999981,-39.16,3.0640000000000347
2026-07-22 23:50:01.339,-0.32,-1.05,0.15,45.96,-46.57,4.76,-0.29800000000000015,-0.8940000000000001,0.22200000000000011,-5.568,-40.379999999999995,0.2800000000000347
2026-07-22 23:50:01.397,-0.35,-1.14,0.24,91.92,-61.4,29.11,-0.3140000000000001,-0.93,0.2100000000000001,13.622000000000003,-44.884,5.260000000000035
2026-07-22 23:50:01.452,-0.34,-1.0,0.39,148.38,-76.42,65.67,-0.3240000000000002,-0.982,0.23000000000000012,55.99400000000001,-53.052,19.810000000000038
2026-07-22 23:50:01.515,-0.23,-0.67,0.8,224.61,-87.59,80.26,-0.31200000000000017,-0.982,0.34600000000000014,111.36600000000001,-63.709999999999994,36.912000000000035
2026-07-22 23:50:01.580,-0.17,-0.63,0.9,233.83,-76.11,68.24,-0.28200000000000014,-0.898,0.4960000000000001,148.94,-69.618,49.60800000000004
2026-07-22 23:50:01.598,-0.08,-0.27,0.94,252.44,-87.71,126.04,-0.23400000000000015,-0.742,0.6540000000000001,190.23600000000002,-77.84599999999999,73.86400000000003
2026-07-22 23:50:01.632,-0.08,-0.27,0.94,252.44,-87.71,126.04,-0.18000000000000013,-0.568,0.7940000000000002,222.34,-83.10799999999999,93.25000000000003
2026-07-22 23:50:01.697,-0.09,-0.08,0.91,196.35,-90.39,138.49,-0.13000000000000017,-0.384,0.898,231.93400000000003,-85.902,107.81400000000004
2026-07-22 23:50:01.699,-0.14,-0.1,0.89,-57.31,9.58,52.8,-0.11200000000000014,-0.26999999999999996,0.916,175.55,-66.46799999999999,102.32200000000005
2026-07-22 23:50:01.770,-0.18,-0.18,0.9,-57.31,9.58,52.8,-0.11400000000000014,-0.18,0.916,117.322,-49.33,99.23400000000004
2026-07-22 23:50:01.817,-0.17,-0.15,0.92,-63.6,32.53,21.0,-0.13200000000000014,-0.156,0.9120000000000001,54.114,-25.281999999999993,78.22600000000004
2026-07-22 23:50:01.928,-0.18,-0.12,0.93,0.73,-7.63,-11.78,-0.15200000000000014,-0.126,0.9100000000000001,3.7719999999999976,-9.265999999999995,50.662000000000035
2026-07-22 23:50:01.996,-0.16,-0.04,1.09,34.06,-44.86,45.96,-0.16600000000000012,-0.118,0.9460000000000001,-28.686,-0.15999999999999517,32.156000000000034
2026-07-22 23:50:02.056,-0.1,0.02,1.05,-21.79,27.53,76.84,-0.1580000000000001,-0.094,0.9780000000000001,-21.582,3.4300000000000055,36.964000000000034
2026-07-22 23:50:02.183,-0.08,-0.03,1.06,-33.87,31.8,44.49,-0.13800000000000015,-0.064,1.0100000000000002,-16.894,7.874000000000005,35.302000000000035
2026-07-22 23:50:02.231,-0.07,-0.08,0.9,-14.28,18.55,-26.43,-0.11800000000000013,-0.05,1.0060000000000002,-7.029999999999999,5.078000000000006,25.81600000000003
2026-07-22 23:50:02.278,-0.11,-0.2,0.91,-97.72,30.4,-43.82,-0.10400000000000013,-0.066,1.0020000000000002,-26.72,12.684000000000006,19.408000000000033
2026-07-22 23:50:02.351,-0.14,-0.59,0.81,-271.61,70.74,-121.95,-0.10000000000000013,-0.176,0.9460000000000001,-87.854,35.80400000000001,-14.17399999999996
2026-07-22 23:50:02.407,-0.1,-0.6,0.7,-201.84,106.2,-175.72,-0.10000000000000013,-0.3,0.8760000000000001,-123.86399999999999,51.53800000000001,-64.68599999999996
2026-07-22 23:50:02.417,0.0,-0.63,0.74,-68.97,72.02,-155.94,-0.08400000000000014,-0.42000000000000004,0.812,-130.884,59.58200000000001,-104.77199999999996
2026-07-22 23:50:02.470,0.07,-0.68,0.88,56.95,-0.12,-101.26,-0.05600000000000014,-0.54,0.8080000000000002,-116.63799999999999,55.848,-119.73799999999997
2026-07-22 23:50:02.597,0.05,-0.69,0.9,80.81,-24.29,-70.37,-0.024000000000000136,-0.6379999999999999,0.806,-80.93199999999999,44.910000000000004,-125.04799999999996
2026-07-22 23:50:02.652,-0.13,-0.6,0.64,-55.3,185.3,23.13,-0.022000000000000134,-0.6399999999999999,0.7720000000000001,-37.66999999999999,67.822,-96.03199999999997
2026-07-22 23:50:02.771,-0.52,-0.66,0.65,59.75,261.41,69.15,-0.10600000000000014,-0.6519999999999999,0.7620000000000001,14.648000000000014,98.864,-47.05799999999996
2026-07-22 23:50:02.818,-0.57,-0.59,0.57,-51.7,23.74,-114.26,-0.2200000000000001,-0.6439999999999999,0.7280000000000001,18.10200000000001,89.20800000000001,-38.721999999999966
2026-07-22 23:50:02.882,-0.46,-0.85,0.56,-147.16,-40.41,-212.22,-0.3260000000000002,-0.678,0.6640000000000001,-22.719999999999988,81.15,-60.913999999999966
2026-07-22 23:50:02.959,0.04,-1.0,0.18,-123.78,-71.23,-250.85,-0.3280000000000002,-0.74,0.5200000000000001,-63.63799999999999,71.76200000000001,-97.00999999999996
2026-07-22 23:50:03.010,0.22,-0.86,0.03,-30.27,-67.5,-158.45,-0.2580000000000001,-0.792,0.39800000000000013,-58.631999999999984,21.20200000000001,-133.32599999999996
2026-07-22 23:50:03.082,0.35,-0.69,0.08,47.61,-91.8,-13.43,-0.08400000000000013,-0.7979999999999999,0.28400000000000014,-61.05999999999999,-49.44,-149.84199999999993
2026-07-22 23:50:03.086,0.35,-0.69,0.08,47.61,-91.8,-13.43,0.09999999999999985,-0.818,0.18600000000000014,-41.19799999999999,-72.548,-129.67599999999996
2026-07-22 23:50:03.125,0.32,-0.66,0.19,25.76,-46.45,-50.72,0.2559999999999999,-0.78,0.11200000000000014,-6.6139999999999874,-73.756,-97.37599999999995
2026-07-22 23:50:03.191,0.41,-0.64,0.26,61.65,0.98,-77.76,0.32999999999999985,-0.708,0.12800000000000014,30.472000000000016,-59.313999999999986,-62.75799999999996
2026-07-22 23:50:03.216,0.62,-0.71,0.22,61.65,0.98,-77.76,0.40999999999999986,-0.678,0.16600000000000012,48.85600000000001,-45.617999999999995,-46.61999999999996
2026-07-22 23:50:03.247,0.88,-0.81,0.19,133.91,-56.03,-71.78,0.5159999999999998,-0.7020000000000001,0.18800000000000014,66.11600000000001,-38.46399999999999,-58.289999999999964
2026-07-22 23:50:03.311,0.87,-1.21,0.51,-26.18,-258.54,-34.06,0.6199999999999999,-0.806,0.27400000000000013,51.358000000000004,-71.812,-62.41599999999996
2026-07-22 23:50:03.375,0.75,-1.24,0.37,-157.23,-324.58,-64.21,0.7059999999999998,-0.922,0.31000000000000016,14.760000000000009,-127.43800000000002,-65.11399999999996
2026-07-22 23:50:03.422,0.64,-1.12,-0.31,-239.81,-184.27,-50.48,0.7519999999999998,-1.018,0.19600000000000017,-45.532,-164.488,-59.65799999999996
2026-07-22 23:50:03.486,0.6,-1.11,-0.54,-249.69,-94.36,-39.18,0.7479999999999999,-1.098,0.04400000000000015,-107.8,-183.556,-51.941999999999965
2026-07-22 23:50:03.565,0.36,-0.42,-0.36,-135.93,-85.51,21.67,0.6439999999999999,-1.02,-0.06599999999999986,-161.768,-189.452,-33.25199999999995
2026-07-22 23:50:03.566,0.36,-0.42,-0.36,-135.93,-85.51,21.67,0.5419999999999999,-0.8620000000000001,-0.23999999999999985,-183.718,-154.846,-22.105999999999955
2026-07-22 23:50:03.610,0.41,-0.19,-0.44,-48.16,-49.5,66.1,0.47399999999999987,-0.6519999999999999,-0.40199999999999986,-161.904,-99.83000000000001,3.95600000000004
2026-07-22 23:50:03.612,0.42,-0.38,-0.52,13.12,-6.04,91.25,0.4299999999999999,-0.504,-0.44399999999999984,-111.31800000000001,-64.184,32.302000000000035
2026-07-22 23:50:03.676,0.51,-0.61,-0.5,3.3,60.36,95.4,0.4119999999999998,-0.404,-0.43599999999999983,-60.71999999999999,-33.24,59.21800000000004
2026-07-22 23:50:03.786,0.68,-0.68,-0.48,-51.94,132.2,108.28,0.47599999999999987,-0.45600000000000007,-0.45999999999999985,-43.92199999999999,10.301999999999998,76.54000000000003
2026-07-22 23:50:03.913,0.52,-0.88,-0.56,-40.04,105.47,141.11,0.5079999999999999,-0.548,-0.49999999999999983,-24.743999999999993,48.498,100.42800000000004
2026-07-22 23:50:03.971,0.38,-0.91,-0.39,35.58,80.57,257.69,0.5019999999999999,-0.6920000000000001,-0.4899999999999999,-7.995999999999993,74.512,138.74600000000004
2026-07-22 23:50:03.976,0.18,-0.85,-0.56,-42.79,128.05,312.87,0.4539999999999999,-0.7859999999999999,-0.4979999999999999,-19.17799999999999,101.33,183.07000000000005
2026-07-22 23:50:04.024,0.06,-0.63,-0.73,-190.0,155.76,309.69,0.3639999999999999,-0.79,-0.5439999999999998,-57.83799999999999,120.41,225.92800000000005
2026-07-22 23:50:04.103,0.01,-0.44,-0.74,-247.01,131.04,227.72,0.22999999999999984,-0.742,-0.5959999999999999,-96.85199999999999,120.178,249.8160000000001
2026-07-22 23:50:04.157,0.1,-0.61,-0.55,54.38,-32.71,-52.61,0.14599999999999985,-0.688,-0.5939999999999999,-77.96799999999999,92.542,211.07200000000003
2026-07-22 23:50:04.209,0.12,-0.69,-0.57,293.76,-104.37,-118.23,0.09399999999999986,-0.6439999999999999,-0.6299999999999999,-26.331999999999994,55.553999999999995,135.88800000000006
2026-07-22 23:50:04.262,-0.36,-1.2,0.06,393.68,-146.73,-116.27,-0.014000000000000134,-0.7140000000000001,-0.5059999999999999,60.96200000000001,0.5979999999999961,50.060000000000045
2026-07-22 23:50:04.325,-0.09,-1.19,0.09,141.72,20.94,-202.64,-0.044000000000000136,-0.826,-0.34199999999999986,127.30600000000001,-26.366000000000003,-52.40599999999995
2026-07-22 23:50:04.389,0.5,-0.7,-0.46,-287.17,167.24,-246.64,0.05399999999999987,-0.8779999999999999,-0.28599999999999987,119.274,-19.125999999999998,-147.27799999999996
2026-07-22 23:50:04.405,0.5,-0.7,-0.46,-287.17,167.24,-246.64,0.13399999999999987,-0.8959999999999999,-0.2679999999999999,50.964,20.864000000000004,-186.08399999999995
2026-07-22 23:50:04.445,0.55,-0.39,-0.28,-269.84,97.9,-154.11,0.2199999999999999,-0.836,-0.20999999999999988,-61.75599999999999,61.318000000000005,-193.25999999999993
2026-07-22 23:50:04.511,0.73,-0.58,0.08,-16.11,78.86,-21.12,0.4379999999999999,-0.712,-0.2059999999999999,-143.714,106.436,-174.22999999999996
2026-07-22 23:50:04.565,0.75,-0.87,-0.02,144.53,152.16,117.68,0.6059999999999999,-0.648,-0.22799999999999984,-143.152,132.68,-110.16599999999994
2026-07-22 23:50:04.581,0.75,-0.87,-0.02,144.53,152.16,117.68,0.6559999999999999,-0.682,-0.13999999999999987,-56.81199999999999,129.664,-37.30199999999995
2026-07-22 23:50:04.628,0.7,-1.15,-0.22,260.38,256.35,223.75,0.696,-0.7719999999999999,-0.09199999999999987,52.698000000000015,147.486,56.776000000000046
2026-07-22 23:50:04.693,0.56,-0.73,0.04,163.21,-48.58,107.48,0.6979999999999998,-0.8400000000000001,-0.027999999999999865,139.30800000000002,118.18999999999998,109.09400000000005
2026-07-22 23:50:04.694,0.56,-0.73,0.04,163.21,-48.58,107.48,0.6639999999999999,-0.8699999999999999,-0.035999999999999865,175.17200000000003,92.702,134.81400000000005
2026-07-22 23:50:04.802,0.56,-0.4,0.48,225.83,-245.73,107.3,0.6259999999999998,-0.776,0.06400000000000013,191.43200000000002,13.124,132.73800000000006
2026-07-22 23:50:04.813,0.54,-0.89,0.56,146.24,-199.04,110.96,0.5839999999999999,-0.7799999999999999,0.18000000000000013,191.774,-57.116,131.39400000000006
2026-07-22 23:50:04.866,0.64,-1.24,0.15,-81.42,-214.42,97.72,0.5719999999999998,-0.798,0.2540000000000001,123.41400000000002,-151.27,106.18800000000006
2026-07-22 23:50:04.929,0.55,-0.48,0.23,18.13,-255.0,-34.61,0.57,-0.748,0.29200000000000015,94.398,-192.554,77.77000000000004
2026-07-22 23:50:04.993,0.47,-0.15,0.41,89.48,-208.5,-200.99,0.5519999999999998,-0.6319999999999999,0.36600000000000016,79.652,-224.538,16.076000000000043
2026-07-22 23:50:05.056,0.92,-0.24,0.61,49.87,-112.43,-347.84,0.6239999999999999,-0.6,0.3920000000000001,44.46,-197.878,-74.95199999999996
2026-07-22 23:50:05.059,1.32,-0.33,0.37,49.87,-112.43,-347.84,0.7799999999999999,-0.4880000000000001,0.3540000000000001,25.186,-180.55599999999998,-166.71199999999993
2026-07-22 23:50:05.067,1.2,-0.03,-0.16,-129.7,-224.67,-176.0,0.8919999999999998,-0.246,0.29200000000000015,15.530000000000001,-182.606,-221.45599999999996
2026-07-22 23:50:05.104,1.2,-0.03,-0.16,-129.7,-224.67,-176.0,1.0219999999999998,-0.156,0.2140000000000001,-14.035999999999996,-176.54000000000002,-249.73399999999992
2026-07-22 23:50:05.231,1.04,0.09,-0.36,-133.73,-144.59,-78.43,1.136,-0.10799999999999998,0.06000000000000011,-58.678,-163.75799999999998,-225.22199999999998
2026-07-22 23:50:05.278,0.69,0.08,-0.54,104.61,-0.24,-63.54,1.0899999999999999,-0.044,-0.16999999999999987,-47.73,-141.32,-168.36199999999994
2026-07-22 23:50:05.468,0.82,0.13,-0.4,89.42,-71.96,-50.54,0.9899999999999999,0.048,-0.32399999999999984,-39.81999999999999,-133.226,-108.90199999999996
2026-07-22 23:50:05.516,0.9,-0.1,-0.31,58.04,-86.43,19.41,0.9299999999999999,0.034,-0.35399999999999987,-2.271999999999996,-105.57800000000002,-69.81999999999996
2026-07-22 23:50:05.532,0.85,0.07,-0.65,71.17,-84.78,24.35,0.8599999999999998,0.054000000000000006,-0.45199999999999996,37.902,-77.6,-29.749999999999954
2026-07-22 23:50:05.548,0.92,0.18,-0.78,72.08,-38.88,4.46,0.8359999999999997,0.072,-0.5359999999999999,79.06400000000001,-56.458000000000006,-13.171999999999954
2026-07-22 23:50:05.580,0.92,-0.23,-0.61,-69.21,-35.71,42.72,0.8819999999999999,0.009999999999999992,-0.5499999999999999,44.3,-63.552,8.080000000000044
2026-07-22 23:50:05.646,1.22,-0.62,-0.48,27.59,-44.13,197.81,0.9619999999999997,-0.14,-0.566,31.933999999999997,-57.98600000000001,57.75000000000004
2026-07-22 23:50:05.661,0.98,-0.54,-0.51,208.19,74.1,285.58,0.9779999999999998,-0.22800000000000004,-0.6059999999999999,61.964,-25.880000000000006,110.98400000000004
2026-07-22 23:50:05.772,0.98,-0.54,-0.51,208.19,74.1,285.58,1.004,-0.35000000000000003,-0.5779999999999998,89.368,5.895999999999992,163.23000000000002
2026-07-22 23:50:05.773,0.77,-0.55,-0.5,161.13,91.31,227.78,0.9739999999999999,-0.4960000000000001,-0.5219999999999999,107.178,31.93399999999999,207.89400000000006
2026-07-22 23:50:05.905,0.65,-0.54,-0.33,113.1,111.69,195.25,0.9199999999999999,-0.558,-0.4659999999999999,143.64,61.41399999999999,238.40000000000003
2026-07-22 23:50:06.010,0.65,-0.54,-0.33,113.1,111.69,195.25,0.8059999999999998,-0.542,-0.43599999999999994,160.74200000000002,92.578,237.88800000000006
2026-07-22 23:50:06.074,0.49,-0.52,-0.09,137.02,128.36,173.89,0.7079999999999999,-0.538,-0.35199999999999987,146.50799999999998,103.42999999999999,215.55000000000004
2026-07-22 23:50:06.194,0.67,-0.56,-0.3,-119.87,19.17,5.74,0.6459999999999998,-0.542,-0.3099999999999999,80.896,92.44399999999999,159.58200000000005
2026-07-22 23:50:06.196,0.43,-0.34,-0.41,22.77,-16.72,-93.57,0.5779999999999998,-0.5000000000000001,-0.2919999999999999,53.22399999999999,70.838,95.31200000000004
2026-07-22 23:50:06.250,0.16,-0.54,-0.69,70.62,-68.05,-120.85,0.47999999999999987,-0.5,-0.3639999999999999,44.727999999999994,34.89,32.09200000000004
2026-07-22 23:50:06.313,0.28,-0.71,-0.54,-58.59,-71.23,-17.21,0.40599999999999986,-0.534,-0.40599999999999986,10.389999999999995,-1.6940000000000026,-10.399999999999956
2026-07-22 23:50:06.371,0.43,-0.78,-0.43,-175.05,-35.22,55.24,0.3939999999999998,-0.5860000000000001,-0.47399999999999987,-52.024000000000015,-34.41000000000001,-34.12999999999995
2026-07-22 23:50:06.550,0.15,-0.82,-0.66,-124.94,-32.84,66.16,0.2899999999999998,-0.638,-0.5459999999999999,-53.03800000000001,-44.812000000000005,-22.045999999999953
2026-07-22 23:50:06.613,0.24,-0.96,-0.81,81.42,16.54,102.66,0.25199999999999984,-0.762,-0.6259999999999999,-41.30800000000001,-38.16000000000001,17.20000000000005
2026-07-22 23:50:06.788,0.39,-0.67,-0.97,173.95,-42.05,63.05,0.2979999999999998,-0.7879999999999999,-0.6819999999999998,-20.642000000000007,-32.96000000000001,53.980000000000054
2026-07-22 23:50:06.795,0.31,-0.79,-0.65,94.24,61.52,194.15,0.3039999999999998,-0.8039999999999999,-0.704,9.923999999999989,-6.410000000000008,96.25200000000004
2026-07-22 23:50:06.909,0.04,-0.6,-0.35,69.27,44.62,100.46,0.22599999999999984,-0.768,-0.688,58.78799999999999,9.557999999999991,105.29600000000005
2026-07-22 23:50:06.915,-0.0,-0.94,-0.39,-31.68,-45.29,-109.92,0.1959999999999998,-0.792,-0.6339999999999998,77.43999999999998,7.067999999999993,70.08000000000004
2026-07-22 23:50:06.978,-0.0,-0.94,-0.39,-31.68,-45.29,-109.92,0.14799999999999983,-0.788,-0.5499999999999999,54.81999999999998,-5.298000000000007,27.564000000000043
2026-07-22 23:50:07.025,-0.21,-1.4,-0.55,-127.2,98.57,37.54,0.027999999999999824,-0.9339999999999999,-0.46599999999999986,-5.410000000000011,22.82599999999999,22.462000000000046
2026-07-22 23:50:07.088,0.42,-1.12,-0.68,-110.84,128.48,66.22,0.04999999999999982,-1.0,-0.47199999999999986,-46.42600000000001,36.21799999999999,-3.1239999999999553
2026-07-22 23:50:07.095,0.57,-0.63,-0.63,-36.56,45.04,-31.74,0.1559999999999998,-1.006,-0.5279999999999999,-67.59200000000001,36.301999999999985,-29.563999999999954
2026-07-22 23:50:07.152,0.4,-0.34,-0.59,20.57,4.88,-90.21,0.23599999999999982,-0.8859999999999999,-0.5679999999999998,-57.14200000000001,46.33599999999999,-25.62199999999995
2026-07-22 23:50:07.215,0.14,-0.43,-0.72,33.75,12.57,-91.25,0.2639999999999998,-0.784,-0.6339999999999998,-44.05600000000001,57.90799999999998,-21.887999999999952
2026-07-22 23:50:07.280,-0.01,-0.68,-0.73,-27.83,-90.76,-124.27,0.3039999999999998,-0.64,-0.6699999999999998,-24.18200000000001,20.04199999999999,-54.24999999999996
2026-07-22 23:50:07.311,-0.01,-0.68,-0.73,-27.83,-90.76,-124.27,0.21799999999999983,-0.552,-0.6799999999999998,-7.580000000000008,-23.806000000000008,-92.34799999999996
2026-07-22 23:50:07.327,0.06,-0.7,-0.59,-73.36,-70.01,-67.32,0.11599999999999984,-0.5660000000000001,-0.6719999999999999,-14.940000000000008,-46.81600000000001,-99.46399999999996
2026-07-22 23:50:07.392,-0.0,-0.7,-0.67,-65.0,73.49,86.3,0.035999999999999824,-0.638,-0.688,-32.05400000000001,-33.09400000000001,-64.16199999999995
2026-07-22 23:50:07.455,0.04,-0.81,-0.81,-63.78,83.98,94.6,0.01599999999999982,-0.7140000000000001,-0.7059999999999998,-51.56,-18.81200000000001,-26.99199999999995
2026-07-22 23:50:07.514,-0.01,-1.13,-0.62,-38.45,15.99,24.11,0.01599999999999982,-0.8039999999999999,-0.6839999999999998,-53.68400000000001,2.5379999999999923,2.684000000000046
2026-07-22 23:50:07.581,-0.09,-1.17,-0.65,18.74,3.11,12.02,-1.7763568394002506e-16,-0.9019999999999999,-0.6679999999999999,-44.370000000000005,21.31199999999999,29.942000000000046
2026-07-22 23:50:07.629,0.3,-0.73,-0.87,165.95,-39.55,28.63,0.04799999999999982,-0.908,-0.7239999999999999,3.4919999999999902,27.403999999999996,49.13200000000005
2026-07-22 23:50:07.695,0.39,-0.73,-0.94,168.21,-33.63,79.41,0.12599999999999983,-0.914,-0.7779999999999999,50.13399999999999,5.979999999999994,47.75400000000005
2026-07-22 23:50:07.821,0.34,-0.82,-0.55,96.37,63.42,171.33,0.1859999999999998,-0.916,-0.7259999999999999,82.16399999999999,1.8679999999999937,63.100000000000044
2026-07-22 23:50:07.870,0.21,-0.64,-0.36,97.78,62.38,120.18,0.22999999999999982,-0.818,-0.6739999999999998,109.41,11.145999999999994,82.31400000000005
2026-07-22 23:50:07.951,0.14,-0.69,-0.36,-6.71,-38.21,-68.79,0.27599999999999986,-0.722,-0.6159999999999999,104.32000000000001,2.8819999999999935,66.15200000000006
2026-07-22 23:50:07.977,-0.39,-1.45,-0.38,-130.31,46.75,-12.76,0.13799999999999985,-0.866,-0.5179999999999999,45.068,20.141999999999992,57.87400000000006
2026-07-22 23:50:08.168,0.05,-1.26,-0.57,-142.58,126.53,62.87,0.06999999999999983,-0.9719999999999999,-0.44399999999999984,-17.09000000000001,52.174,54.56600000000005
2026-07-22 23:50:08.778,-0.14,-0.71,-0.82,-7.51,-59.88,-129.58,-0.02600000000000018,-0.95,-0.4979999999999999,-37.86600000000001,27.513999999999992,-5.615999999999957
2026-07-22 23:50:08.780,-0.06,-0.74,-0.66,-49.44,-97.47,-120.91,-0.08000000000000017,-0.97,-0.5579999999999998,-67.31,-4.456000000000006,-53.83399999999996
2026-07-22 23:50:08.883,0.32,-0.64,-0.95,192.26,-53.16,24.17,-0.044000000000000185,-0.9600000000000002,-0.6759999999999998,-27.51600000000001,-7.446000000000005,-35.24199999999995
2026-07-22 23:50:08.896,0.15,-0.57,-0.35,83.13,29.97,98.57,0.06399999999999981,-0.784,-0.6699999999999998,15.171999999999992,-10.802000000000003,-12.975999999999956
2026-07-22 23:50:09.073,0.1,-0.64,-0.24,-2.08,-36.44,-34.73,0.07399999999999982,-0.6599999999999999,-0.6039999999999999,43.27199999999999,-43.396,-32.49599999999996
2026-07-22 23:50:09.120,-0.19,-1.24,-0.26,-64.7,-38.21,-98.39,0.06399999999999982,-0.766,-0.4919999999999999,31.833999999999993,-39.062000000000005,-26.257999999999953
2026-07-22 23:50:09.184,-0.03,-0.62,-0.85,21.79,-55.24,-141.72,0.06999999999999981,-0.742,-0.5299999999999999,46.07999999999999,-30.616000000000007,-30.419999999999952
2026-07-22 23:50:09.311,-0.02,-0.68,-0.78,-18.62,-94.06,-135.86,0.0019999999999998222,-0.75,-0.4959999999999999,3.903999999999993,-38.79600000000001,-62.42599999999995
2026-07-22 23:50:09.438,0.03,-0.74,-0.58,-83.5,59.51,76.97,-0.022000000000000176,-0.784,-0.5419999999999998,-29.422000000000004,-32.888000000000005,-66.74599999999995
2026-07-22 23:50:09.496,0.02,-1.07,-0.69,-38.64,19.78,26.06,-0.03800000000000018,-0.8700000000000001,-0.6319999999999999,-36.734,-21.644000000000005,-54.587999999999965
2026-07-22 23:50:09.729,-0.09,-1.19,-0.67,8.36,4.82,7.08,-0.018000000000000176,-0.86,-0.7139999999999999,-22.122000000000007,-13.038000000000006,-33.49399999999996
2026-07-22 23:50:09.738,0.26,-0.68,-0.45,87.77,21.48,112.43,0.03999999999999983,-0.8720000000000001,-0.6339999999999999,-8.926000000000007,2.305999999999994,17.336000000000045
2026-07-22 23:50:09.908,0.26,-0.68,-0.45,87.77,21.48,112.43,0.09599999999999982,-0.8720000000000001,-0.5679999999999998,12.351999999999993,25.413999999999994,66.99400000000006
2026-07-22 23:50:09.913,0.22,-0.57,-0.25,17.76,-33.14,-5.07,0.13399999999999984,-0.8380000000000001,-0.5019999999999999,32.60399999999999,6.883999999999995,50.58600000000005
2026-07-22 23:50:10.096,0.14,-0.73,-0.23,-21.67,-49.26,-61.16,0.15799999999999984,-0.7699999999999999,-0.40999999999999986,35.998,-6.924000000000004,33.14200000000005
2026-07-22 23:50:10.103,-0.03,-1.01,-0.22,-41.08,-48.4,-96.25,0.16999999999999982,-0.7340000000000001,-0.3199999999999999,26.109999999999992,-17.568000000000005,12.476000000000056
2026-07-22 23:50:10.626,-0.17,-1.39,-0.44,-74.4,8.48,-50.23,0.08399999999999981,-0.876,-0.3179999999999999,-6.324000000000007,-20.168000000000003,-20.055999999999948
2026-07-22 23:50:10.754,0.02,-1.39,-0.77,-118.96,98.57,51.88,0.03599999999999981,-1.018,-0.38199999999999984,-47.67,-4.750000000000005,-32.165999999999954
2026-07-22 23:50:10.756,0.37,-0.77,-0.68,-102.23,83.37,64.51,0.06599999999999981,-1.0579999999999998,-0.46799999999999986,-71.668,18.552,-18.24999999999995
2026-07-22 23:50:10.773,0.75,-1.17,-0.72,113.22,-1.83,99.55,0.1879999999999998,-1.1460000000000001,-0.5659999999999998,-44.69,28.037999999999993,13.892000000000053
2026-07-22 23:50:10.997,0.75,-1.17,-0.72,113.22,-1.83,99.55,0.3439999999999998,-1.1780000000000002,-0.6659999999999999,-13.830000000000004,37.352,53.05200000000004
2026-07-22 23:50:11.113,-0.09,-0.96,-0.37,-31.01,44.31,-31.68,0.35999999999999976,-1.0919999999999999,-0.6519999999999999,-5.152000000000006,44.518,56.76200000000006
2026-07-22 23:50:11.475,0.06,-0.61,-0.78,-46.81,42.3,32.23,0.36799999999999977,-0.9359999999999999,-0.6539999999999998,9.277999999999992,33.263999999999996,52.83200000000005
2026-07-22 23:50:11.483,-0.05,-1.07,-0.46,-34.73,44.62,49.5,0.2839999999999998,-0.9960000000000001,-0.6099999999999999,22.77799999999999,25.514,49.830000000000055
2026-07-22 23:50:11.900,0.31,-1.05,-0.63,47.42,3.3,41.63,0.1959999999999998,-0.9720000000000001,-0.5919999999999999,9.617999999999993,26.54,38.24600000000005
2026-07-22 23:50:11.901,0.46,-0.92,-0.88,101.62,109.44,221.5,0.13799999999999982,-0.922,-0.6239999999999999,7.2979999999999965,48.794,62.636000000000045
2026-07-22 23:50:11.904,0.24,-0.51,-0.45,64.51,67.57,107.85,0.20399999999999982,-0.8320000000000001,-0.6399999999999999,26.401999999999997,53.44599999999999,90.54200000000006
2026-07-22 23:50:11.905,0.04,-0.46,-0.34,32.23,89.11,72.57,0.19999999999999982,-0.8020000000000002,-0.5519999999999998,42.209999999999994,62.80799999999999,98.61000000000004
2026-07-22 23:50:11.906,-0.0,-0.52,-0.31,2.81,90.64,24.66,0.20999999999999983,-0.692,-0.5219999999999999,49.717999999999996,72.01199999999999,93.64200000000004
2026-07-22 23:50:11.907,-0.15,-0.71,-0.48,-0.24,41.56,-51.03,0.11799999999999984,-0.624,-0.4919999999999999,40.18599999999999,79.664,75.11000000000004
2026-07-22 23:50:12.069,-0.19,-1.37,-0.59,-129.03,85.94,48.65,-0.012000000000000177,-0.7140000000000001,-0.4339999999999999,-5.944000000000005,74.964,40.54000000000004
2026-07-22 23:50:12.146,0.41,-1.19,-0.57,-139.4,132.93,108.52,0.02199999999999982,-0.85,-0.45799999999999985,-46.72600000000001,88.036,40.67400000000004
2026-07-22 23:50:12.148,0.04,-0.61,-0.82,12.21,12.15,-53.34,0.02199999999999982,-0.8800000000000001,-0.5539999999999999,-50.730000000000004,72.64399999999999,15.492000000000042
2026-07-22 23:50:12.372,0.04,-0.62,-0.68,-30.03,-2.75,-50.6,0.029999999999999815,-0.9,-0.6279999999999999,-57.298000000000016,53.96599999999999,0.4400000000000418
2026-07-22 23:50:12.373,0.01,-0.68,-0.65,-54.14,30.4,-7.26,0.06199999999999981,-0.8939999999999999,-0.6619999999999999,-68.078,51.733999999999995,9.194000000000042
2026-07-22 23:50:12.377,-0.3,-1.2,-0.44,-101.26,97.05,85.82,0.03999999999999983,-0.86,-0.6319999999999999,-62.524,53.955999999999996,16.628000000000043
2026-07-22 23:50:12.553,-0.3,-1.2,-0.44,-29.11,41.75,50.72,-0.10200000000000017,-0.8620000000000001,-0.6059999999999999,-40.465999999999994,35.71999999999999,5.068000000000043
2026-07-22 23:50:12.555,0.47,-0.78,-0.83,166.38,-57.5,22.52,-0.01600000000000019,-0.8960000000000001,-0.6079999999999999,-9.632,21.789999999999992,20.240000000000045
2026-07-22 23:50:12.613,0.39,-0.85,-0.72,101.5,62.38,165.77,0.05399999999999981,-0.942,-0.6159999999999999,16.674,34.81599999999999,63.514000000000046
2026-07-22 23:50:12.627,0.16,-0.8,-0.64,70.98,68.85,157.41,0.08399999999999981,-0.966,-0.6139999999999999,41.698,42.505999999999986,96.44800000000005
2026-07-22 23:50:12.731,-0.01,-0.65,-0.57,65.19,39.06,106.32,0.14199999999999982,-0.8560000000000001,-0.6399999999999999,74.988,30.907999999999994,100.54800000000004
2026-07-22 23:50:12.770,-0.01,-0.65,-0.57,65.19,39.06,106.32,0.1999999999999998,-0.746,-0.6659999999999998,93.848,30.369999999999994,111.66800000000005
2026-07-22 23:50:13.018,0.03,-0.81,-0.19,-6.35,-71.84,-89.48,0.11199999999999981,-0.752,-0.5379999999999998,59.302,27.501999999999992,89.26800000000006
2026-07-22 23:50:13.034,0.29,-1.04,-0.78,-31.43,18.62,13.06,0.0919999999999998,-0.79,-0.5499999999999998,32.715999999999994,18.749999999999993,58.72600000000004
2026-07-22 23:50:13.082,-0.05,-0.75,-0.83,3.48,-1.4,-133.3,0.04999999999999981,-0.78,-0.5879999999999999,19.216,4.699999999999995,0.5840000000000373
2026-07-22 23:50:13.336,-0.08,-0.74,-0.81,-4.52,-102.78,-180.18,0.035999999999999796,-0.798,-0.6359999999999999,5.273999999999999,-23.668000000000006,-56.715999999999966
2026-07-22 23:50:13.390,0.19,-0.76,-0.57,-56.82,-119.38,-121.58,0.0759999999999998,-0.82,-0.6359999999999999,-19.128,-55.35600000000001,-102.29599999999996
2026-07-22 23:50:13.392,0.22,-0.7,-0.6,-36.74,-38.76,-39.86,0.11399999999999981,-0.798,-0.7179999999999999,-25.206,-48.74,-92.37199999999996
2026-07-22 23:50:13.394,0.22,-0.7,-0.6,-36.74,-38.76,-39.86,0.09999999999999981,-0.73,-0.6819999999999998,-26.268,-60.215999999999994,-102.95599999999995
2026-07-22 23:50:13.396,-0.05,-1.1,-0.76,74.58,-38.57,-35.16,0.09999999999999981,-0.8,-0.6679999999999998,-12.047999999999998,-67.65,-83.32799999999995
2026-07-22 23:50:13.451,0.2,-0.81,-0.87,152.77,-74.77,-31.13,0.15599999999999983,-0.8140000000000001,-0.6799999999999998,19.410000000000004,-62.048,-53.51799999999995
2026-07-22 23:50:13.811,-0.01,-0.63,-1.06,117.8,-48.58,77.88,0.11599999999999984,-0.788,-0.7779999999999998,54.334,-47.888,-13.625999999999957
2026-07-22 23:50:13.987,0.61,-0.47,-0.47,62.81,-205.57,-68.54,0.1939999999999998,-0.7420000000000001,-0.7519999999999998,74.244,-81.25,-19.361999999999956
2026-07-22 23:50:13.995,0.64,-0.66,-0.16,39.0,-213.38,-101.56,0.27799999999999986,-0.734,-0.6639999999999999,89.39200000000001,-116.174,-31.701999999999952
2026-07-22 23:50:14.051,0.39,-0.88,-0.08,10.19,-181.15,-114.2,0.3659999999999998,-0.6900000000000001,-0.5279999999999998,76.514,-144.69,-47.509999999999955
2026-07-22 23:50:14.179,0.2,-0.7,-0.7,-17.88,-167.72,-155.09,0.36599999999999977,-0.6679999999999999,-0.4939999999999998,42.384,-163.28,-72.30199999999995
2026-07-22 23:50:14.180,0.24,-0.7,-0.58,-40.83,-108.03,-82.46,0.4159999999999998,-0.682,-0.3979999999999998,10.658000000000001,-175.17000000000002,-104.36999999999996
2026-07-22 23:50:14.225,0.16,-0.61,-0.61,-44.49,40.77,47.91,0.32599999999999985,-0.71,-0.4259999999999998,-10.802,-125.902,-81.07999999999996
2026-07-22 23:50:14.653,0.01,-1.05,-0.57,-75.99,38.27,50.6,0.19999999999999982,-0.7879999999999999,-0.5079999999999998,-33.8,-75.572,-50.64799999999995
2026-07-22 23:50:14.663,0.01,-1.05,-0.57,-75.99,38.27,50.6,0.12399999999999982,-0.8219999999999998,-0.6059999999999998,-51.035999999999994,-31.688,-17.687999999999953
2026-07-22 23:50:14.666,-0.05,-1.3,-0.58,-39.61,14.04,41.14,0.07399999999999982,-0.942,-0.5819999999999999,-55.38199999999999,4.6640000000000015,21.558000000000046
2026-07-22 23:50:14.669,0.0,-1.1,-0.49,-10.25,233.4,293.03,0.025999999999999822,-1.022,-0.5639999999999998,-49.266,72.95,96.65600000000003
2026-07-22 23:50:14.671,-0.14,-1.09,-0.36,-34.85,188.23,253.11,-0.03400000000000018,-1.1179999999999999,-0.5139999999999999,-47.338,102.44200000000001,137.69600000000005
2026-07-22 23:50:14.673,-0.04,-0.57,-0.19,31.8,-113.83,-98.27,-0.044000000000000185,-1.022,-0.43799999999999983,-25.779999999999994,72.022,107.92200000000005
2026-07-22 23:50:14.711,-0.04,-0.57,-0.19,31.8,-113.83,-98.27,-0.05400000000000018,-0.9259999999999999,-0.3619999999999998,-4.2219999999999995,41.602000000000004,78.14800000000005
2026-07-22 23:50:14.715,-0.33,-0.89,-0.18,-0.73,-106.69,-114.56,-0.11000000000000018,-0.8440000000000001,-0.2819999999999998,3.554,17.456,47.008000000000045
2026-07-22 23:50:14.828,-0.33,-0.89,-0.18,-19.29,-91.49,-89.6,-0.1760000000000002,-0.8019999999999999,-0.21999999999999983,1.746,-47.522000000000006,-29.51799999999995
2026-07-22 23:50:14.955,0.55,-0.56,-0.56,-8.79,-33.69,-83.37,-0.038000000000000186,-0.696,-0.25999999999999984,6.958,-91.906,-96.81399999999995
2026-07-22 23:50:15.130,-0.22,-0.66,-1.02,-102.42,-85.51,-151.0,-0.07400000000000019,-0.7140000000000001,-0.4259999999999998,-19.886,-86.24199999999999,-107.35999999999994
2026-07-22 23:50:15.196,0.28,-0.64,-0.62,-29.6,86.98,89.66,-0.010000000000000186,-0.728,-0.5119999999999998,-32.166,-46.08,-69.77399999999996
2026-07-22 23:50:15.248,-0.1,-0.93,-0.61,-55.24,69.95,47.12,0.03599999999999982,-0.736,-0.5979999999999999,-43.068,-10.751999999999999,-37.43799999999995
2026-07-22 23:50:15.320,-0.22,-1.11,-0.61,-36.44,21.67,9.89,0.05799999999999983,-0.78,-0.6839999999999999,-46.498000000000005,11.88,-17.539999999999957
2026-07-22 23:50:15.484,-0.17,-1.15,-0.68,23.5,-12.63,-10.31,-0.08600000000000019,-0.898,-0.7079999999999999,-40.04,16.092000000000002,-2.9279999999999555
2026-07-22 23:50:15.497,-0.17,-1.15,-0.68,23.5,-12.63,-10.31,-0.07600000000000019,-0.9960000000000001,-0.6399999999999998,-14.856,30.668000000000006,25.210000000000043
2026-07-22 23:50:15.785,0.26,-0.84,-0.53,77.94,58.23,160.16,-0.08000000000000021,-1.036,-0.6219999999999999,6.651999999999999,24.918,39.310000000000045
2026-07-22 23:50:15.795,0.26,-0.84,-0.53,77.94,58.23,160.16,-0.008000000000000184,-1.018,-0.6059999999999998,33.288,22.574,61.91800000000004
2026-07-22 23:50:15.797,0.15,-0.66,-0.41,75.32,37.78,105.53,0.06599999999999981,-0.9279999999999999,-0.5659999999999998,55.64,25.796,81.04600000000005
2026-07-22 23:50:15.971,0.29,-0.82,-0.63,-85.02,52.06,7.45,0.1579999999999998,-0.8619999999999999,-0.5559999999999998,33.936,38.733999999999995,84.59800000000004
2026-07-22 23:50:16.033,0.03,-0.74,-0.82,26.12,-72.88,-192.81,0.19799999999999982,-0.78,-0.5839999999999999,34.459999999999994,26.683999999999997,48.09800000000004
2026-07-22 23:50:16.160,0.39,-0.84,-0.39,39.73,-135.56,-111.82,0.22399999999999984,-0.78,-0.5559999999999998,26.817999999999994,-12.074000000000002,-6.2979999999999565
2026-07-22 23:50:16.207,0.2,-0.66,-0.51,-31.13,26.67,40.83,0.21199999999999983,-0.744,-0.5519999999999998,5.003999999999999,-18.386,-30.16399999999995
2026-07-22 23:50:16.271,0.27,-1.04,-0.38,-13.98,36.5,71.47,0.23599999999999982,-0.82,-0.5459999999999998,-12.856,-18.642000000000003,-36.975999999999964
2026-07-22 23:50:16.509,0.26,-1.32,-0.1,39.49,50.9,69.58,0.22999999999999982,-0.9199999999999999,-0.43999999999999984,12.046000000000001,-18.874000000000002,-24.549999999999955
2026-07-22 23:50:16.619,0.11,-0.84,-0.59,-88.26,-34.24,48.16,0.24599999999999983,-0.9400000000000001,-0.39399999999999985,-10.830000000000002,-11.146000000000004,23.644000000000045
2026-07-22 23:50:16.751,0.21,-0.41,-0.38,-1.28,31.74,14.71,0.2099999999999998,-0.8540000000000001,-0.3919999999999998,-19.032,22.313999999999997,48.950000000000045
2026-07-22 23:50:16.752,0.29,-0.55,-0.69,-193.66,75.26,-51.88,0.22799999999999981,-0.8320000000000001,-0.42799999999999977,-51.538,32.032,30.40800000000005
2026-07-22 23:50:16.753,0.04,-0.83,-1.17,-316.71,116.33,-79.28,0.1819999999999998,-0.79,-0.5859999999999997,-112.08399999999999,47.998,0.25800000000004386
2026-07-22 23:50:16.817,-0.16,-1.08,-1.28,-222.11,194.89,11.96,0.09799999999999981,-0.742,-0.8219999999999998,-164.404,76.79599999999999,-11.265999999999956
2026-07-22 23:50:16.858,0.13,-1.03,-0.81,65.55,226.01,97.17,0.1019999999999998,-0.78,-0.8659999999999999,-133.642,128.846,-1.463999999999956
2026-07-22 23:50:17.001,0.58,-0.62,-0.42,260.44,143.49,39.49,0.1759999999999998,-0.8220000000000001,-0.8739999999999999,-81.298,151.196,3.4920000000000457
2026-07-22 23:50:17.409,0.68,-0.6,-0.55,183.47,-220.7,-148.25,0.2539999999999998,-0.8320000000000001,-0.8459999999999998,-5.871999999999997,92.00399999999999,-15.781999999999954
2026-07-22 23:50:17.415,0.52,-0.88,-0.23,218.75,-139.04,-20.08,0.34999999999999976,-0.842,-0.6579999999999998,101.22,40.93,-3.941999999999953
2026-07-22 23:50:17.595,0.85,-0.56,-0.08,47.91,124.82,102.29,0.5519999999999998,-0.738,-0.4179999999999998,155.224,26.916000000000004,14.124000000000047
2026-07-22 23:50:17.604,0.66,-0.33,0.03,-23.68,113.83,65.0,0.6579999999999998,-0.5980000000000001,-0.24999999999999983,137.378,4.480000000000004,7.690000000000049
2026-07-22 23:50:17.710,0.22,-0.56,0.02,-70.25,148.13,3.05,0.5859999999999999,-0.5860000000000001,-0.16199999999999984,71.23999999999998,5.408000000000001,0.40200000000004843
2026-07-22 23:50:17.715,0.18,-0.55,0.06,-103.64,201.17,-39.73,0.48599999999999977,-0.576,-0.03999999999999983,13.817999999999993,89.782,22.10600000000005
2026-07-22 23:50:17.763,0.23,-0.57,-0.14,-184.33,259.34,-86.43,0.42799999999999977,-0.514,-0.021999999999999825,-66.798,169.458,8.836000000000046
2026-07-22 23:50:18.066,0.41,-0.96,-0.87,-386.72,134.09,56.95,0.3399999999999998,-0.5940000000000001,-0.17999999999999983,-153.724,171.312,-0.231999999999951
2026-07-22 23:50:18.081,0.63,-0.72,-0.4,189.58,-76.66,-0.55,0.3339999999999998,-0.6719999999999999,-0.26599999999999985,-111.072,133.214,-13.34199999999995
2026-07-22 23:50:18.191,0.56,-0.72,-0.41,143.13,-65.55,65.37,0.4019999999999998,-0.704,-0.3519999999999998,-68.396,90.478,-0.8779999999999489
2026-07-22 23:50:18.216,0.56,-0.72,-0.41,143.13,-65.55,65.37,0.47799999999999976,-0.7379999999999999,-0.44599999999999984,-19.042,37.134,20.142000000000053
2026-07-22 23:50:18.305,0.57,-0.81,-0.37,-50.42,-52.12,125.49,0.5459999999999998,-0.7859999999999999,-0.4919999999999998,7.739999999999995,-25.157999999999994,62.52600000000005
2026-07-22 23:50:18.315,0.57,-0.81,-0.37,-50.42,-52.12,125.49,0.5779999999999997,-0.756,-0.3919999999999998,75.0,-62.4,76.23400000000007
2026-07-22 23:50:18.368,0.63,-0.95,-0.33,27.4,-38.02,12.76,0.5779999999999997,-0.8019999999999999,-0.3779999999999998,42.564,-54.67199999999999,78.89600000000006
2026-07-22 23:50:18.640,0.69,-1.04,-0.4,40.1,-22.22,-20.45,0.6039999999999998,-0.866,-0.37599999999999983,21.958000000000002,-46.005999999999986,61.73200000000004
2026-07-22 23:50:18.669,0.64,-0.75,-0.33,-50.35,-101.99,-115.54,0.6199999999999998,-0.8720000000000001,-0.3599999999999999,-16.738,-53.294,25.550000000000047
2026-07-22 23:50:18.737,0.49,-0.59,-0.53,0.92,-119.38,-60.0,0.6039999999999998,-0.8280000000000001,-0.3919999999999998,-6.469999999999997,-66.746,-11.54799999999995
2026-07-22 23:50:18.848,0.4,-0.64,-0.33,9.52,-119.75,-65.86,0.5699999999999997,-0.794,-0.3839999999999998,5.5180000000000025,-80.27199999999999,-49.81799999999995
2026-07-22 23:50:19.034,0.56,-0.42,-0.74,21.48,32.9,16.11,0.5559999999999998,-0.688,-0.46599999999999986,4.334000000000003,-66.088,-49.147999999999946
2026-07-22 23:50:19.146,0.42,-0.49,-0.77,-43.88,9.03,41.32,0.5019999999999998,-0.5780000000000001,-0.5399999999999998,-12.461999999999998,-59.83799999999999,-36.79399999999995
2026-07-22 23:50:19.154,0.22,-0.22,-1.1,-180.3,-53.28,196.72,0.4179999999999998,-0.472,-0.6939999999999997,-38.452,-50.09599999999999,25.65800000000005
2026-07-22 23:50:19.392,0.22,-0.22,-1.1,-318.48,-72.63,225.28,0.36399999999999977,-0.398,-0.8079999999999998,-102.332,-40.745999999999995,82.71400000000006
2026-07-22 23:50:19.447,0.34,0.06,-0.61,-329.96,60.36,232.48,0.3519999999999998,-0.258,-0.8639999999999999,-170.22799999999998,-4.723999999999992,142.38200000000006
2026-07-22 23:50:19.510,0.47,0.13,-0.59,109.8,43.76,2.08,0.33399999999999974,-0.148,-0.8339999999999999,-152.564,-2.5519999999999925,139.57600000000005
2026-07-22 23:50:19.573,0.48,-0.19,-0.42,178.04,210.14,145.69,0.34599999999999975,-0.088,-0.7639999999999999,-108.17999999999999,37.67,160.45000000000005
2026-07-22 23:50:19.642,0.43,-0.44,-0.33,312.01,48.28,279.85,0.3879999999999998,-0.132,-0.6099999999999998,-9.717999999999995,57.982000000000006,177.07600000000008
2026-07-22 23:50:19.693,1.21,-0.94,-1.35,104.31,-232.12,-12.15,0.5859999999999997,-0.27599999999999997,-0.6599999999999998,74.84,26.084000000000003,129.5900000000001
2026-07-22 23:50:19.748,0.84,-0.82,-1.15,-166.02,-139.4,-103.6,0.6859999999999997,-0.45199999999999996,-0.7679999999999998,107.62800000000001,-13.867999999999999,62.374000000000066
2026-07-22 23:50:20.161,0.49,-0.55,-0.53,9.4,83.8,-45.17,0.6899999999999997,-0.588,-0.7559999999999999,87.548,-5.859999999999999,52.924000000000056
2026-07-22 23:50:20.176,0.16,-0.09,-1.17,10.8,-87.22,44.92,0.6259999999999997,-0.568,-0.9059999999999999,54.10000000000001,-65.332,32.77000000000006
2026-07-22 23:50:20.178,0.2,-0.14,-1.08,46.2,43.15,30.76,0.5799999999999997,-0.508,-1.0559999999999998,0.9380000000000109,-66.35799999999999,-17.04799999999994
2026-07-22 23:50:20.180,0.23,-0.19,-1.03,33.69,64.03,2.87,0.3839999999999998,-0.358,-0.9919999999999998,-13.18599999999999,-7.1279999999999974,-14.043999999999944
2026-07-22 23:50:20.409,0.1,-0.19,-0.98,41.87,54.99,-5.13,0.23599999999999977,-0.23200000000000004,-0.9579999999999999,28.392000000000014,31.750000000000007,5.650000000000057
2026-07-22 23:50:20.414,0.11,-0.16,-1.09,-45.1,-36.01,36.13,0.15999999999999978,-0.154,-1.0699999999999998,17.49200000000001,7.788000000000006,21.91000000000006
2026-07-22 23:50:20.658,0.26,-0.21,-0.98,16.6,-0.85,8.73,0.17999999999999977,-0.178,-1.032,18.652000000000008,25.062000000000005,14.672000000000057
2026-07-22 23:50:20.779,0.11,-0.17,-0.95,-9.22,13.67,-4.82,0.16199999999999978,-0.184,-1.0059999999999998,7.56800000000001,19.166000000000004,7.556000000000057
2026-07-22 23:50:21.082,0.24,-0.22,-1.02,-9.77,-0.06,-4.82,0.16399999999999978,-0.19,-1.004,-1.1239999999999892,6.348000000000004,6.018000000000057
2026-07-22 23:50:21.084,0.14,-0.21,-0.97,2.32,-4.52,19.1,0.17199999999999976,-0.194,-1.0019999999999998,-9.033999999999988,-5.553999999999997,10.864000000000058
2026-07-22 23:50:21.085,0.11,-0.15,-0.96,15.2,-10.38,34.36,0.17199999999999976,-0.192,-0.9759999999999998,3.0260000000000113,-0.42799999999999727,10.510000000000057
2026-07-22 23:50:21.142,0.09,-0.15,-0.97,9.03,-4.76,17.88,0.13799999999999976,-0.18,-0.9739999999999999,1.5120000000000107,-1.2099999999999973,12.340000000000055
2026-07-22 23:50:21.143,0.08,-0.17,-0.98,-2.62,0.49,5.55,0.13199999999999978,-0.18,-0.9799999999999998,2.8320000000000105,-3.8459999999999974,14.414000000000055
2026-07-22 23:50:21.144,0.08,-0.17,-0.98,-2.62,0.49,5.55,0.09999999999999978,-0.17,-0.9719999999999999,4.26200000000001,-3.735999999999997,16.488000000000056
2026-07-22 23:50:21.430,0.08,-0.19,-0.99,-10.93,4.03,-1.59,0.08799999999999977,-0.166,-0.9759999999999998,1.6120000000000108,-2.025999999999997,12.350000000000056
2026-07-22 23:50:21.551,0.08,-0.18,-0.98,4.76,-5.98,20.2,0.08199999999999978,-0.17200000000000001,-0.9799999999999998,-0.47599999999998915,-1.1459999999999977,9.518000000000056
2026-07-22 23:50:21.553,0.07,-0.18,-0.98,4.09,-5.43,14.77,0.07799999999999978,-0.178,-0.9819999999999999,-1.463999999999989,-1.2799999999999976,8.896000000000056
2026-07-22 23:50:21.669,0.09,-0.18,-0.98,0.67,-1.83,-3.11,0.07999999999999978,-0.18,-0.9819999999999997,-0.8059999999999891,-1.7439999999999976,7.1640000000000565
2026-07-22 23:50:21.737,0.1,-0.2,-0.99,-1.89,-0.92,-6.1,0.08399999999999978,-0.186,-0.9839999999999998,-0.6599999999999889,-2.0259999999999976,4.834000000000056
2026-07-22 23:50:22.686,0.1,-0.21,-0.98,-0.61,-2.2,-3.66,0.08799999999999977,-0.19,-0.9819999999999999,1.404000000000011,-3.2719999999999976,4.420000000000057
2026-07-22 23:50:22.696,0.07,-0.17,-0.98,-2.62,-0.06,-1.59,0.08599999999999977,-0.188,-0.9819999999999999,-0.07199999999998896,-2.0879999999999974,0.0620000000000569
2026-07-22 23:50:22.700,0.1,-0.17,-0.98,1.89,-1.16,2.2,0.09199999999999978,-0.186,-0.9819999999999999,-0.5119999999999889,-1.2339999999999975,-2.4519999999999427
2026-07-22 23:50:22.702,0.08,-0.19,-1.0,-0.18,0.12,-0.73,0.08999999999999979,-0.188,-0.9859999999999998,-0.6819999999999888,-0.8439999999999974,-1.975999999999943
2026-07-22 23:50:22.703,0.08,-0.19,-1.0,-0.18,0.12,-0.73,0.08599999999999977,-0.186,-0.9879999999999998,-0.3399999999999889,-0.6359999999999976,-0.9019999999999431
2026-07-22 23:50:22.713,0.11,-0.04,-0.98,-58.04,5.55,15.93,0.08799999999999979,-0.152,-0.9879999999999999,-11.82599999999999,0.9140000000000026,3.016000000000057
2026-07-22 23:50:22.941,0.07,-0.01,-0.88,-64.03,53.28,31.07,0.08799999999999979,-0.12,-0.9679999999999997,-24.10799999999999,11.582000000000003,9.548000000000057
2026-07-22 23:50:22.945,-0.4,-0.05,-0.86,-58.84,-61.58,140.01,-0.012000000000000222,-0.096,-0.9439999999999997,-36.25399999999999,-0.5019999999999968,37.110000000000056
2026-07-22 23:50:22.988,0.34,0.48,-1.23,-27.53,-90.15,34.06,0.039999999999999786,0.03799999999999999,-0.9899999999999999,-41.72399999999999,-18.555999999999997,44.068000000000055
2026-07-22 23:50:23.001,0.49,0.47,-1.96,-18.55,-32.78,-0.92,0.12199999999999978,0.16999999999999998,-1.182,-45.39799999999999,-25.136,44.03000000000006
2026-07-22 23:50:23.164,0.4,0.4,-2.33,-8.06,46.2,-3.05,0.1799999999999998,0.258,-1.4519999999999997,-35.401999999999994,-17.005999999999997,40.23400000000005
2026-07-22 23:50:23.179,0.3,0.15,-2.14,16.78,110.84,-27.59,0.2259999999999998,0.29,-1.704,-19.239999999999988,-5.494,28.502000000000056
2026-07-22 23:50:23.227,-0.4,0.22,0.29,7.87,60.42,-121.03,0.2259999999999998,0.344,-1.474,-5.897999999999988,18.906000000000002,-23.705999999999943
2026-07-22 23:50:23.291,-0.31,0.15,0.26,-17.58,-35.22,-28.56,0.09599999999999978,0.27799999999999997,-1.1759999999999997,-3.907999999999988,29.892000000000003,-36.22999999999995
2026-07-22 23:50:23.411,-0.17,-0.08,-0.08,4.94,-163.09,123.17,-0.03600000000000021,0.16799999999999998,-0.7999999999999998,0.7900000000000125,3.830000000000001,-11.411999999999946
2026-07-22 23:50:23.769,0.6,0.14,-1.82,-0.67,63.6,-70.5,0.0039999999999997815,0.11600000000000002,-0.6979999999999998,2.2680000000000122,7.310000000000004,-24.901999999999944
2026-07-22 23:50:24.025,-0.11,-0.04,-0.53,-84.35,-50.6,145.26,-0.07800000000000021,0.078,-0.37599999999999983,-17.957999999999988,-24.977999999999998,9.668000000000054
2026-07-22 23:50:24.027,0.45,-0.23,-2.31,50.48,-28.38,26.31,0.09199999999999979,-0.012,-0.8959999999999997,-9.43599999999999,-42.738,39.13600000000006
2026-07-22 23:50:24.445,0.49,-0.21,-1.84,17.15,-6.71,-90.09,0.2519999999999998,-0.08399999999999999,-1.3159999999999998,-2.4899999999999887,-37.035999999999994,26.83000000000005
2026-07-22 23:50:24.452,0.49,0.19,-2.02,98.57,-267.27,1.04,0.3839999999999998,-0.029999999999999992,-1.704,16.23600000000001,-57.872,2.4040000000000545
2026-07-22 23:50:24.484,0.63,0.2,-1.97,14.1,-25.76,-72.27,0.3899999999999998,-0.017999999999999995,-1.734,19.19000000000001,-75.744,2.050000000000054
2026-07-22 23:50:24.547,0.57,-0.11,-2.21,12.33,60.12,-126.89,0.5259999999999998,-0.031999999999999994,-2.07,38.52600000000001,-53.6,-52.37999999999994
2026-07-22 23:50:24.611,0.18,-0.03,-0.55,-20.94,89.66,3.72,0.4719999999999998,0.00800000000000001,-1.718,24.24200000000001,-29.992000000000008,-56.897999999999946
2026-07-22 23:50:24.696,-0.12,0.08,0.18,-59.2,150.15,42.66,0.34999999999999976,0.06600000000000002,-1.3139999999999996,8.972000000000008,1.3800000000000012,-30.347999999999946
2026-07-22 23:50:24.721,-0.59,-0.19,-0.04,-147.64,311.46,85.45,0.13399999999999976,-0.009999999999999992,-0.9179999999999998,-40.26999999999999,117.12599999999998,-13.46599999999994
2026-07-22 23:50:24.737,-0.59,-0.19,-0.04,-147.64,311.46,85.45,-0.11000000000000021,-0.088,-0.5319999999999998,-72.61799999999998,184.57,18.078000000000056
2026-07-22 23:50:24.784,-0.14,-0.23,-0.25,-129.64,142.64,34.3,-0.2520000000000002,-0.11200000000000002,-0.13999999999999985,-101.01199999999997,201.07399999999998,50.31600000000005
2026-07-22 23:50:24.911,0.49,0.06,-0.4,77.7,-170.23,8.42,-0.1900000000000002,-0.094,-0.10999999999999983,-81.28399999999998,149.09599999999998,51.25600000000005
2026-07-22 23:50:25.025,0.45,0.28,-1.96,-11.11,-305.97,29.97,-0.07600000000000019,-0.054000000000000006,-0.5379999999999998,-71.66599999999998,57.87199999999998,48.71800000000006
2026-07-22 23:50:25.038,0.56,0.31,-1.67,13.61,-168.7,-39.06,0.15399999999999978,0.046000000000000006,-0.8639999999999997,-39.41599999999998,-38.160000000000025,23.816000000000052
2026-07-22 23:50:25.047,0.88,-0.06,-2.01,21.12,27.71,-67.2,0.4479999999999998,0.07200000000000001,-1.2579999999999998,-5.6639999999999855,-94.91000000000003,-6.7139999999999445
2026-07-22 23:50:25.086,0.88,-0.06,-2.01,21.12,27.71,-67.2,0.6519999999999998,0.10600000000000001,-1.6099999999999999,24.488000000000014,-117.896,-27.013999999999943
2026-07-22 23:50:25.150,-0.08,-0.08,-0.95,-4.82,100.28,-1.65,0.5379999999999998,0.078,-1.7199999999999995,7.9840000000000115,-63.794000000000025,-29.027999999999942
2026-07-22 23:50:25.325,-0.3,0.15,0.34,-26.06,176.09,25.33,0.38799999999999973,0.052000000000000005,-1.2599999999999998,4.994000000000012,32.61799999999998,-29.95599999999995
2026-07-22 23:50:25.510,0.95,0.29,-1.0,93.02,-108.09,-55.42,0.46599999999999975,0.048,-1.126,20.876000000000012,44.73999999999998,-33.227999999999945
2026-07-22 23:50:25.519,0.4,0.07,-1.53,2.69,-167.66,-12.7,0.3699999999999998,0.074,-1.0299999999999998,17.190000000000012,5.66599999999998,-22.327999999999943
2026-07-22 23:50:25.647,0.26,0.23,-1.7,27.47,-56.21,-89.42,0.24599999999999977,0.132,-0.9679999999999997,18.460000000000015,-11.11800000000002,-26.771999999999945
2026-07-22 23:50:25.746,0.38,0.11,-0.62,-14.47,49.26,-26.06,0.3379999999999998,0.16999999999999998,-0.9019999999999998,16.530000000000012,-21.32200000000002,-31.65399999999994
2026-07-22 23:50:25.752,0.32,-0.0,-0.66,-38.7,41.75,0.49,0.46199999999999974,0.13999999999999999,-1.1019999999999999,14.002000000000013,-48.19000000000002,-36.62199999999994
2026-07-22 23:50:25.864,0.19,-0.03,-0.95,-6.96,24.9,-40.04,0.3099999999999998,0.076,-1.0919999999999999,-5.993999999999987,-21.59200000000002,-33.54599999999994
2026-07-22 23:50:25.926,0.37,0.15,-0.88,3.17,-16.78,29.11,0.30399999999999977,0.092,-0.962,-5.897999999999986,8.58399999999998,-25.183999999999944
2026-07-22 23:50:26.046,0.32,0.19,-0.93,10.07,-8.67,3.85,0.3159999999999998,0.084,-0.8079999999999998,-9.377999999999988,18.09199999999998,-6.5299999999999425
2026-07-22 23:50:26.053,0.32,0.17,-0.96,9.83,-3.05,-18.01,0.3039999999999997,0.096,-0.8759999999999998,-4.5179999999999865,7.629999999999981,-4.919999999999943
2026-07-22 23:50:26.111,0.39,0.05,-0.93,-4.27,-16.42,5.13,0.3179999999999998,0.10600000000000001,-0.9299999999999997,2.3680000000000145,-4.004000000000019,-3.991999999999943
2026-07-22 23:50:26.165,0.5,0.07,-0.95,-5.86,-21.91,8.12,0.3799999999999998,0.12600000000000003,-0.9299999999999999,2.5880000000000143,-13.36600000000002,5.6400000000000565
2026-07-22 23:50:26.362,0.36,0.12,-0.94,5.07,-5.37,14.16,0.3779999999999998,0.12000000000000002,-0.9419999999999998,2.968000000000015,-11.08400000000002,2.6500000000000568
2026-07-22 23:50:26.401,0.24,0.15,-0.94,17.03,5.98,3.6,0.36199999999999977,0.11200000000000002,-0.9439999999999997,4.360000000000015,-8.154000000000018,2.600000000000057
2026-07-22 23:50:26.465,0.31,0.15,-0.95,-5.74,-7.39,24.66,0.35999999999999976,0.10800000000000001,-0.9419999999999998,1.246000000000015,-9.022000000000018,11.134000000000057
2026-07-22 23:50:26.591,0.33,0.07,-0.95,-4.88,5.07,-19.17,0.34799999999999975,0.11200000000000002,-0.9459999999999997,1.124000000000015,-4.724000000000018,6.274000000000056
2026-07-22 23:50:26.645,0.26,0.09,-0.96,-1.46,5.0,4.09,0.29999999999999977,0.11600000000000002,-0.9479999999999998,2.0040000000000147,0.6579999999999817,5.468000000000057
2026-07-22 23:50:26.654,0.26,0.09,-0.96,-1.46,5.0,4.09,0.27999999999999975,0.11000000000000001,-0.9519999999999997,0.6980000000000149,2.7319999999999816,3.4540000000000566
2026-07-22 23:50:26.828,0.27,0.03,-0.96,-0.43,1.71,-3.23,0.28599999999999975,0.08600000000000001,-0.9559999999999998,-2.7939999999999854,1.8779999999999817,2.088000000000057
2026-07-22 23:50:26.892,0.39,0.11,-0.95,11.54,-4.88,-38.21,0.30199999999999977,0.078,-0.9559999999999997,0.6620000000000147,2.379999999999982,-10.485999999999944
2026-07-22 23:50:26.895,0.4,0.1,-0.94,8.42,0.79,-43.76,0.3159999999999998,0.08400000000000002,-0.9539999999999997,3.3220000000000143,1.5239999999999816,-15.403999999999943
2026-07-22 23:50:26.945,0.41,0.09,-0.94,4.39,5.62,-43.88,0.34599999999999975,0.084,-0.9499999999999998,4.492000000000014,1.6479999999999815,-24.997999999999944
2026-07-22 23:50:27.011,0.39,0.09,-0.93,2.56,9.28,-41.32,0.3719999999999998,0.08400000000000002,-0.9439999999999997,5.296000000000015,2.5039999999999814,-34.07999999999994
2026-07-22 23:50:27.067,0.3,0.12,-0.92,6.47,15.14,-38.51,0.3779999999999998,0.10200000000000001,-0.9359999999999997,6.676000000000014,5.189999999999982,-41.13599999999994
2026-07-22 23:50:27.179,0.29,0.14,-0.95,7.57,19.04,-33.87,0.35799999999999976,0.10800000000000001,-0.9359999999999997,5.882000000000015,9.97399999999998,-40.267999999999944
2026-07-22 23:50:27.194,0.3,0.13,-0.97,7.75,27.53,-34.48,0.33799999999999975,0.11400000000000002,-0.9419999999999998,5.748000000000014,15.32199999999998,-38.411999999999935
2026-07-22 23:50:27.196,0.2,0.19,-1.03,34.0,52.49,-95.64,0.29599999999999976,0.13400000000000004,-0.9599999999999997,11.670000000000016,24.69599999999998,-48.76399999999994
2026-07-22 23:50:27.247,0.2,0.19,-1.03,34.0,52.49,-95.64,0.25799999999999973,0.15400000000000003,-0.9799999999999999,17.958000000000016,33.33799999999998,-59.62799999999994
2026-07-22 23:50:27.369,0.19,0.18,-1.05,51.94,59.2,-141.3,0.23599999999999977,0.166,-1.0059999999999998,27.052000000000014,42.149999999999984,-80.18599999999995
2026-07-22 23:50:27.480,0.48,-0.09,-1.03,80.32,97.66,-79.59,0.27399999999999974,0.12,-1.0219999999999998,41.60200000000002,57.87399999999998,-89.32999999999996
2026-07-22 23:50:27.496,0.25,0.07,-0.74,38.64,58.11,2.2,0.2639999999999998,0.10800000000000001,-0.9759999999999998,47.780000000000015,63.989999999999974,-81.99399999999994
2026-07-22 23:50:27.732,0.66,0.5,-0.77,-6.29,-80.2,6.59,0.35599999999999976,0.17,-0.9239999999999998,39.722000000000016,37.45199999999998,-61.547999999999945
2026-07-22 23:50:27.747,0.66,0.5,-0.77,-6.29,-80.2,6.59,0.4479999999999998,0.23200000000000004,-0.8719999999999999,31.664000000000016,10.913999999999978,-41.10199999999995
2026-07-22 23:50:27.788,0.11,0.23,-1.11,49.5,-98.27,24.6,0.43199999999999983,0.24200000000000005,-0.8839999999999998,31.176000000000016,-20.58000000000002,-7.921999999999943
2026-07-22 23:50:27.846,0.43,-0.12,-0.97,-12.08,-58.65,65.31,0.4219999999999998,0.23600000000000004,-0.8719999999999999,12.696000000000017,-51.84200000000002,21.058000000000057
2026-07-22 23:50:27.971,0.49,0.09,-0.96,-159.0,-17.76,-5.49,0.46999999999999986,0.24000000000000005,-0.9159999999999998,-26.831999999999983,-67.01600000000002,19.52000000000006
2026-07-22 23:50:28.752,0.42,0.86,-0.35,-644.53,16.05,-25.94,0.4219999999999998,0.312,-0.8319999999999999,-154.47999999999996,-47.76600000000002,13.014000000000056
2026-07-22 23:50:28.762,0.65,-0.11,0.74,56.64,219.67,28.56,0.41999999999999976,0.19,-0.5299999999999998,-141.89399999999998,12.20799999999998,17.408000000000058
2026-07-22 23:50:28.764,0.34,0.1,0.75,38.27,48.46,-54.26,0.46599999999999975,0.164,-0.1579999999999998,-144.14,41.55399999999998,1.6360000000000583
2026-07-22 23:50:28.816,0.48,-0.42,0.69,-56.7,44.62,-99.24,0.4759999999999998,0.10400000000000001,0.17400000000000018,-153.06399999999996,62.207999999999984,-31.273999999999944
2026-07-22 23:50:28.869,0.44,-0.59,0.66,-94.85,91.31,-91.86,0.46599999999999986,-0.03199999999999997,0.4980000000000002,-140.23399999999998,84.02199999999998,-48.54799999999994
2026-07-22 23:50:28.921,0.43,-0.79,0.59,-98.57,88.38,-109.01,0.4679999999999998,-0.362,0.6860000000000002,-31.041999999999973,98.48799999999999,-65.16199999999995
2026-07-22 23:50:28.984,0.54,-0.84,0.63,-106.93,90.15,-221.92,0.44599999999999973,-0.508,0.6640000000000001,-63.75599999999997,72.58399999999997,-115.25799999999995
2026-07-22 23:50:29.056,0.62,-0.77,0.69,-93.2,85.21,-261.23,0.5019999999999998,-0.682,0.6520000000000001,-90.04999999999998,79.934,-156.65199999999996
2026-07-22 23:50:29.117,0.67,-0.68,0.62,-100.89,55.18,-233.58,0.5399999999999998,-0.734,0.6380000000000001,-98.88799999999996,82.04599999999998,-183.51999999999992
2026-07-22 23:50:29.159,0.66,-0.58,0.51,-75.44,34.61,-55.24,0.5839999999999999,-0.732,0.6080000000000002,-95.00599999999997,70.70599999999999,-176.19599999999994
2026-07-22 23:50:29.230,0.68,-0.45,0.48,-38.7,34.06,-68.3,0.6339999999999998,-0.664,0.5860000000000001,-83.03199999999998,59.841999999999985,-168.05399999999995
2026-07-22 23:50:29.286,0.68,-0.39,0.46,-63.11,-0.06,-40.34,0.6619999999999997,-0.5740000000000001,0.5520000000000003,-74.26799999999999,41.799999999999976,-131.73799999999994
2026-07-22 23:50:29.349,0.7,-0.43,0.52,-49.99,-3.72,-29.48,0.6779999999999998,-0.506,0.5180000000000001,-65.62599999999998,24.013999999999985,-85.38799999999995
