Timestamp,AccX,AccY,AccZ,GyroX,GyroY,GyroZ
2026-07-22 23:49:40.130,0.19,-0.56,0.5,219.54,-106.81,-167.05
2026-07-22 23:49:40.173,0.13,-0.54,0.42,159.18,-141.54,129.82
2026-07-22 23:49:40.181,0.13,-0.54,0.42,159.18,-141.54,129.82
2026-07-22 23:49:40.211,0.1,-0.39,0.26,178.04,-151.18,192.69
2026-07-22 23:49:40.242,0.19,-0.25,0.3,219.24,-103.27,70.68
2026-07-22 23:49:40.257,0.19,-0.25,0.3,219.24,-103.27,70.68
2026-07-22 23:49:40.277,0.43,-0.54,0.64,136.96,-68.42,-85.51
2026-07-22 23:49:40.317,0.43,-0.54,0.64,136.96,-68.42,-85.51
2026-07-22 23:49:40.326,0.69,-1.15,0.92,-85.82,-58.72,-175.6
2026-07-22 23:49:40.399,0.55,-1.5,1.06,-164.67,45.9,-129.21
2026-07-22 23:49:40.399,0.55,-1.5,1.06,-164.67,45.9,-129.21
2026-07-22 23:49:40.414,0.17,-1.26,1.42,33.14,153.69,-30.21
2026-07-22 23:49:40.430,0.17,-1.26,1.42,33.14,153.69,-30.21
2026-07-22 23:49:40.451,0.04,-0.88,1.67,167.18,109.56,8.18
2026-07-22 23:49:40.480,0.03,-0.98,1.69,52.12,30.7,35.52
2026-07-22 23:49:40.496,0.03,-0.98,1.69,52.12,30.7,35.52
2026-07-22 23:49:40.548,-0.01,-1.25,1.83,-57.98,30.58,106.69
2026-07-22 23:49:40.548,-0.01,-1.25,1.83,-57.98,30.58,106.69
2026-07-22 23:49:40.574,0.24,-1.07,2.0,-3.97,70.86,228.27
2026-07-22 23:49:40.620,0.77,-0.39,1.92,60.3,133.79,349.3
2026-07-22 23:49:40.620,0.77,-0.39,1.92,60.3,133.79,349.3
2026-07-22 23:49:40.646,1.09,0.35,1.46,33.87,242.55,391.24
2026-07-22 23:49:40.653,1.09,0.35,1.46,33.87,242.55,391.24
2026-07-22 23:49:40.693,1.0,0.78,0.82,1.65,343.14,323.97
2026-07-22 23:49:40.719,1.0,0.78,0.82,1.65,343.14,323.97
2026-07-22 23:49:40.721,1.0,0.78,0.82,1.65,343.14,323.97
2026-07-22 23:49:40.746,1.0,0.78,0.82,1.65,343.14,323.97
2026-07-22 23:49:40.760,0.37,0.67,-0.13,31.56,386.41,1.46
2026-07-22 23:49:40.805,0.15,0.31,-0.3,24.41,341.8,-150.39
2026-07-22 23:49:40.826,0.15,0.31,-0.3,24.41,341.8,-150.39
2026-07-22 23:49:40.843,0.02,-0.14,-0.34,32.59,251.83,-232.54
2026-07-22 23:49:40.872,0.02,-0.14,-0.34,32.59,251.83,-232.54
2026-07-22 23:49:40.895,-0.07,-0.63,-0.41,117.74,133.54,-241.88
2026-07-22 23:49:40.919,-0.17,-1.03,-0.54,206.97,21.79,-218.87
2026-07-22 23:49:40.947,-0.17,-1.03,-0.54,206.97,21.79,-218.87
2026-07-22 23:49:40.976,-0.24,-1.21,-0.58,190.25,-59.14,-191.89
2026-07-22 23:49:40.993,-0.24,-1.21,-0.58,190.25,-59.14,-191.89
2026-07-22 23:49:41.020,-0.23,-1.14,-0.42,99.61,-102.05,-154.11
2026-07-22 23:49:41.036,-0.2,-1.05,-0.04,18.13,-123.54,-114.56
2026-07-22 23:49:41.062,-0.2,-1.05,-0.04,18.13,-123.54,-114.56
2026-07-22 23:49:41.095,-0.19,-1.06,0.33,-24.6,-137.27,-88.93
2026-07-22 23:49:41.110,-0.19,-1.06,0.33,-24.6,-137.27,-88.93
2026-07-22 23:49:41.141,-0.15,-1.11,0.46,-18.31,-142.58,-74.89
2026-07-22 23:49:41.156,-0.11,-1.21,0.44,41.38,-153.38,-69.15
2026-07-22 23:49:41.186,-0.11,-1.21,0.44,41.38,-153.38,-69.15
2026-07-22 23:49:41.224,-0.04,-1.26,0.44,101.26,-170.35,-56.34
2026-07-22 23:49:41.236,-0.04,-1.26,0.44,101.26,-170.35,-56.34
2026-07-22 23:49:41.262,0.01,-1.31,0.47,97.41,-164.25,-27.59
2026-07-22 23:49:41.277,0.02,-1.38,0.46,25.82,-127.14,2.08
2026-07-22 23:49:41.308,0.02,-1.38,0.46,25.82,-127.14,2.08
2026-07-22 23:49:41.352,0.03,-1.34,0.47,-36.07,-104.31,19.17
2026-07-22 23:49:41.397,0.03,-1.34,0.47,-36.07,-104.31,19.17
2026-07-22 23:49:41.413,0.04,-1.25,0.47,-45.84,-108.15,22.89
2026-07-22 23:49:41.413,0.04,-1.25,0.47,-29.79,-120.24,14.47
2026-07-22 23:49:41.413,0.08,-1.19,0.47,-29.79,-120.24,14.47
2026-07-22 23:49:41.469,0.17,-1.17,0.5,-14.77,-124.76,3.72
2026-07-22 23:49:41.469,0.17,-1.17,0.5,-14.77,-124.76,3.72
2026-07-22 23:49:41.531,0.23,-1.24,0.5,-49.32,-94.48,-1.4
2026-07-22 23:49:41.533,0.23,-1.24,0.5,-49.32,-94.48,-1.4
2026-07-22 23:49:41.533,0.26,-1.36,0.45,-105.96,-60.12,-6.1
2026-07-22 23:49:41.586,0.29,-1.42,0.43,-117.61,-70.98,-1.95
2026-07-22 23:49:41.586,0.29,-1.42,0.43,-117.61,-70.98,-1.95
2026-07-22 23:49:41.660,0.3,-1.4,0.47,-83.25,-113.04,19.41
2026-07-22 23:49:41.660,0.3,-1.4,0.47,-83.25,-113.04,19.41
2026-07-22 23:49:41.660,0.3,-1.29,0.51,-41.63,-135.01,52.43
2026-07-22 23:49:41.711,0.26,-1.11,0.54,-20.81,-121.22,84.96
2026-07-22 23:49:41.711,0.26,-1.11,0.54,-20.81,-121.22,84.96
2026-07-22 23:49:41.770,0.17,-0.98,0.56,-11.84,-97.72,99.67
2026-07-22 23:49:41.770,0.17,-0.98,0.56,-11.84,-97.72,99.67
2026-07-22 23:49:41.770,0.08,-0.93,0.56,-2.99,-80.02,97.47
2026-07-22 23:49:41.841,0.08,-0.93,0.56,-2.99,-80.02,97.47
2026-07-22 23:49:41.841,0.01,-0.86,0.51,-9.89,-56.34,95.4
2026-07-22 23:49:41.891,-0.07,-0.79,0.43,-35.89,-22.64,91.67
2026-07-22 23:49:41.892,-0.07,-0.79,0.43,-35.89,-22.64,91.67
2026-07-22 23:49:41.892,-0.15,-0.77,0.35,-42.36,1.83,82.09
2026-07-22 23:49:41.957,-0.15,-0.77,0.35,-42.36,1.83,82.09
2026-07-22 23:49:41.957,-0.22,-0.79,0.26,-16.3,15.08,77.58
2026-07-22 23:49:41.957,-0.22,-0.79,0.26,-16.3,15.08,77.58
2026-07-22 23:49:42.014,-0.27,-0.77,0.17,6.9,24.66,75.44
2026-07-22 23:49:42.014,-0.32,-0.74,0.12,10.56,26.49,66.65
2026-07-22 23:49:42.062,-0.32,-0.74,0.12,10.56,26.49,66.65
2026-07-22 23:49:42.062,-0.35,-0.72,0.12,3.78,26.12,58.17
2026-07-22 23:49:42.062,-0.35,-0.72,0.12,3.78,26.12,58.17
2026-07-22 23:49:42.133,-0.38,-0.7,0.14,3.54,27.28,54.99
2026-07-22 23:49:42.134,-0.38,-0.7,0.14,18.13,31.19,53.04
2026-07-22 23:49:42.195,-0.41,-0.68,0.15,18.13,31.19,53.04
2026-07-22 23:49:42.195,-0.45,-0.65,0.08,30.58,45.59,49.5
2026-07-22 23:49:42.195,-0.45,-0.65,0.08,30.58,45.59,49.5
2026-07-22 23:49:42.258,-0.49,-0.63,-0.01,26.73,63.23,44.43
2026-07-22 23:49:42.258,-0.49,-0.63,-0.01,26.73,63.23,44.43
2026-07-22 23:49:42.311,-0.52,-0.64,-0.05,16.05,69.7,36.38
2026-07-22 23:49:42.313,-0.55,-0.69,-0.08,11.35,64.64,25.02
2026-07-22 23:49:42.313,-0.55,-0.69,-0.08,11.35,64.64,25.02
2026-07-22 23:49:42.363,-0.58,-0.72,-0.09,12.02,54.75,16.36
2026-07-22 23:49:42.363,-0.58,-0.72,-0.09,12.02,54.75,16.36
2026-07-22 23:49:42.427,-0.59,-0.73,-0.04,11.66,43.7,12.7
2026-07-22 23:49:42.427,-0.59,-0.73,-0.04,11.66,43.7,12.7
2026-07-22 23:49:42.427,-0.58,-0.78,-0.0,9.83,39.0,8.73
2026-07-22 23:49:42.493,-0.57,-0.84,-0.0,11.35,43.64,7.39
2026-07-22 23:49:42.493,-0.57,-0.84,-0.0,11.35,43.64,7.39
2026-07-22 23:49:42.493,-0.57,-0.83,-0.05,18.31,51.15,15.08
2026-07-22 23:49:42.546,-0.57,-0.83,-0.05,18.31,51.15,15.08
2026-07-22 23:49:42.546,-0.57,-0.75,-0.13,26.18,56.21,26.37
2026-07-22 23:49:42.611,-0.57,-0.75,-0.13,26.18,56.21,26.37
2026-07-22 23:49:42.611,-0.58,-0.7,-0.19,23.56,54.14,26.67
2026-07-22 23:49:42.611,-0.57,-0.73,-0.22,9.46,46.75,15.44
2026-07-22 23:49:42.670,-0.57,-0.73,-0.22,9.46,46.75,15.44
2026-07-22 23:49:42.670,-0.55,-0.78,-0.25,-1.83,41.02,7.93
2026-07-22 23:49:42.670,-0.55,-0.78,-0.25,-1.83,41.02,7.93
2026-07-22 23:49:42.738,-0.53,-0.78,-0.3,-5.31,41.08,11.54
2026-07-22 23:49:42.781,-0.53,-0.78,-0.3,-5.31,41.08,11.54
2026-07-22 23:49:42.791,-0.54,-0.74,-0.39,-10.5,46.14,19.9
2026-07-22 23:49:42.791,-0.57,-0.73,-0.45,-27.47,53.1,29.05
2026-07-22 23:49:42.791,-0.57,-0.73,-0.45,-27.47,53.1,29.05
2026-07-22 23:49:42.858,-0.6,-0.71,-0.49,-63.78,66.28,52.73
2026-07-22 23:49:42.858,-0.6,-0.71,-0.49,-63.78,66.28,52.73
2026-07-22 23:49:42.918,-0.61,-0.62,-0.55,-122.99,82.95,106.51
2026-07-22 23:49:42.918,-0.61,-0.62,-0.55,-172.18,84.35,196.41
2026-07-22 23:49:42.918,-0.61,-0.46,-0.58,-172.18,84.35,196.41
2026-07-22 23:49:42.974,-0.6,-0.21,-0.61,-168.58,63.9,317.87
2026-07-22 23:49:42.974,-0.6,-0.21,-0.61,-168.58,63.9,317.87
2026-07-22 23:49:43.039,-0.64,0.16,-0.59,-165.41,37.9,467.83
2026-07-22 23:49:43.039,-0.64,0.16,-0.59,-165.41,37.9,467.83
2026-07-22 23:49:43.039,-0.59,0.58,-0.4,-175.42,2.62,529.97
2026-07-22 23:49:43.090,-0.45,0.84,-0.23,-147.46,-48.95,404.3
2026-07-22 23:49:43.090,-0.45,0.84,-0.23,-147.46,-48.95,404.3
2026-07-22 23:49:43.145,-0.32,0.85,-0.2,-113.83,-69.09,255.07
2026-07-22 23:49:43.145,-0.32,0.85,-0.2,-113.83,-69.09,255.07
2026-07-22 23:49:43.145,-0.16,0.83,-0.26,-72.02,-36.68,193.48
2026-07-22 23:49:43.216,-0.03,0.86,-0.33,-15.93,9.95,166.02
2026-07-22 23:49:43.268,-0.03,0.86,-0.33,-15.93,9.95,166.02
2026-07-22 23:49:43.268,0.03,0.88,-0.33,15.32,40.1,151.06
2026-07-22 23:49:43.268,0.03,0.88,-0.33,15.32,40.1,151.06
2026-07-22 23:49:43.268,0.06,0.86,-0.31,30.76,46.69,148.56
2026-07-22 23:49:43.329,0.06,0.86,-0.31,30.76,46.69,148.56
2026-07-22 23:49:43.329,0.06,0.86,-0.31,30.76,46.69,148.56
2026-07-22 23:49:43.329,0.06,0.86,-0.31,30.76,46.69,148.56
2026-07-22 23:49:43.378,0.35,0.77,-0.36,79.59,73.97,154.17
2026-07-22 23:49:43.378,0.51,0.71,-0.39,100.34,116.46,145.94
2026-07-22 23:49:43.378,0.51,0.71,-0.39,100.34,116.46,145.94
2026-07-22 23:49:43.451,0.64,0.64,-0.44,117.0,136.78,135.62
2026-07-22 23:49:43.451,0.64,0.64,-0.44,117.0,136.78,135.62
2026-07-22 23:49:43.505,0.73,0.55,-0.47,134.83,154.24,130.55
2026-07-22 23:49:43.511,0.82,0.44,-0.41,160.89,209.35,131.16
2026-07-22 23:49:43.511,0.82,0.44,-0.41,160.89,209.35,131.16
2026-07-22 23:49:43.569,0.95,0.33,-0.36,183.72,239.26,129.7
2026-07-22 23:49:43.569,0.95,0.33,-0.36,183.72,239.26,129.7
2026-07-22 23:49:43.645,1.0,0.21,-0.41,174.19,160.71,129.15
2026-07-22 23:49:43.645,1.0,0.21,-0.41,113.46,33.02,115.66
2026-07-22 23:49:43.682,0.88,0.14,-0.41,113.46,33.02,115.66
2026-07-22 23:49:43.682,0.76,0.11,-0.35,35.22,-25.33,97.11
2026-07-22 23:49:43.682,0.76,0.11,-0.35,35.22,-25.33,97.11
2026-07-22 23:49:43.745,0.84,0.03,-0.31,-0.24,-8.18,110.11
2026-07-22 23:49:43.745,0.98,-0.09,-0.33,-0.73,12.21,131.41
2026-07-22 23:49:43.816,0.98,-0.09,-0.33,-0.73,12.21,131.41
2026-07-22 23:49:43.816,1.02,-0.2,-0.35,-7.93,-0.85,126.46
2026-07-22 23:49:43.816,1.02,-0.2,-0.35,-7.93,-0.85,126.46
2026-07-22 23:49:43.930,0.96,-0.27,-0.37,-15.5,-14.89,106.51
2026-07-22 23:49:43.930,0.96,-0.27,-0.37,-15.5,-14.89,106.51
2026-07-22 23:49:43.930,0.88,-0.32,-0.33,-4.94,3.97,94.42
2026-07-22 23:49:43.930,0.84,-0.36,-0.25,15.44,37.78,95.09
2026-07-22 23:49:43.930,0.84,-0.36,-0.25,15.44,37.78,95.09
2026-07-22 23:49:43.995,0.78,-0.42,-0.19,26.37,42.79,99.73
2026-07-22 23:49:43.995,0.78,-0.42,-0.19,26.37,42.79,99.73
2026-07-22 23:49:43.995,0.77,-0.49,-0.25,0.85,6.23,85.33
2026-07-22 23:49:44.045,0.77,-0.49,-0.25,0.85,6.23,85.33
2026-07-22 23:49:44.045,0.81,-0.51,-0.37,-67.38,-23.56,35.1
2026-07-22 23:49:44.113,0.84,-0.46,-0.41,-122.07,-35.46,-13.67
2026-07-22 23:49:44.142,0.84,-0.46,-0.41,-122.07,-35.46,-13.67
2026-07-22 23:49:44.142,0.82,-0.41,-0.44,-119.93,-70.25,-27.89
2026-07-22 23:49:44.176,0.82,-0.41,-0.44,-119.93,-70.25,-27.89
2026-07-22 23:49:44.176,0.8,-0.35,-0.49,-97.78,-108.89,-27.71
2026-07-22 23:49:44.184,0.8,-0.35,-0.49,-97.78,-108.89,-27.71
2026-07-22 23:49:44.232,0.8,-0.35,-0.49,-97.78,-108.89,-27.71
2026-07-22 23:49:44.232,0.8,-0.35,-0.49,-97.78,-108.89,-27.71
2026-07-22 23:49:44.280,0.67,-0.18,-0.71,-60.49,-83.19,0.73
2026-07-22 23:49:44.280,0.63,-0.19,-0.78,-28.38,-65.92,57.62
2026-07-22 23:49:44.280,0.63,-0.19,-0.78,-28.38,-65.92,57.62
2026-07-22 23:49:44.350,0.59,-0.28,-0.84,-31.92,-96.19,112.98
2026-07-22 23:49:44.350,0.59,-0.28,-0.84,-31.92,-96.19,112.98
2026-07-22 23:49:44.350,0.52,-0.39,-0.93,-64.76,-132.75,137.82
2026-07-22 23:49:44.416,0.52,-0.39,-0.93,-109.92,-135.8,132.02
2026-07-22 23:49:44.416,0.41,-0.41,-1.03,-109.92,-135.8,132.02
2026-07-22 23:49:44.469,0.25,-0.32,-1.08,-156.13,-127.56,81.67
2026-07-22 23:49:44.469,0.25,-0.32,-1.08,-156.13,-127.56,81.67
2026-07-22 23:49:44.469,0.11,-0.14,-1.11,-208.13,-135.5,-44.31
2026-07-22 23:49:44.532,0.11,-0.14,-1.11,-208.13,-135.5,-44.31
2026-07-22 23:49:44.532,0.1,0.12,-1.16,-261.17,-164.86,-200.93
2026-07-22 23:49:44.583,0.05,0.34,-1.12,-260.62,-134.46,-266.3
2026-07-22 23:49:44.592,0.05,0.34,-1.12,-260.62,-134.46,-266.3
2026-07-22 23:49:44.594,-0.11,0.41,-0.95,-197.75,-36.99,-220.34
2026-07-22 23:49:44.652,-0.11,0.41,-0.95,-197.75,-36.99,-220.34
2026-07-22 23:49:44.652,-0.17,0.45,-0.81,-130.92,-8.85,-165.53
2026-07-22 23:49:44.707,-0.15,0.48,-0.74,-94.42,-38.02,-138.98
2026-07-22 23:49:44.707,-0.15,0.48,-0.74,-94.42,-38.02,-138.98
2026-07-22 23:49:44.707,-0.22,0.46,-0.68,-77.88,-17.09,-108.4
2026-07-22 23:49:44.772,-0.22,0.46,-0.68,-77.88,-17.09,-108.4
2026-07-22 23:49:44.772,-0.32,0.49,-0.67,-54.5,22.71,-83.25
2026-07-22 23:49:44.832,-0.32,0.49,-0.67,-6.96,22.71,-60.79
2026-07-22 23:49:44.832,-0.38,0.56,-0.72,-6.96,22.71,-60.79
2026-07-22 23:49:44.832,-0.39,0.58,-0.79,55.3,4.21,-14.16
2026-07-22 23:49:44.881,-0.39,0.58,-0.79,55.3,4.21,-14.16
2026-07-22 23:49:44.881,-0.36,0.54,-0.85,99.55,-12.63,33.39
2026-07-22 23:49:44.881,-0.36,0.54,-0.85,99.55,-12.63,33.39
2026-07-22 23:49:44.951,-0.29,0.46,-0.88,132.32,-18.19,67.26
2026-07-22 23:49:44.951,-0.22,0.2,-0.91,234.74,8.91,107.48
2026-07-22 23:49:45.020,-0.22,0.2,-0.91,234.74,8.91,107.48
2026-07-22 23:49:45.020,-0.21,-0.13,-0.94,335.63,14.4,106.63
2026-07-22 23:49:45.020,-0.21,-0.13,-0.94,335.63,14.4,106.63
2026-07-22 23:49:45.066,-0.26,-0.35,-0.93,298.58,-63.9,48.95
2026-07-22 23:49:45.072,-0.26,-0.35,-0.93,298.58,-63.9,48.95
2026-07-22 23:49:45.130,-0.26,-0.35,-0.93,298.58,-63.9,48.95
2026-07-22 23:49:45.132,-0.26,-0.35,-0.93,298.58,-63.9,48.95
2026-07-22 23:49:45.132,-0.46,-0.47,-0.96,135.07,-116.88,34.12
2026-07-22 23:49:45.182,-0.64,-0.33,-0.92,47.79,-31.07,65.43
2026-07-22 23:49:45.182,-0.64,-0.33,-0.92,47.79,-31.07,65.43
2026-07-22 23:49:45.261,-0.71,-0.15,-0.89,-60.79,33.33,105.65
2026-07-22 23:49:45.261,-0.71,-0.15,-0.89,-60.79,33.33,105.65
2026-07-22 23:49:45.261,-0.61,-0.02,-0.96,-202.58,67.5,131.53
2026-07-22 23:49:45.308,-0.47,0.13,-0.97,-342.29,80.14,126.95
2026-07-22 23:49:45.308,-0.47,0.13,-0.97,-342.29,80.14,126.95
2026-07-22 23:49:45.371,-0.38,0.37,-0.83,-410.28,73.97,127.99
2026-07-22 23:49:45.371,-0.38,0.37,-0.83,-410.28,73.97,127.99
2026-07-22 23:49:45.372,-0.28,0.6,-0.62,-411.87,59.14,156.37
2026-07-22 23:49:45.432,-0.28,0.6,-0.62,-411.87,59.14,156.37
2026-07-22 23:49:45.432,-0.11,0.69,-0.37,-381.29,37.11,187.74
2026-07-22 23:49:45.482,0.09,0.67,-0.12,-334.41,11.9,186.89
2026-07-22 23:49:45.482,0.09,0.67,-0.12,-334.41,11.9,186.89
2026-07-22 23:49:45.482,0.24,0.68,0.11,-284.97,0.24,152.22
2026-07-22 23:49:45.551,0.24,0.68,0.11,-284.97,0.24,152.22
2026-07-22 23:49:45.551,0.3,0.79,0.3,-242.49,2.69,107.73
2026-07-22 23:49:45.551,0.31,0.87,0.42,-210.45,4.88,78.98
2026-07-22 23:49:45.623,0.31,0.87,0.42,-210.45,4.88,78.98
2026-07-22 23:49:45.623,0.34,0.78,0.52,-185.61,5.43,71.59
2026-07-22 23:49:45.672,0.34,0.78,0.52,-185.61,5.43,71.59
2026-07-22 23:49:45.672,0.34,0.68,0.68,-158.69,12.82,61.4
2026-07-22 23:49:45.723,0.33,0.6,0.75,-131.77,21.79,44.8
2026-07-22 23:49:45.723,0.33,0.6,0.75,-131.77,21.79,44.8
2026-07-22 23:49:45.723,0.34,0.55,0.7,-111.33,23.56,37.29
2026-07-22 23:49:45.799,0.34,0.55,0.7,-111.33,23.56,37.29
2026-07-22 23:49:45.846,0.36,0.51,0.69,-106.81,16.54,43.88
2026-07-22 23:49:45.846,0.36,0.51,0.69,-129.58,18.62,47.3
2026-07-22 23:49:45.846,0.43,0.47,0.76,-129.58,18.62,47.3
2026-07-22 23:49:45.846,0.41,0.39,0.86,-174.62,50.96,31.86
2026-07-22 23:49:45.921,0.41,0.39,0.86,-174.62,50.96,31.86
2026-07-22 23:49:45.927,0.27,0.19,1.0,-200.5,81.12,17.58
2026-07-22 23:49:45.931,0.27,0.19,1.0,-200.5,81.12,17.58
2026-07-22 23:49:45.972,0.26,0.11,1.07,-174.13,63.05,0.67
2026-07-22 23:49:45.974,0.32,0.12,1.07,-134.03,29.11,-32.71
2026-07-22 23:49:46.021,0.32,0.12,1.07,-134.03,29.11,-32.71
2026-07-22 23:49:46.021,0.3,0.05,1.07,-124.69,28.99,-50.66
2026-07-22 23:49:46.021,0.3,0.05,1.07,-124.69,28.99,-50.66
2026-07-22 23:49:46.091,0.26,-0.12,0.99,-186.89,46.69,-46.26
2026-07-22 23:49:46.091,0.26,-0.12,0.99,-186.89,46.69,-46.26
2026-07-22 23:49:46.098,0.19,-0.43,0.73,-360.35,31.01,-57.62
2026-07-22 23:49:46.148,0.18,-0.73,0.43,-522.64,-31.56,-65.37
2026-07-22 23:49:46.148,0.18,-0.73,0.43,-522.64,-31.56,-65.37
2026-07-22 23:49:46.222,0.25,-0.87,0.27,-489.07,-66.04,-43.03
2026-07-22 23:49:46.222,0.25,-0.87,0.27,-489.07,-66.04,-43.03
2026-07-22 23:49:46.222,0.29,-0.93,0.22,-310.67,-31.56,-29.48
2026-07-22 23:49:46.322,0.3,-0.97,0.25,-160.77,5.49,-39.67
2026-07-22 23:49:46.322,0.3,-0.97,0.25,-160.77,5.49,-39.67
2026-07-22 23:49:46.322,0.31,-0.98,0.19,-120.79,-7.75,-54.02
2026-07-22 23:49:46.322,0.31,-0.98,0.19,-120.79,-7.75,-54.02
2026-07-22 23:49:46.322,0.35,-0.92,-0.07,-183.17,-57.5,-61.04
2026-07-22 23:49:46.385,0.35,-0.92,-0.07,-183.17,-57.5,-61.04
2026-07-22 23:49:46.385,0.39,-0.81,-0.42,-282.96,-111.76,-56.64
2026-07-22 23:49:46.450,0.38,-0.63,-0.71,-363.34,-175.6,-62.74
2026-07-22 23:49:46.450,0.38,-0.63,-0.71,-363.34,-175.6,-62.74
2026-07-22 23:49:46.455,0.33,-0.45,-0.87,-344.48,-199.28,-63.96
2026-07-22 23:49:46.511,0.33,-0.45,-0.87,-344.48,-199.28,-63.96
2026-07-22 23:49:46.511,0.27,-0.4,-0.94,-230.77,-147.95,-25.45
2026-07-22 23:49:46.632,0.24,-0.42,-0.99,-142.52,-98.45,23.99
2026-07-22 23:49:46.632,0.24,-0.42,-0.99,-142.52,-98.45,23.99
2026-07-22 23:49:46.644,0.2,-0.45,-1.03,-87.71,-69.15,53.1
2026-07-22 23:49:46.644,0.2,-0.45,-1.03,-87.71,-69.15,53.1
2026-07-22 23:49:46.644,0.16,-0.48,-1.04,-30.46,-37.6,56.09
2026-07-22 23:49:46.645,0.16,-0.48,-1.04,-30.46,-37.6,56.09
2026-07-22 23:49:46.695,0.13,-0.49,-1.04,6.04,-17.82,36.56
2026-07-22 23:49:46.695,0.1,-0.45,-1.03,17.03,-10.74,8.85
2026-07-22 23:49:46.749,0.1,-0.45,-1.03,17.03,-10.74,8.85
2026-07-22 23:49:46.749,0.08,-0.41,-1.01,23.19,-2.69,-8.67
2026-07-22 23:49:46.749,0.08,-0.41,-1.01,23.19,-2.69,-8.67
2026-07-22 23:49:46.813,0.08,-0.4,-0.96,31.74,4.39,-10.31
2026-07-22 23:49:46.859,0.08,-0.4,-0.96,31.74,4.39,-10.31
2026-07-22 23:49:46.870,0.08,-0.4,-0.92,46.26,8.06,-7.32
2026-07-22 23:49:46.870,0.08,-0.41,-0.88,80.2,13.24,-10.31
2026-07-22 23:49:46.875,0.08,-0.41,-0.88,80.2,13.24,-10.31
2026-07-22 23:49:46.923,0.08,-0.45,-0.84,110.72,10.07,-13.67
2026-07-22 23:49:46.923,0.08,-0.45,-0.84,110.72,10.07,-13.67
2026-07-22 23:49:46.992,0.07,-0.46,-0.84,60.06,-10.25,-7.81
2026-07-22 23:49:46.992,0.07,-0.46,-0.84,60.06,-10.25,-7.81
2026-07-22 23:49:46.992,0.05,-0.41,-0.9,-67.81,-36.74,3.78
2026-07-22 23:49:47.052,0.05,-0.36,-0.95,-148.44,-50.84,10.68
2026-07-22 23:49:47.052,0.05,-0.36,-0.95,-148.44,-50.84,10.68
2026-07-22 23:49:47.052,0.04,-0.33,-0.98,-114.32,-37.72,9.95
2026-07-22 23:49:47.176,0.04,-0.33,-0.98,-114.32,-37.72,9.95
2026-07-22 23:49:47.176,0.03,-0.35,-0.96,-27.28,-8.42,7.93
2026-07-22 23:49:47.176,0.03,-0.35,-0.96,-27.28,-8.42,7.93
2026-07-22 23:49:47.176,0.02,-0.36,-0.95,12.39,2.99,7.14
2026-07-22 23:49:47.176,0.02,-0.35,-0.94,-2.62,-5.68,2.69
2026-07-22 23:49:47.233,0.02,-0.35,-0.94,-2.62,-5.68,2.69
2026-07-22 23:49:47.233,0.01,-0.33,-0.93,-2.32,-4.21,-1.95
2026-07-22 23:49:47.233,0.01,-0.33,-0.93,-2.32,-4.21,-1.95
2026-07-22 23:49:47.289,0.01,-0.34,-0.92,30.58,9.16,-0.55
2026-07-22 23:49:47.296,0.01,-0.34,-0.92,30.58,9.16,-0.55
2026-07-22 23:49:47.354,0.05,-0.42,-0.9,84.35,25.51,6.77
2026-07-22 23:49:47.354,0.08,-0.56,-0.82,196.66,52.49,7.08
2026-07-22 23:49:47.354,0.08,-0.56,-0.82,196.66,52.49,7.08
2026-07-22 23:49:47.412,0.09,-0.75,-0.63,385.86,81.48,-23.8
2026-07-22 23:49:47.416,0.09,-0.75,-0.63,385.86,81.48,-23.8
2026-07-22 23:49:47.479,0.16,-0.88,-0.27,554.02,110.47,-72.51
2026-07-22 23:49:47.479,0.16,-0.88,-0.27,527.95,126.46,-100.22
2026-07-22 23:49:47.479,0.26,-0.92,0.09,527.95,126.46,-100.22
2026-07-22 23:49:47.532,0.31,-0.88,0.27,322.2,91.92,-103.52
2026-07-22 23:49:47.532,0.31,-0.88,0.27,322.2,91.92,-103.52
2026-07-22 23:49:47.599,0.34,-0.82,0.4,152.16,65.98,-87.52
2026-07-22 23:49:47.599,0.34,-0.82,0.4,152.16,65.98,-87.52
2026-07-22 23:49:47.599,0.31,-0.77,0.56,106.51,138.67,-31.49
2026-07-22 23:49:47.655,0.21,-0.66,0.72,120.24,257.93,35.22
2026-07-22 23:49:47.655,0.21,-0.66,0.72,120.24,257.93,35.22
2026-07-22 23:49:47.713,0.03,-0.67,0.76,51.33,314.45,62.81
2026-07-22 23:49:47.713,-0.16,-0.86,0.63,-76.35,292.05,68.54
2026-07-22 23:49:47.713,-0.16,-0.86,0.63,-76.35,292.05,68.54
2026-07-22 23:49:47.764,-0.23,-0.96,0.51,-51.88,254.82,76.66
2026-07-22 23:49:47.764,-0.23,-0.96,0.51,-51.88,254.82,76.66
2026-07-22 23:49:47.828,-0.37,-0.87,0.44,88.81,309.75,92.04
2026-07-22 23:49:47.828,-0.37,-0.87,0.44,88.81,309.75,92.04
2026-07-22 23:49:47.828,-0.68,-0.68,0.44,168.95,424.38,117.37
2026-07-22 23:49:47.896,-0.93,-0.56,0.48,156.19,373.66,149.29
2026-07-22 23:49:47.896,-0.93,-0.56,0.48,156.19,373.66,149.29
2026-07-22 23:49:47.966,-0.92,-0.5,0.42,80.75,107.24,127.08
2026-07-22 23:49:47.966,-0.92,-0.5,0.42,80.75,107.24,127.08
2026-07-22 23:49:47.966,-0.76,-0.45,0.29,-28.63,-110.53,21.91
2026-07-22 23:49:48.014,-0.67,-0.45,0.23,-99.06,-106.75,-26.86
2026-07-22 23:49:48.014,-0.67,-0.45,0.23,-99.06,-106.75,-26.86
2026-07-22 23:49:48.082,-0.67,-0.49,0.29,-92.41,9.09,33.26
2026-07-22 23:49:48.083,-0.67,-0.49,0.29,-92.41,9.09,33.26
2026-07-22 23:49:48.083,-0.7,-0.55,0.34,-40.28,75.13,52.86
2026-07-22 23:49:48.135,-0.7,-0.55,0.34,-40.28,75.13,52.86
2026-07-22 23:49:48.135,-0.7,-0.52,0.28,13.49,90.15,-63.17
2026-07-22 23:49:48.196,-0.62,-0.5,0.11,44.19,188.96,-226.75
2026-07-22 23:49:48.226,-0.62,-0.5,0.11,44.19,188.96,-226.75
2026-07-22 23:49:48.226,-0.51,-0.64,-0.09,36.25,325.01,-306.46
2026-07-22 23:49:48.247,-0.51,-0.64,-0.09,36.25,325.01,-306.46
2026-07-22 23:49:48.247,-0.38,-0.85,-0.24,5.74,345.21,-288.09
2026-07-22 23:49:48.321,-0.25,-1.06,-0.28,-5.62,309.27,-236.82
2026-07-22 23:49:48.321,-0.25,-1.06,-0.28,-5.62,309.27,-236.82
2026-07-22 23:49:48.321,-0.14,-1.19,-0.29,-4.46,301.33,-173.28
2026-07-22 23:49:48.431,-0.14,-1.19,-0.29,-4.46,301.33,-173.28
2026-07-22 23:49:48.431,-0.05,-1.18,-0.27,18.25,252.81,-98.63
2026-07-22 23:49:48.431,-0.05,-1.18,-0.27,18.25,252.81,-98.63
2026-07-22 23:49:48.431,-0.05,-1.18,-0.27,18.25,252.81,-98.63
2026-07-22 23:49:48.431,-0.05,-1.18,-0.27,18.25,252.81,-98.63
2026-07-22 23:49:48.431,0.04,-1.01,-0.1,95.03,17.76,-7.51
2026-07-22 23:49:48.482,0.05,-0.97,-0.05,60.97,-33.14,15.44
2026-07-22 23:49:48.482,0.05,-0.97,-0.05,60.97,-33.14,15.44
2026-07-22 23:49:48.559,0.05,-0.96,-0.05,10.62,-34.91,25.33
2026-07-22 23:49:48.559,0.05,-0.96,-0.05,10.62,-34.91,25.33
2026-07-22 23:49:48.559,0.04,-0.98,-0.06,-13.0,-19.59,19.53
2026-07-22 23:49:48.669,0.04,-0.98,-0.06,-13.0,-19.59,19.53
2026-07-22 23:49:48.669,0.05,-1.0,-0.06,-10.8,-0.73,1.71
2026-07-22 23:49:48.672,0.06,-1.0,-0.09,-2.26,13.98,-13.24
2026-07-22 23:49:48.672,0.06,-1.0,-0.09,-2.26,13.98,-13.24
2026-07-22 23:49:48.673,0.12,-0.96,-0.1,-1.34,27.71,-19.41
2026-07-22 23:49:48.732,0.12,-0.96,-0.1,-1.34,27.71,-19.41
2026-07-22 23:49:48.732,0.24,-0.84,-0.1,-22.28,69.03,-36.19
2026-07-22 23:49:48.732,0.24,-0.84,-0.1,-22.28,69.03,-36.19
2026-07-22 23:49:48.797,0.33,-0.76,-0.17,-51.21,130.19,-75.07
2026-07-22 23:49:48.797,0.33,-0.8,-0.31,-42.36,161.93,-122.74
2026-07-22 23:49:48.852,0.33,-0.8,-0.31,-42.36,161.93,-122.74
2026-07-22 23:49:48.852,0.34,-0.93,-0.35,27.04,134.52,-157.17
2026-07-22 23:49:48.852,0.34,-0.93,-0.35,27.04,134.52,-157.17
2026-07-22 23:49:48.913,0.39,-1.1,-0.22,38.02,41.38,-131.53
2026-07-22 23:49:48.913,0.38,-1.19,-0.12,-58.47,-57.31,-14.65
2026-07-22 23:49:48.972,0.38,-1.19,-0.12,-58.47,-57.31,-14.65
2026-07-22 23:49:48.972,0.31,-1.19,-0.1,-91.86,-89.97,94.73
2026-07-22 23:49:48.972,0.31,-1.19,-0.1,-91.86,-89.97,94.73
2026-07-22 23:49:49.041,0.25,-1.14,-0.02,15.14,-79.65,79.47
2026-07-22 23:49:49.042,0.25,-1.14,-0.02,15.14,-79.65,79.47
2026-07-22 23:49:49.094,0.29,-1.02,0.1,123.66,-56.46,-3.48
2026-07-22 23:49:49.094,0.4,-0.89,0.17,113.71,-12.82,-48.77
2026-07-22 23:49:49.094,0.4,-0.89,0.17,113.71,-12.82,-48.77
2026-07-22 23:49:49.151,0.48,-0.82,0.17,46.45,55.3,-84.23
2026-07-22 23:49:49.152,0.48,-0.82,0.17,46.45,55.3,-84.23
2026-07-22 23:49:49.276,0.5,-0.9,0.1,-25.82,120.36,-113.77
2026-07-22 23:49:49.276,0.5,-0.9,0.1,-84.96,110.11,-65.25
2026-07-22 23:49:49.277,0.57,-1.02,-0.0,-84.96,110.11,-65.25
2026-07-22 23:49:49.277,0.51,-1.07,-0.16,-93.32,-2.32,23.56
2026-07-22 23:49:49.277,0.51,-1.07,-0.16,-93.32,-2.32,23.56
2026-07-22 23:49:49.277,0.33,-1.06,-0.36,-67.02,-154.36,96.86
2026-07-22 23:49:49.332,0.33,-1.06,-0.36,-67.02,-154.36,96.86
2026-07-22 23:49:49.332,0.23,-1.07,-0.46,-33.39,-207.15,127.5
2026-07-22 23:49:49.417,0.18,-1.13,-0.44,-6.9,-123.66,110.6
2026-07-22 23:49:49.418,0.18,-1.13,-0.44,-6.9,-123.66,110.6
2026-07-22 23:49:49.418,0.15,-1.21,-0.39,1.59,-36.01,100.95
2026-07-22 23:49:49.456,0.15,-1.21,-0.39,1.59,-36.01,100.95
2026-07-22 23:49:49.456,0.08,-1.19,-0.35,-1.4,-21.73,127.5
2026-07-22 23:49:49.512,0.08,-1.19,-0.35,-1.4,-21.73,127.5
2026-07-22 23:49:49.513,-0.0,-1.01,-0.29,-14.28,-60.79,188.84
2026-07-22 23:49:49.516,-0.06,-0.73,-0.19,-48.1,-116.39,268.31
2026-07-22 23:49:49.573,-0.06,-0.73,-0.19,-48.1,-116.39,268.31
2026-07-22 23:49:49.573,-0.18,-0.46,-0.13,-91.86,-141.91,304.02
2026-07-22 23:49:49.573,-0.18,-0.46,-0.13,-91.86,-141.91,304.02
2026-07-22 23:49:49.630,-0.26,-0.26,-0.16,-126.04,-96.98,281.31
2026-07-22 23:49:49.631,-0.36,-0.15,-0.3,-172.18,8.97,254.03
2026-07-22 23:49:49.693,-0.36,-0.15,-0.3,-172.18,8.97,254.03
2026-07-22 23:49:49.693,-0.62,-0.17,-0.52,-229.19,102.72,234.8
2026-07-22 23:49:49.762,-0.62,-0.17,-0.52,-229.19,102.72,234.8
2026-07-22 23:49:49.762,-0.88,-0.17,-0.73,-223.88,132.69,200.99
2026-07-22 23:49:49.762,-0.95,0.03,-0.87,-138.98,107.24,137.82
2026-07-22 23:49:49.811,-0.95,0.03,-0.87,-138.98,107.24,137.82
2026-07-22 23:49:49.811,-0.89,0.22,-0.9,-57.56,49.32,68.12
2026-07-22 23:49:49.872,-0.89,0.22,-0.9,-57.56,49.32,68.12
2026-07-22 23:49:49.873,-0.78,0.25,-0.81,-27.71,-7.14,35.58
2026-07-22 23:49:49.873,-0.65,0.21,-0.68,-18.19,-45.65,35.64
2026-07-22 23:49:49.931,-0.65,0.21,-0.68,-18.19,-45.65,35.64
2026-07-22 23:49:49.932,-0.51,0.19,-0.54,-2.56,-63.6,26.49
2026-07-22 23:49:49.991,-0.51,0.19,-0.54,-2.56,-63.6,26.49
2026-07-22 23:49:49.992,-0.45,0.21,-0.49,8.42,-51.09,5.49
2026-07-22 23:49:49.994,-0.45,0.21,-0.49,8.42,-51.09,5.49
2026-07-22 23:49:50.055,-0.53,0.23,-0.53,5.8,-14.34,0.61
2026-07-22 23:49:50.111,-0.64,0.24,-0.62,0.73,21.55,12.21
2026-07-22 23:49:50.111,-0.64,0.24,-0.62,0.73,21.55,12.21
2026-07-22 23:49:50.112,-0.76,0.25,-0.73,0.55,38.94,21.42
2026-07-22 23:49:50.113,-0.76,0.25,-0.73,0.55,38.94,21.42
2026-07-22 23:49:50.172,-0.84,0.27,-0.81,-4.27,33.94,25.51
2026-07-22 23:49:50.172,-0.84,0.27,-0.81,-4.27,33.94,25.51
2026-07-22 23:49:50.172,-0.84,0.3,-0.81,-15.69,11.29,26.31
2026-07-22 23:49:50.232,-0.79,0.43,-0.78,-28.2,-13.98,16.3
2026-07-22 23:49:50.232,-0.79,0.43,-0.78,-28.2,-13.98,16.3
2026-07-22 23:49:50.297,-0.73,0.55,-0.74,-62.13,-27.59,9.28
2026-07-22 23:49:50.297,-0.73,0.55,-0.74,-62.13,-27.59,9.28
2026-07-22 23:49:50.297,-0.79,0.5,-0.69,-125.67,-40.65,53.16
2026-07-22 23:49:50.351,-0.79,0.5,-0.69,-161.87,-89.11,110.78
2026-07-22 23:49:50.351,-0.9,0.44,-0.58,-161.87,-89.11,110.78
2026-07-22 23:49:50.415,-0.88,0.43,-0.4,-140.38,-142.94,105.16
2026-07-22 23:49:50.415,-0.88,0.43,-0.4,-140.38,-142.94,105.16
2026-07-22 23:49:50.416,-0.75,0.42,-0.23,-99.43,-130.13,85.39
2026-07-22 23:49:50.478,-0.75,0.42,-0.23,-99.43,-130.13,85.39
2026-07-22 23:49:50.478,-0.61,0.46,-0.14,-63.54,-79.9,85.88
2026-07-22 23:49:50.538,-0.53,0.57,-0.1,-35.28,-63.6,76.97
2026-07-22 23:49:50.539,-0.53,0.57,-0.1,-35.28,-63.6,76.97
2026-07-22 23:49:50.539,-0.5,0.67,-0.09,-15.14,-72.75,70.62
2026-07-22 23:49:50.593,-0.5,0.67,-0.09,-15.14,-72.75,70.62
2026-07-22 23:49:50.614,-0.5,0.72,-0.08,-3.36,-80.51,83.07
2026-07-22 23:49:50.615,-0.5,0.72,-0.08,13.73,-97.05,101.01
2026-07-22 23:49:50.656,-0.46,0.78,-0.08,13.73,-97.05,101.01
2026-07-22 23:49:50.657,-0.32,0.88,-0.06,28.38,-107.6,124.76
2026-07-22 23:49:50.711,-0.32,0.88,-0.06,28.38,-107.6,124.76
2026-07-22 23:49:50.712,-0.18,0.96,-0.03,21.12,-84.17,140.14
2026-07-22 23:49:50.712,-0.18,0.96,-0.03,21.12,-84.17,140.14
2026-07-22 23:49:50.771,-0.09,1.0,-0.02,5.55,-44.98,116.09
2026-07-22 23:49:50.772,-0.04,0.99,-0.01,-5.68,-21.24,62.68
2026-07-22 23:49:50.832,-0.04,0.99,-0.01,-5.68,-21.24,62.68
2026-07-22 23:49:50.833,-0.05,0.96,0.01,-11.11,-12.63,15.44
2026-07-22 23:49:50.833,-0.05,0.96,0.01,-11.11,-12.63,15.44
2026-07-22 23:49:50.892,-0.09,0.92,0.02,-10.99,-7.81,-4.52
2026-07-22 23:49:50.946,-0.09,0.92,0.02,-10.99,-7.81,-4.52
2026-07-22 23:49:50.947,-0.1,0.9,0.06,-7.63,-5.25,-12.27
2026-07-22 23:49:50.956,-0.1,0.86,0.1,-2.99,2.32,-28.2
2026-07-22 23:49:50.957,-0.1,0.86,0.1,-2.99,2.32,-28.2
2026-07-22 23:49:51.011,-0.11,0.8,0.11,4.03,15.75,-54.63
2026-07-22 23:49:51.012,-0.11,0.8,0.11,4.03,15.75,-54.63
2026-07-22 23:49:51.012,0.02,0.63,0.14,12.08,10.68,-119.75
2026-07-22 23:49:51.071,0.02,0.63,0.14,12.08,10.68,-119.75
2026-07-22 23:49:51.071,0.29,0.15,0.21,1.53,-7.81,-246.15
2026-07-22 23:49:51.131,0.29,-0.49,0.16,-10.07,28.14,-355.47
2026-07-22 23:49:51.131,0.29,-0.49,0.16,-10.07,28.14,-355.47
2026-07-22 23:49:51.132,-0.37,-0.66,-0.32,44.74,126.77,-376.4
2026-07-22 23:49:51.207,-0.37,-0.66,-0.32,44.74,126.77,-376.4
2026-07-22 23:49:51.207,-1.07,-0.3,-0.9,130.74,195.37,-339.36
2026-07-22 23:49:51.207,-1.07,-0.3,-0.9,130.74,195.37,-339.36
2026-07-22 23:49:51.254,-1.26,-0.19,-1.07,150.88,177.8,-335.63
2026-07-22 23:49:51.254,-1.32,-0.52,-0.99,104.25,119.93,-352.54
2026-07-22 23:49:51.316,-1.32,-0.52,-0.99,104.25,119.93,-352.54
2026-07-22 23:49:51.316,-1.37,-0.78,-0.84,50.11,82.76,-288.02
2026-07-22 23:49:51.316,-1.37,-0.78,-0.84,50.11,82.76,-288.02
2026-07-22 23:49:51.381,-1.34,-0.85,-0.71,36.93,65.61,-165.89
2026-07-22 23:49:51.381,-1.2,-0.71,-0.69,58.9,44.8,-69.76
2026-07-22 23:49:51.429,-1.2,-0.71,-0.69,58.9,44.8,-69.76
2026-07-22 23:49:51.429,-0.94,-0.37,-0.78,69.76,33.94,-6.29
2026-07-22 23:49:51.429,-0.94,-0.37,-0.78,69.76,33.94,-6.29
2026-07-22 23:49:51.481,-0.64,-0.03,-0.96,38.82,54.57,51.33
2026-07-22 23:49:51.481,-0.39,0.2,-1.21,-36.93,82.64,76.97
2026-07-22 23:49:51.557,-0.39,0.2,-1.21,-36.93,82.64,76.97
2026-07-22 23:49:51.559,-0.29,0.2,-1.4,-133.48,90.03,51.09
2026-07-22 23:49:51.559,-0.29,0.2,-1.4,-133.48,90.03,51.09
2026-07-22 23:49:51.613,-0.37,0.01,-1.51,-207.64,80.63,3.72
2026-07-22 23:49:51.613,-0.37,0.01,-1.51,-207.64,80.63,3.72
2026-07-22 23:49:51.671,-0.49,-0.19,-1.59,-243.9,73.43,-35.03
2026-07-22 23:49:51.672,-0.69,-0.31,-1.68,-256.23,73.24,-49.13
2026-07-22 23:49:51.672,-0.69,-0.31,-1.68,-256.23,73.24,-49.13
2026-07-22 23:49:51.730,-0.89,-0.26,-1.72,-257.87,59.02,-50.29
2026-07-22 23:49:51.730,-0.89,-0.26,-1.72,-243.9,16.85,-47.61
2026-07-22 23:49:51.782,-0.97,-0.16,-1.65,-243.9,16.85,-47.61
2026-07-22 23:49:51.782,-0.99,-0.14,-1.52,-195.07,-33.57,-35.95
2026-07-22 23:49:51.782,-0.99,-0.14,-1.52,-195.07,-33.57,-35.95
2026-07-22 23:49:51.847,-0.99,-0.28,-1.26,-126.22,-62.68,-30.21
2026-07-22 23:49:51.847,-0.99,-0.28,-1.26,-126.22,-62.68,-30.21
2026-07-22 23:49:51.910,-1.03,-0.44,-0.9,-86.85,-99.24,-59.69
2026-07-22 23:49:51.910,-1.05,-0.52,-0.54,-97.35,-183.9,-113.1
2026-07-22 23:49:51.914,-1.05,-0.52,-0.54,-97.35,-183.9,-113.1
2026-07-22 23:49:52.084,-1.03,-0.6,-0.26,-127.32,-282.9,-114.0
2026-07-22 23:49:52.096,-1.03,-0.6,-0.26,-127.32,-282.9,-114.0
2026-07-22 23:49:52.096,-0.95,-0.59,-0.16,-135.01,-335.14,-56.7
2026-07-22 23:49:52.096,-0.76,-0.44,-0.14,-90.76,-317.75,1.16
2026-07-22 23:49:52.096,-0.76,-0.44,-0.14,-90.76,-317.75,1.16
2026-07-22 23:49:52.096,-0.52,-0.25,-0.08,-3.66,-267.21,31.56
2026-07-22 23:49:52.096,-0.52,-0.25,-0.08,-3.66,-267.21,31.56
2026-07-22 23:49:52.151,-0.36,-0.07,0.02,74.28,-221.98,22.95
2026-07-22 23:49:52.151,-0.36,-0.07,0.02,74.28,-221.98,22.95
2026-07-22 23:49:52.158,-0.31,0.1,0.09,109.86,-182.86,-4.94
2026-07-22 23:49:52.212,-0.29,0.24,0.1,121.03,-145.02,-7.26
2026-07-22 23:49:52.212,-0.29,0.24,0.1,121.03,-145.02,-7.26
2026-07-22 23:49:52.271,-0.25,0.35,0.1,134.89,-112.61,9.46
2026-07-22 23:49:52.308,-0.25,0.35,0.1,134.89,-112.61,9.46
2026-07-22 23:49:52.308,-0.19,0.45,0.09,146.55,-85.27,8.67
2026-07-22 23:49:52.330,-0.19,0.45,0.09,147.71,-60.36,-2.01
2026-07-22 23:49:52.330,-0.17,0.49,0.07,147.71,-60.36,-2.01
2026-07-22 23:49:52.385,-0.19,0.48,0.06,147.03,-38.02,-9.03
2026-07-22 23:49:52.385,-0.19,0.48,0.06,147.03,-38.02,-9.03
2026-07-22 23:49:52.385,-0.24,0.58,0.01,150.09,-11.84,-15.81
2026-07-22 23:49:52.450,-0.24,0.58,0.01,150.09,-11.84,-15.81
2026-07-22 23:49:52.450,-0.37,0.69,-0.06,153.08,11.66,-13.31
2026-07-22 23:49:52.450,-0.6,0.64,-0.04,150.63,19.17,-22.22
2026-07-22 23:49:52.513,-0.6,0.64,-0.04,150.63,19.17,-22.22
2026-07-22 23:49:52.513,-0.92,0.49,0.03,149.9,6.84,-74.89
2026-07-22 23:49:52.571,-0.92,0.49,0.03,149.9,6.84,-74.89
2026-07-22 23:49:52.571,-1.45,0.32,0.06,161.32,-22.34,-171.08
2026-07-22 23:49:52.571,-1.45,0.32,0.06,161.32,-22.34,-171.08
2026-07-22 23:49:52.630,-1.82,0.28,-0.05,198.12,-72.02,-257.45
2026-07-22 23:49:52.630,-1.76,0.27,-0.16,231.32,-126.16,-294.07
2026-07-22 23:49:52.687,-1.76,0.27,-0.16,231.32,-126.16,-294.07
2026-07-22 23:49:52.687,-1.45,0.08,-0.1,216.98,-140.44,-251.77
2026-07-22 23:49:52.687,-1.45,0.08,-0.1,216.98,-140.44,-251.77
2026-07-22 23:49:52.751,-1.03,-0.13,0.03,170.35,-115.17,-151.06
2026-07-22 23:49:52.751,-0.81,-0.27,0.09,125.37,-66.47,-71.84
2026-07-22 23:49:52.814,-0.81,-0.27,0.09,125.37,-66.47,-71.84
2026-07-22 23:49:52.814,-0.89,-0.29,0.04,100.77,-24.23,-37.96
2026-07-22 23:49:52.814,-0.89,-0.29,0.04,100.77,-24.23,-37.96
2026-07-22 23:49:52.862,-0.93,-0.25,0.06,96.8,-64.03,-36.99
2026-07-22 23:49:52.862,-0.93,-0.25,0.06,88.26,-145.2,-48.4
2026-07-22 23:49:52.862,-0.9,-0.21,0.18,88.26,-145.2,-48.4
2026-07-22 23:49:52.931,-0.84,-0.2,0.28,51.51,-106.45,-66.22
2026-07-22 23:49:52.931,-0.84,-0.2,0.28,51.51,-106.45,-66.22
2026-07-22 23:49:52.988,-0.76,-0.18,0.36,16.24,9.46,-61.16
2026-07-22 23:49:52.988,-0.76,-0.18,0.36,16.24,9.46,-61.16
2026-07-22 23:49:52.988,-0.87,-0.13,0.44,22.64,72.51,-34.55
2026-07-22 23:49:53.045,-1.03,-0.16,0.51,50.29,89.05,-23.32
2026-07-22 23:49:53.045,-1.03,-0.16,0.51,50.29,89.05,-23.32
2026-07-22 23:49:53.110,-1.1,-0.27,0.57,21.36,45.1,-65.12
2026-07-22 23:49:53.110,-1.1,-0.27,0.57,21.36,45.1,-65.12
2026-07-22 23:49:53.110,-1.05,-0.45,0.61,-73.73,-40.83,-156.13
2026-07-22 23:49:53.163,-1.05,-0.45,0.61,-73.73,-40.83,-156.13
2026-07-22 23:49:53.163,-0.8,-0.72,0.58,-150.94,-100.71,-222.6
2026-07-22 23:49:53.231,-0.56,-0.91,0.49,-155.64,-142.15,-273.1
2026-07-22 23:49:53.231,-0.56,-0.91,0.49,-155.64,-142.15,-273.1
2026-07-22 23:49:53.231,-0.5,-0.88,0.29,-94.91,-154.54,-287.29
2026-07-22 23:49:53.290,-0.5,-0.88,0.29,-94.91,-154.54,-287.29
2026-07-22 23:49:53.296,-0.57,-0.75,0.16,-18.43,-74.58,-176.45
2026-07-22 23:49:53.364,-0.68,-0.65,0.21,36.5,61.95,-13.92
2026-07-22 23:49:53.364,-0.68,-0.65,0.21,36.5,61.95,-13.92
2026-07-22 23:49:53.364,-0.87,-0.53,0.25,60.12,150.21,68.36
2026-07-22 23:49:53.417,-0.87,-0.53,0.25,60.12,150.21,68.36
2026-07-22 23:49:53.417,-1.06,-0.39,0.18,69.34,180.18,74.52
2026-07-22 23:49:53.465,-1.06,-0.39,0.18,79.77,191.1,57.5
2026-07-22 23:49:53.465,-0.95,-0.37,0.09,79.77,191.1,57.5
2026-07-22 23:49:53.465,-0.6,-0.48,0.05,69.82,167.11,15.81
2026-07-22 23:49:53.532,-0.6,-0.48,0.05,69.82,167.11,15.81
2026-07-22 23:49:53.532,-0.31,-0.65,0.06,54.69,129.7,-17.88
2026-07-22 23:49:53.532,-0.31,-0.65,0.06,54.69,129.7,-17.88
2026-07-22 23:49:53.591,-0.22,-0.75,0.09,65.49,101.14,-7.81
2026-07-22 23:49:53.591,-0.27,-0.75,0.09,84.53,54.32,7.93
2026-07-22 23:49:53.645,-0.27,-0.75,0.09,84.53,54.32,7.93
2026-07-22 23:49:53.674,-0.34,-0.71,0.15,95.09,12.02,15.38
2026-07-22 23:49:53.674,-0.34,-0.71,0.15,95.09,12.02,15.38
2026-07-22 23:49:53.703,-0.43,-0.74,0.26,91.25,8.12,20.87
2026-07-22 23:49:53.703,-0.53,-0.78,0.35,70.43,5.25,15.14
2026-07-22 23:49:53.770,-0.53,-0.78,0.35,70.43,5.25,15.14
2026-07-22 23:49:53.770,-0.55,-0.82,0.48,26.98,-47.73,-5.98
2026-07-22 23:49:53.770,-0.55,-0.82,0.48,26.98,-47.73,-5.98
2026-07-22 23:49:53.832,-0.45,-0.85,0.52,-53.77,-152.89,-56.21
2026-07-22 23:49:53.832,-0.45,-0.85,0.52,-53.77,-152.89,-56.21
2026-07-22 23:49:53.890,-0.32,-0.81,0.43,-106.14,-242.61,-100.1
2026-07-22 23:49:53.890,-0.27,-0.72,0.44,-64.15,-231.57,-63.78
2026-07-22 23:49:53.890,-0.27,-0.72,0.44,-64.15,-231.57,-63.78
2026-07-22 23:49:53.945,-0.32,-0.63,0.55,8.06,-147.28,30.21
2026-07-22 23:49:53.945,-0.32,-0.63,0.55,8.06,-147.28,30.21
2026-07-22 23:49:54.005,-0.38,-0.55,0.68,41.38,-75.26,90.94
2026-07-22 23:49:54.005,-0.38,-0.55,0.68,61.95,-21.0,95.4
2026-07-22 23:49:54.005,-0.45,-0.46,0.8,61.95,-21.0,95.4
2026-07-22 23:49:54.069,-0.46,-0.37,0.88,89.66,37.29,80.2
2026-07-22 23:49:54.069,-0.46,-0.37,0.88,89.66,37.29,80.2
2026-07-22 23:49:54.131,-0.36,-0.34,1.03,104.25,69.4,63.35
2026-07-22 23:49:54.140,-0.36,-0.34,1.03,104.25,69.4,63.35
2026-07-22 23:49:54.140,-0.24,-0.35,1.29,93.51,57.68,43.82
2026-07-22 23:49:54.196,-0.2,-0.32,1.43,53.47,23.01,37.84
2026-07-22 23:49:54.196,-0.2,-0.32,1.43,53.47,23.01,37.84
2026-07-22 23:49:54.196,-0.36,-0.22,1.38,-16.54,-44.49,47.3
2026-07-22 23:49:54.308,-0.36,-0.22,1.38,-16.54,-44.49,47.3
2026-07-22 23:49:54.308,-0.54,-0.17,1.32,-58.78,-125.37,36.56
2026-07-22 23:49:54.318,-0.54,-0.17,1.32,-58.78,-125.37,36.56
2026-07-22 23:49:54.318,-0.52,-0.2,1.31,-32.84,-149.48,17.88
2026-07-22 23:49:54.318,-0.42,-0.22,1.35,5.74,-118.53,1.53
2026-07-22 23:49:54.370,-0.42,-0.22,1.35,5.74,-118.53,1.53
2026-07-22 23:49:54.370,-0.27,-0.26,1.22,15.5,-80.14,-46.75
2026-07-22 23:49:54.418,-0.27,-0.26,1.22,15.5,-80.14,-46.75
2026-07-22 23:49:54.418,-0.09,-0.33,1.13,26.06,-32.71,-102.11
2026-07-22 23:49:54.418,-0.09,-0.33,1.13,50.11,26.98,-123.17
2026-07-22 23:49:54.481,-0.09,-0.42,1.23,50.11,26.98,-123.17
2026-07-22 23:49:54.481,-0.05,-0.53,1.28,36.01,34.85,-145.08
2026-07-22 23:49:54.481,-0.05,-0.53,1.28,36.01,34.85,-145.08
2026-07-22 23:49:54.551,0.1,-0.6,1.19,-1.65,1.59,-172.67
2026-07-22 23:49:54.552,0.1,-0.6,1.19,-1.65,1.59,-172.67
2026-07-22 23:49:54.623,0.17,-0.52,0.93,-16.78,0.18,-171.51
2026-07-22 23:49:54.623,0.23,-0.45,0.73,15.5,50.17,-149.05
2026-07-22 23:49:54.623,0.23,-0.45,0.73,15.5,50.17,-149.05
2026-07-22 23:49:54.671,0.18,-0.39,0.76,100.16,129.64,-97.96
2026-07-22 23:49:54.671,0.18,-0.39,0.76,100.16,129.64,-97.96
2026-07-22 23:49:54.734,-0.01,-0.23,0.83,151.31,134.77,-56.34
2026-07-22 23:49:54.734,-0.01,-0.23,0.83,151.31,134.77,-56.34
2026-07-22 23:49:54.734,-0.04,-0.18,0.97,116.88,31.49,-85.08
2026-07-22 23:49:54.797,0.11,-0.26,1.03,38.51,-95.09,-138.92
2026-07-22 23:49:54.797,0.11,-0.26,1.03,38.51,-95.09,-138.92
2026-07-22 23:49:54.854,0.25,-0.26,0.91,-19.65,-177.0,-155.52
2026-07-22 23:49:54.854,0.25,-0.26,0.91,-19.65,-177.0,-155.52
2026-07-22 23:49:54.854,0.33,-0.2,0.76,4.46,-145.69,-141.36
2026-07-22 23:49:54.908,0.34,-0.16,0.58,42.79,-26.55,-121.46
2026-07-22 23:49:54.908,0.34,-0.16,0.58,42.79,-26.55,-121.46
2026-07-22 23:49:54.973,0.3,-0.13,0.56,40.65,80.93,-105.41
2026-07-22 23:49:55.035,0.3,-0.13,0.56,40.65,80.93,-105.41
2026-07-22 23:49:55.035,0.26,-0.09,0.68,23.13,112.67,-93.99
2026-07-22 23:49:55.035,0.26,-0.09,0.68,23.13,112.67,-93.99
2026-07-22 23:49:55.035,0.23,-0.08,0.77,-2.26,87.77,-82.21
2026-07-22 23:49:55.083,0.2,-0.08,0.91,10.25,80.93,-66.96
2026-07-22 23:49:55.083,0.2,-0.08,0.91,10.25,80.93,-66.96
2026-07-22 23:49:55.083,0.16,-0.06,0.99,39.0,89.6,-58.41
2026-07-22 23:49:55.157,0.16,-0.06,0.99,39.0,89.6,-58.41
2026-07-22 23:49:55.157,0.09,-0.06,1.01,39.49,84.9,-63.96
2026-07-22 23:49:55.157,0.09,-0.06,1.01,12.7,52.55,-76.97
2026-07-22 23:49:55.211,0.01,-0.06,1.03,12.7,52.55,-76.97
2026-07-22 23:49:55.211,0.02,-0.06,1.02,-27.59,6.53,-88.87
2026-07-22 23:49:55.275,0.02,-0.06,1.02,-27.59,6.53,-88.87
2026-07-22 23:49:55.275,0.07,-0.06,1.01,-49.44,-9.83,-94.85
2026-07-22 23:49:55.275,0.07,-0.06,1.01,-49.44,-9.83,-94.85
2026-07-22 23:49:55.323,0.11,-0.03,1.0,-48.89,-7.26,-102.72
2026-07-22 23:49:55.323,0.16,-0.03,0.98,-37.41,-0.18,-110.53
2026-07-22 23:49:55.386,0.16,-0.03,0.98,-37.41,-0.18,-110.53
2026-07-22 23:49:55.386,0.14,-0.07,0.92,-12.57,33.02,-103.76
2026-07-22 23:49:55.386,0.14,-0.07,0.92,-12.57,33.02,-103.76
2026-07-22 23:49:55.452,0.04,-0.13,0.89,6.65,59.27,-90.33
2026-07-22 23:49:55.452,0.04,-0.13,0.89,6.65,59.27,-90.33
2026-07-22 23:49:55.452,-0.06,-0.2,0.89,4.27,45.1,-88.13
2026-07-22 23:49:55.508,-0.08,-0.29,0.94,7.87,20.87,-97.66
2026-07-22 23:49:55.508,-0.08,-0.29,0.94,7.87,20.87,-97.66
2026-07-22 23:49:55.572,-0.04,-0.38,1.05,20.94,3.48,-108.7
2026-07-22 23:49:55.572,-0.04,-0.38,1.05,20.94,3.48,-108.7
2026-07-22 23:49:55.572,0.04,-0.44,1.11,19.78,-7.32,-112.49
2026-07-22 23:49:55.625,0.04,-0.44,1.11,19.78,-7.32,-112.49
2026-07-22 23:49:55.625,0.05,-0.43,1.03,4.64,-1.77,-100.59
2026-07-22 23:49:55.689,-0.05,-0.31,0.91,-8.24,9.58,-83.86
2026-07-22 23:49:55.695,-0.05,-0.31,0.91,-8.24,9.58,-83.86
2026-07-22 23:49:55.695,-0.12,-0.23,0.93,-1.16,14.22,-84.47
2026-07-22 23:49:55.810,-0.12,-0.23,0.93,-1.16,14.22,-84.47
2026-07-22 23:49:55.810,-0.07,-0.25,0.99,11.17,14.47,-99.91
2026-07-22 23:49:55.810,0.01,-0.29,0.98,6.96,18.13,-107.91
2026-07-22 23:49:55.810,0.01,-0.29,0.98,6.96,18.13,-107.91
2026-07-22 23:49:55.810,0.04,-0.27,0.96,1.28,32.65,-103.76
2026-07-22 23:49:55.864,0.04,-0.27,0.96,1.28,32.65,-103.76
2026-07-22 23:49:55.864,0.06,-0.26,1.0,9.03,43.95,-100.83
2026-07-22 23:49:55.927,0.06,-0.26,1.0,17.33,35.34,-100.46
2026-07-22 23:49:55.927,0.09,-0.26,1.02,17.33,35.34,-100.46
2026-07-22 23:49:55.927,0.07,-0.24,0.99,16.42,27.1,-92.83
2026-07-22 23:49:55.991,0.07,-0.24,0.99,16.42,27.1,-92.83
2026-07-22 23:49:55.991,0.03,-0.23,0.98,19.35,43.27,-74.28
2026-07-22 23:49:55.991,0.03,-0.23,0.98,19.35,43.27,-74.28
2026-07-22 23:49:56.045,0.04,-0.29,0.98,17.27,62.19,-50.84
2026-07-22 23:49:56.045,0.04,-0.35,0.94,-11.05,52.92,-39.73
2026-07-22 23:49:56.111,0.04,-0.35,0.94,-11.05,52.92,-39.73
2026-07-22 23:49:56.111,0.01,-0.4,0.93,-32.1,24.78,-44.31
2026-07-22 23:49:56.111,0.01,-0.4,0.93,-32.1,24.78,-44.31
2026-07-22 23:49:56.172,-0.03,-0.4,0.96,-18.31,0.98,-51.15
2026-07-22 23:49:56.172,-0.03,-0.4,0.96,-18.31,0.98,-51.15
2026-07-22 23:49:56.227,-0.07,-0.39,0.93,0.85,-8.06,-53.47
2026-07-22 23:49:56.227,-0.12,-0.38,0.9,1.34,-0.79,-46.69
2026-07-22 23:49:56.227,-0.12,-0.38,0.9,1.34,-0.79,-46.69
2026-07-22 23:49:56.291,-0.13,-0.4,0.91,-5.49,10.44,-33.14
2026-07-22 23:49:56.291,-0.13,-0.4,0.91,-5.49,10.44,-33.14
2026-07-22 23:49:56.351,-0.07,-0.44,0.94,-10.93,9.7,-29.79
2026-07-22 23:49:56.402,-0.07,-0.44,0.94,-10.93,9.7,-29.79
2026-07-22 23:49:56.402,-0.07,-0.47,0.99,-32.1,8.85,-42.97
2026-07-22 23:49:56.402,-0.13,-0.51,0.96,-82.82,26.73,-55.48
2026-07-22 23:49:56.402,-0.13,-0.51,0.96,-82.82,26.73,-55.48
2026-07-22 23:49:56.402,-0.13,-0.55,0.85,-150.02,19.78,-60.85
2026-07-22 23:49:56.469,-0.13,-0.55,0.85,-150.02,19.78,-60.85
2026-07-22 23:49:56.469,-0.03,-0.62,0.66,-234.31,-9.03,-40.95
2026-07-22 23:49:56.530,-0.03,-0.62,0.66,-368.1,25.27,9.4
2026-07-22 23:49:56.534,0.06,-0.77,0.34,-368.1,25.27,9.4
2026-07-22 23:49:56.534,0.09,-0.92,0.03,-450.5,88.01,10.93
2026-07-22 23:49:56.576,0.09,-0.92,0.03,-450.5,88.01,10.93
2026-07-22 23:49:56.576,0.1,-0.95,-0.13,-346.5,69.7,-49.74
2026-07-22 23:49:56.646,0.1,-0.95,-0.13,-346.5,69.7,-49.74
2026-07-22 23:49:56.646,0.12,-1.02,-0.15,-135.01,-13.43,-46.08
2026-07-22 23:49:56.646,0.1,-1.08,-0.13,33.45,-62.74,28.69
2026-07-22 23:49:56.702,0.1,-1.08,-0.13,33.45,-62.74,28.69
2026-07-22 23:49:56.713,0.04,-1.02,-0.11,81.48,-39.73,46.2
2026-07-22 23:49:56.713,0.04,-1.02,-0.11,81.48,-39.73,46.2
2026-07-22 23:49:56.829,-0.02,-0.94,-0.09,27.34,4.76,0.0
2026-07-22 23:49:56.829,-0.02,-0.94,-0.09,27.34,4.76,0.0
2026-07-22 23:49:56.829,-0.04,-0.95,-0.09,-22.22,-14.28,-14.28
2026-07-22 23:49:56.829,-0.2,-1.0,-0.13,-41.32,-104.61,44.01
2026-07-22 23:49:56.829,-0.2,-1.0,-0.13,-41.32,-104.61,44.01
2026-07-22 23:49:56.894,-0.38,-1.01,-0.12,-56.34,-152.34,76.6
2026-07-22 23:49:56.894,-0.38,-1.01,-0.12,-56.34,-152.34,76.6
2026-07-22 23:49:56.946,-0.35,-1.01,0.01,-34.85,-111.51,30.03
2026-07-22 23:49:56.946,-0.35,-1.01,0.01,-34.85,-111.51,30.03
2026-07-22 23:49:56.946,-0.35,-1.01,0.01,-34.85,-111.51,30.03
2026-07-22 23:49:57.005,-0.35,-1.01,0.01,-34.85,-111.51,30.03
2026-07-22 23:49:57.005,-0.29,-1.14,0.09,2.81,5.0,-76.66
2026-07-22 23:49:57.005,-0.28,-1.1,0.08,-16.11,5.86,-77.58
2026-07-22 23:49:57.081,-0.28,-1.1,0.08,-16.11,5.86,-77.58
2026-07-22 23:49:57.081,-0.24,-1.0,0.08,-25.57,-10.68,-28.99
2026-07-22 23:49:57.138,-0.24,-1.0,0.08,-25.57,-10.68,-28.99
2026-07-22 23:49:57.138,-0.2,-0.96,0.04,-16.66,-6.41,14.89
2026-07-22 23:49:57.138,-0.2,-0.96,0.04,-16.66,-6.41,14.89
2026-07-22 23:49:57.179,-0.22,-1.0,0.03,3.17,1.65,21.18
2026-07-22 23:49:57.179,-0.23,-0.98,0.06,5.07,9.58,19.29
2026-07-22 23:49:57.179,-0.23,-0.98,0.06,5.07,9.58,19.29
2026-07-22 23:49:57.246,-0.21,-0.89,0.06,-13.79,25.88,28.5
2026-07-22 23:49:57.246,-0.21,-0.89,0.06,-13.79,25.88,28.5
2026-07-22 23:49:57.306,-0.2,-0.83,-0.0,-20.14,42.54,34.0
2026-07-22 23:49:57.316,-0.2,-0.83,-0.0,-20.14,42.54,34.0
2026-07-22 23:49:57.316,-0.22,-0.85,-0.08,1.46,45.29,29.17
2026-07-22 23:49:57.370,-0.26,-0.86,-0.11,34.67,35.34,24.9
2026-07-22 23:49:57.370,-0.26,-0.86,-0.11,34.67,35.34,24.9
2026-07-22 23:49:57.445,-0.3,-0.9,-0.07,46.75,23.56,20.26
2026-07-22 23:49:57.445,-0.3,-0.9,-0.07,46.75,23.56,20.26
2026-07-22 23:49:57.445,-0.34,-0.99,-0.02,36.93,14.34,15.14
2026-07-22 23:49:57.481,-0.34,-0.99,-0.02,36.93,14.34,15.14
2026-07-22 23:49:57.481,-0.39,-1.05,-0.01,30.94,8.85,18.31
2026-07-22 23:49:57.545,-0.42,-1.03,-0.03,32.59,2.69,21.97
2026-07-22 23:49:57.545,-0.42,-1.03,-0.03,32.59,2.69,21.97
2026-07-22 23:49:57.545,-0.43,-0.95,-0.07,25.21,-5.98,19.53
2026-07-22 23:49:57.608,-0.43,-0.95,-0.07,25.21,-5.98,19.53
2026-07-22 23:49:57.608,-0.41,-0.91,-0.14,5.68,-15.87,15.01
2026-07-22 23:49:57.608,-0.41,-0.91,-0.14,5.68,-15.87,15.01
2026-07-22 23:49:57.671,-0.41,-0.91,-0.14,5.68,-15.87,15.01
2026-07-22 23:49:57.671,-0.41,-0.91,-0.14,5.68,-15.87,15.01
2026-07-22 23:49:57.671,-0.37,-1.02,-0.18,10.99,-44.68,13.79
2026-07-22 23:49:57.783,-0.37,-1.02,-0.18,13.31,-46.69,4.33
2026-07-22 23:49:57.783,-0.33,-1.06,-0.13,13.31,-46.69,4.33
2026-07-22 23:49:57.783,-0.29,-1.03,-0.13,-9.09,-41.63,-6.59
2026-07-22 23:49:57.783,-0.29,-1.03,-0.13,-9.09,-41.63,-6.59
2026-07-22 23:49:57.783,-0.25,-0.9,-0.13,-32.96,-42.48,-10.19
2026-07-22 23:49:57.848,-0.25,-0.9,-0.13,-46.87,-48.28,-16.97
2026-07-22 23:49:57.848,-0.21,-0.8,-0.1,-46.87,-48.28,-16.97
2026-07-22 23:49:57.912,-0.17,-0.83,-0.14,-70.25,-49.07,-34.73
2026-07-22 23:49:57.912,-0.17,-0.83,-0.14,-70.25,-49.07,-34.73
2026-07-22 23:49:57.912,-0.12,-0.89,-0.22,-91.92,-33.57,-51.51
2026-07-22 23:49:57.973,-0.12,-0.89,-0.22,-91.92,-33.57,-51.51
2026-07-22 23:49:57.973,-0.08,-0.88,-0.27,-83.25,-8.91,-51.09
2026-07-22 23:49:58.021,-0.05,-0.86,-0.26,-50.23,1.22,-34.97
2026-07-22 23:49:58.021,-0.05,-0.86,-0.26,-50.23,1.22,-34.97
2026-07-22 23:49:58.021,-0.06,-0.94,-0.24,-10.31,-3.54,-16.97
2026-07-22 23:49:58.086,-0.06,-0.94,-0.24,-10.31,-3.54,-16.97
2026-07-22 23:49:58.086,-0.1,-1.1,-0.23,20.2,-14.59,2.56
2026-07-22 23:49:58.094,-0.1,-1.1,-0.23,20.2,-14.59,2.56
2026-07-22 23:49:58.148,-0.12,-1.18,-0.15,31.19,-32.29,21.48
2026-07-22 23:49:58.148,-0.14,-1.21,-0.06,25.15,-48.34,24.48
2026-07-22 23:49:58.212,-0.14,-1.21,-0.06,25.15,-48.34,24.48
2026-07-22 23:49:58.212,-0.17,-1.16,0.01,12.88,-55.66,13.06
2026-07-22 23:49:58.212,-0.17,-1.16,0.01,12.88,-55.66,13.06
2026-07-22 23:49:58.274,-0.17,-0.98,0.02,6.29,-58.04,5.19
2026-07-22 23:49:58.274,-0.17,-0.98,0.02,6.29,-58.04,5.19
2026-07-22 23:49:58.322,-0.14,-0.89,-0.01,4.46,-57.31,-4.39
2026-07-22 23:49:58.322,-0.14,-0.99,-0.01,5.31,-53.65,-18.8
2026-07-22 23:49:58.322,-0.14,-0.99,-0.01,5.31,-53.65,-18.8
2026-07-22 23:49:58.386,-0.16,-1.04,0.0,2.5,-47.91,-18.92
2026-07-22 23:49:58.386,-0.16,-1.04,0.0,2.5,-47.91,-18.92
2026-07-22 23:49:58.386,-0.18,-0.91,0.02,-8.97,-44.25,-0.12
2026-07-22 23:49:58.462,-0.18,-0.91,0.02,-8.97,-44.25,-0.12
2026-07-22 23:49:58.465,-0.2,-0.75,0.05,-14.22,-46.02,18.74
2026-07-22 23:49:58.512,-0.2,-0.75,0.05,-3.3,-47.55,23.5
2026-07-22 23:49:58.512,-0.22,-0.69,0.08,-3.3,-47.55,23.5
2026-07-22 23:49:58.512,-0.25,-0.79,0.09,9.34,-45.1,14.22
2026-07-22 23:49:58.571,-0.25,-0.79,0.09,9.34,-45.1,14.22
2026-07-22 23:49:58.571,-0.26,-0.96,0.05,5.37,-42.91,-2.26
2026-07-22 23:49:58.576,-0.26,-0.96,0.05,5.37,-42.91,-2.26
2026-07-22 23:49:58.624,-0.24,-1.08,0.03,-5.37,-49.8,-10.44
2026-07-22 23:49:58.624,-0.21,-1.12,0.05,-3.36,-66.47,0.12
2026-07-22 23:49:58.696,-0.21,-1.12,0.05,-3.36,-66.47,0.12
2026-07-22 23:49:58.696,-0.17,-1.12,0.07,6.71,-79.53,17.4
2026-07-22 23:49:58.696,-0.17,-1.12,0.07,6.71,-79.53,17.4
2026-07-22 23:49:58.752,-0.13,-1.12,0.07,11.72,-80.26,24.41
2026-07-22 23:49:58.752,-0.13,-1.12,0.07,11.72,-80.26,24.41
2026-07-22 23:49:58.815,-0.09,-1.13,0.05,8.91,-71.78,19.65
2026-07-22 23:49:58.815,-0.09,-1.13,0.05,8.91,-71.78,19.65
2026-07-22 23:49:58.815,-0.07,-1.12,-0.01,-1.65,-60.49,7.51
2026-07-22 23:49:58.869,-0.07,-1.06,-0.04,-14.95,-54.63,-3.42
2026-07-22 23:49:58.869,-0.07,-1.06,-0.04,-14.95,-54.63,-3.42
2026-07-22 23:49:58.926,-0.1,-0.94,-0.02,-21.36,-55.24,-5.07
2026-07-22 23:49:58.926,-0.1,-0.94,-0.02,-21.36,-55.24,-5.07
2026-07-22 23:49:58.926,-0.11,-0.83,-0.03,-15.44,-51.15,-2.62
2026-07-22 23:49:58.992,-0.11,-0.83,-0.03,-15.44,-51.15,-2.62
2026-07-22 23:49:58.992,-0.1,-0.8,-0.09,-2.32,-40.16,-3.97
2026-07-22 23:49:58.992,-0.1,-0.84,-0.12,1.89,-29.54,-10.5
2026-07-22 23:49:59.046,-0.1,-0.84,-0.12,1.89,-29.54,-10.5
2026-07-22 23:49:59.046,-0.11,-0.87,-0.12,-5.74,-21.0,-17.94
2026-07-22 23:49:59.046,-0.11,-0.87,-0.12,-5.74,-21.0,-17.94
2026-07-22 23:49:59.114,-0.11,-0.91,-0.13,-13.79,-11.29,-23.07
2026-07-22 23:49:59.126,-0.11,-0.91,-0.13,-13.79,-11.29,-23.07
2026-07-22 23:49:59.174,-0.11,-0.98,-0.17,-17.4,-2.99,-26.55
2026-07-22 23:49:59.174,-0.13,-1.08,-0.15,-18.13,-2.75,-27.47
2026-07-22 23:49:59.174,-0.13,-1.08,-0.15,-18.13,-2.75,-27.47
2026-07-22 23:49:59.228,-0.15,-1.16,-0.07,-17.46,-8.36,-23.44
2026-07-22 23:49:59.228,-0.15,-1.16,-0.07,-17.46,-8.36,-23.44
2026-07-22 23:49:59.291,-0.13,-1.2,-0.0,-16.11,-10.56,-14.47
2026-07-22 23:49:59.291,-0.13,-1.2,-0.0,-16.11,-10.56,-14.47
2026-07-22 23:49:59.295,-0.09,-1.21,0.01,-15.2,-7.2,-5.98
2026-07-22 23:49:59.356,-0.11,-1.16,0.01,-16.42,-7.14,-0.49
2026-07-22 23:49:59.366,-0.11,-1.16,0.01,-16.42,-7.14,-0.49
2026-07-22 23:49:59.403,-0.15,-1.03,0.01,-17.21,-15.38,7.87
2026-07-22 23:49:59.403,-0.15,-1.03,0.01,-17.21,-15.38,7.87
2026-07-22 23:49:59.403,-0.16,-0.95,0.04,-11.41,-26.18,16.66
2026-07-22 23:49:59.466,-0.16,-0.95,0.04,-11.41,-26.18,16.66
2026-07-22 23:49:59.466,-0.16,-1.01,0.07,0.61,-30.64,15.99
2026-07-22 23:49:59.466,-0.16,-1.01,0.07,0.61,-30.64,15.99
2026-07-22 23:49:59.593,-0.17,-1.11,0.06,8.73,-26.12,8.97
2026-07-22 23:49:59.593,-0.21,-1.07,0.05,6.59,-20.69,8.48
2026-07-22 23:49:59.593,-0.21,-1.07,0.05,6.59,-20.69,8.48
2026-07-22 23:49:59.593,-0.25,-0.92,0.05,1.59,-18.43,14.22
2026-07-22 23:49:59.595,-0.25,-0.92,0.05,1.59,-18.43,14.22
2026-07-22 23:49:59.704,-0.26,-0.82,0.03,5.31,-17.4,17.46
2026-07-22 23:49:59.704,-0.26,-0.82,0.03,5.31,-17.4,17.46
2026-07-22 23:49:59.704,-0.26,-0.83,0.01,10.07,-17.09,14.28
2026-07-22 23:49:59.704,-0.26,-0.86,-0.01,2.08,-16.85,7.39
2026-07-22 23:49:59.704,-0.26,-0.86,-0.01,2.08,-16.85,7.39
2026-07-22 23:49:59.768,-0.25,-0.87,-0.03,-10.38,-17.76,2.38
2026-07-22 23:49:59.768,-0.25,-0.87,-0.03,-10.38,-17.76,2.38
2026-07-22 23:49:59.768,-0.29,-0.86,0.0,-12.88,-22.64,2.14
2026-07-22 23:49:59.831,-0.35,-0.85,0.07,-6.96,-28.38,4.03
2026-07-22 23:49:59.831,-0.35,-0.85,0.07,-6.96,-28.38,4.03
2026-07-22 23:49:59.879,-0.41,-0.86,0.11,-3.11,-28.38,2.93
2026-07-22 23:49:59.879,-0.41,-0.86,0.11,-3.11,-28.38,2.93
2026-07-22 23:49:59.879,-0.45,-0.91,0.12,-5.62,-23.44,-0.92
2026-07-22 23:49:59.946,-0.45,-0.91,0.12,-5.62,-23.44,-0.92
2026-07-22 23:49:59.946,-0.48,-0.96,0.1,-11.96,-17.94,-4.64
2026-07-22 23:49:59.946,-0.48,-0.96,0.1,-17.21,-15.32,-4.7
2026-07-22 23:50:00.006,-0.5,-0.98,0.03,-17.21,-15.32,-4.7
2026-07-22 23:50:00.006,-0.46,-0.98,-0.04,-16.05,-19.41,1.46
2026-07-22 23:50:00.070,-0.46,-0.98,-0.04,-16.05,-19.41,1.46
2026-07-22 23:50:00.070,-0.36,-1.0,-0.07,-8.3,-30.09,9.89
2026-07-22 23:50:00.070,-0.36,-1.0,-0.07,-8.3,-30.09,9.89
2026-07-22 23:50:00.195,-0.22,-1.07,-0.07,0.55,-41.14,14.83
2026-07-22 23:50:00.198,-0.22,-1.07,-0.07,1.34,-49.62,13.85
2026-07-22 23:50:00.198,-0.08,-1.17,-0.06,1.34,-49.62,13.85
2026-07-22 23:50:00.198,0.01,-1.23,-0.02,-8.24,-56.64,8.36
2026-07-22 23:50:00.198,0.01,-1.23,-0.02,-8.24,-56.64,8.36
2026-07-22 23:50:00.247,0.03,-1.21,0.0,-17.4,-59.94,4.27
2026-07-22 23:50:00.247,0.03,-1.21,0.0,-17.4,-59.94,4.27
2026-07-22 23:50:00.247,-0.02,-1.07,0.0,-15.87,-59.39,9.52
2026-07-22 23:50:00.317,-0.02,-1.07,0.0,-15.87,-59.39,9.52
2026-07-22 23:50:00.317,-0.06,-0.89,-0.01,-8.12,-54.08,19.9
2026-07-22 23:50:00.399,-0.09,-0.81,-0.07,-1.34,-40.83,21.06
2026-07-22 23:50:00.399,-0.09,-0.81,-0.07,-1.34,-40.83,21.06
2026-07-22 23:50:00.399,-0.11,-0.8,-0.17,4.33,-26.31,13.37
2026-07-22 23:50:00.418,-0.11,-0.8,-0.17,4.33,-26.31,13.37
2026-07-22 23:50:00.418,-0.15,-0.76,-0.2,5.25,-20.32,5.74
2026-07-22 23:50:00.418,-0.15,-0.76,-0.2,5.25,-20.32,5.74
2026-07-22 23:50:00.490,-0.19,-0.72,-0.17,2.69,-21.48,-2.38
2026-07-22 23:50:00.498,-0.21,-0.79,-0.18,-0.73,-22.4,-17.7
2026-07-22 23:50:00.547,-0.21,-0.79,-0.18,-0.73,-22.4,-17.7
2026-07-22 23:50:00.547,-0.22,-0.95,-0.21,-5.86,-26.31,-36.38
2026-07-22 23:50:00.547,-0.22,-0.95,-0.21,-5.86,-26.31,-36.38
2026-07-22 23:50:00.613,-0.23,-1.08,-0.15,-8.91,-38.51,-43.46
2026-07-22 23:50:00.613,-0.23,-1.08,-0.15,-8.91,-38.51,-43.46
2026-07-22 23:50:00.667,-0.24,-1.16,-0.08,-13.73,-50.84,-34.91
2026-07-22 23:50:00.667,-0.25,-1.2,-0.02,-20.63,-56.82,-20.08
2026-07-22 23:50:00.667,-0.25,-1.2,-0.02,-20.63,-56.82,-20.08
2026-07-22 23:50:00.736,-0.24,-1.17,0.04,-20.57,-58.17,-7.08
2026-07-22 23:50:00.736,-0.24,-1.17,0.04,-20.57,-58.17,-7.08
2026-07-22 23:50:00.784,-0.19,-1.12,0.07,-8.79,-54.81,1.16
2026-07-22 23:50:00.784,-0.19,-1.12,0.07,-8.79,-54.81,1.16
2026-07-22 23:50:00.784,-0.15,-1.06,0.06,9.46,-49.93,7.51
2026-07-22 23:50:00.848,-0.14,-0.97,0.06,13.12,-47.49,16.24
2026-07-22 23:50:00.848,-0.14,-0.97,0.06,13.12,-47.49,16.24
2026-07-22 23:50:00.848,-0.14,-0.84,0.09,-5.31,-44.49,25.21
2026-07-22 23:50:00.911,-0.14,-0.84,0.09,-5.31,-44.49,25.21
2026-07-22 23:50:00.911,-0.14,-0.73,0.13,-17.15,-37.48,26.06
2026-07-22 23:50:00.911,-0.14,-0.73,0.13,-17.15,-37.48,26.06
2026-07-22 23:50:00.969,-0.14,-0.77,0.07,-2.38,-25.33,12.57
2026-07-22 23:50:00.969,-0.16,-0.92,-0.02,24.84,-15.81,-2.2
2026-07-22 23:50:01.038,-0.16,-0.92,-0.02,24.84,-15.81,-2.2
2026-07-22 23:50:01.038,-0.17,-1.07,-0.03,56.4,-19.04,1.46
2026-07-22 23:50:01.038,-0.17,-1.07,-0.03,56.4,-19.04,1.46
2026-07-22 23:50:01.092,-0.16,-1.16,0.08,84.59,-32.41,16.42
2026-07-22 23:50:01.094,-0.16,-1.16,0.08,84.59,-32.41,16.42
2026-07-22 23:50:01.171,-0.21,-1.14,0.22,68.18,-40.47,18.68
2026-07-22 23:50:01.172,-0.27,-0.96,0.3,-4.03,-38.88,4.21
2026-07-22 23:50:01.172,-0.27,-0.96,0.3,-4.03,-38.88,4.21
2026-07-22 23:50:01.213,-0.29,-0.74,0.29,-63.48,-35.58,-7.08
2026-07-22 23:50:01.213,-0.29,-0.74,0.29,-63.48,-35.58,-7.08
2026-07-22 23:50:01.277,-0.29,-0.67,0.22,-52.25,-34.3,-5.25
2026-07-22 23:50:01.277,-0.29,-0.67,0.22,-52.25,-34.3,-5.25
2026-07-22 23:50:01.277,-0.3,-0.81,0.15,0.0,-37.54,-1.89
2026-07-22 23:50:01.338,-0.32,-1.05,0.15,45.96,-46.57,4.76
2026-07-22 23:50:01.339,-0.32,-1.05,0.15,45.96,-46.57,4.76
2026-07-22 23:50:01.397,-0.35,-1.14,0.24,91.92,-61.4,29.11
2026-07-22 23:50:01.397,-0.35,-1.14,0.24,91.92,-61.4,29.11
2026-07-22 23:50:01.397,-0.34,-1.0,0.39,148.38,-76.42,65.67
2026-07-22 23:50:01.452,-0.34,-1.0,0.39,148.38,-76.42,65.67
2026-07-22 23:50:01.452,-0.29,-0.78,0.6,197.14,-86.73,87.71
2026-07-22 23:50:01.452,-0.23,-0.67,0.8,224.61,-87.59,80.26
2026-07-22 23:50:01.515,-0.23,-0.67,0.8,224.61,-87.59,80.26
2026-07-22 23:50:01.515,-0.17,-0.63,0.9,233.83,-76.11,68.24
2026-07-22 23:50:01.580,-0.17,-0.63,0.9,233.83,-76.11,68.24
2026-07-22 23:50:01.580,-0.12,-0.51,0.93,242.07,-71.17,86.0
2026-07-22 23:50:01.598,-0.08,-0.27,0.94,252.44,-87.71,126.04
2026-07-22 23:50:01.632,-0.08,-0.27,0.94,252.44,-87.71,126.04
2026-07-22 23:50:01.632,-0.09,-0.08,0.91,196.35,-90.39,138.49
2026-07-22 23:50:01.697,-0.09,-0.08,0.91,196.35,-90.39,138.49
2026-07-22 23:50:01.697,-0.14,-0.1,0.89,52.67,-46.2,102.54
2026-07-22 23:50:01.699,-0.14,-0.1,0.89,-57.31,9.58,52.8
2026-07-22 23:50:01.770,-0.18,-0.18,0.9,-57.31,9.58,52.8
2026-07-22 23:50:01.770,-0.17,-0.15,0.92,-63.6,32.53,21.0
2026-07-22 23:50:01.817,-0.17,-0.15,0.92,-63.6,32.53,21.0
2026-07-22 23:50:01.817,-0.18,-0.12,0.93,-27.59,19.9,0.73
2026-07-22 23:50:01.928,-0.18,-0.12,0.93,0.73,-7.63,-11.78
2026-07-22 23:50:01.928,-0.19,-0.11,0.92,0.73,-7.63,-11.78
2026-07-22 23:50:01.928,-0.2,-0.08,0.93,29.72,-30.46,-3.17
2026-07-22 23:50:01.928,-0.2,-0.08,0.93,29.72,-30.46,-3.17
2026-07-22 23:50:01.928,-0.17,-0.06,1.02,49.62,-44.8,16.3
2026-07-22 23:50:01.928,-0.17,-0.06,1.02,49.62,-44.8,16.3
2026-07-22 23:50:01.996,-0.16,-0.04,1.09,34.06,-44.86,45.96
2026-07-22 23:50:01.996,-0.16,-0.04,1.09,34.06,-44.86,45.96
2026-07-22 23:50:01.996,-0.14,0.02,1.07,0.0,-12.15,75.99
2026-07-22 23:50:02.056,-0.1,0.02,1.05,-21.79,27.53,76.84
2026-07-22 23:50:02.056,-0.1,0.02,1.05,-21.79,27.53,76.84
2026-07-22 23:50:02.183,-0.08,-0.03,1.06,-33.87,31.8,44.49
2026-07-22 23:50:02.183,-0.08,-0.03,1.06,-33.87,31.8,44.49
2026-07-22 23:50:02.183,-0.08,-0.07,1.04,-34.79,20.87,4.46
2026-07-22 23:50:02.183,-0.08,-0.07,1.04,-34.79,20.87,4.46
2026-07-22 23:50:02.183,-0.08,-0.08,0.96,-14.83,17.21,-17.27
2026-07-22 23:50:02.231,-0.07,-0.08,0.9,-14.28,18.55,-26.43
2026-07-22 23:50:02.231,-0.07,-0.08,0.9,-14.28,18.55,-26.43
2026-07-22 23:50:02.231,-0.11,-0.2,0.91,-97.72,30.4,-43.82
2026-07-22 23:50:02.278,-0.11,-0.2,0.91,-97.72,30.4,-43.82
2026-07-22 23:50:02.278,-0.14,-0.44,0.91,-227.48,40.83,-69.46
2026-07-22 23:50:02.278,-0.14,-0.44,0.91,-271.61,70.74,-121.95
2026-07-22 23:50:02.351,-0.14,-0.59,0.81,-271.61,70.74,-121.95
2026-07-22 23:50:02.351,-0.1,-0.6,0.7,-201.84,106.2,-175.72
2026-07-22 23:50:02.407,-0.1,-0.6,0.7,-201.84,106.2,-175.72
2026-07-22 23:50:02.407,0.0,-0.63,0.74,-68.97,72.02,-155.94
2026-07-22 23:50:02.417,0.0,-0.63,0.74,-68.97,72.02,-155.94
2026-07-22 23:50:02.470,0.07,-0.68,0.88,56.95,-0.12,-101.26
2026-07-22 23:50:02.470,0.05,-0.69,0.9,80.81,-24.29,-70.37
2026-07-22 23:50:02.597,0.05,-0.69,0.9,80.81,-24.29,-70.37
2026-07-22 23:50:02.597,-0.01,-0.62,0.74,7.32,21.12,-52.73
2026-07-22 23:50:02.597,-0.01,-0.62,0.74,7.32,21.12,-52.73
2026-07-22 23:50:02.597,-0.05,-0.56,0.62,-56.21,96.37,-26.79
2026-07-22 23:50:02.597,-0.05,-0.56,0.62,-55.3,185.3,23.13
2026-07-22 23:50:02.652,-0.13,-0.6,0.64,-55.3,185.3,23.13
2026-07-22 23:50:02.652,-0.37,-0.67,0.68,-4.33,278.2,72.94
2026-07-22 23:50:02.652,-0.37,-0.67,0.68,-4.33,278.2,72.94
2026-07-22 23:50:02.771,-0.52,-0.66,0.65,59.75,261.41,69.15
2026-07-22 23:50:02.771,-0.52,-0.66,0.65,59.75,261.41,69.15
2026-07-22 23:50:02.771,-0.51,-0.57,0.58,77.76,143.68,25.88
2026-07-22 23:50:02.771,-0.53,-0.48,0.53,40.89,70.01,-25.82
2026-07-22 23:50:02.771,-0.53,-0.48,0.53,40.89,70.01,-25.82
2026-07-22 23:50:02.818,-0.57,-0.59,0.57,-51.7,23.74,-114.26
2026-07-22 23:50:02.818,-0.57,-0.59,0.57,-51.7,23.74,-114.26
2026-07-22 23:50:02.882,-0.46,-0.85,0.56,-147.16,-40.41,-212.22
2026-07-22 23:50:02.882,-0.2,-1.01,0.4,-172.73,-75.74,-259.52
2026-07-22 23:50:02.882,-0.2,-1.01,0.4,-172.73,-75.74,-259.52
2026-07-22 23:50:02.959,0.04,-1.0,0.18,-123.78,-71.23,-250.85
2026-07-22 23:50:02.959,0.04,-1.0,0.18,-123.78,-71.23,-250.85
2026-07-22 23:50:02.959,0.22,-0.86,0.03,-30.27,-67.5,-158.45
2026-07-22 23:50:03.010,0.22,-0.86,0.03,-30.27,-67.5,-158.45
2026-07-22 23:50:03.010,0.32,-0.73,-0.0,37.6,-87.89,-41.2
2026-07-22 23:50:03.082,0.35,-0.69,0.08,47.61,-91.8,-13.43
2026-07-22 23:50:03.086,0.35,-0.69,0.08,47.61,-91.8,-13.43
2026-07-22 23:50:03.086,0.32,-0.66,0.19,25.76,-46.45,-50.72
2026-07-22 23:50:03.125,0.32,-0.66,0.19,25.76,-46.45,-50.72
2026-07-22 23:50:03.125,0.41,-0.64,0.26,14.22,2.99,-77.03
2026-07-22 23:50:03.191,0.41,-0.64,0.26,61.65,0.98,-77.76
2026-07-22 23:50:03.216,0.62,-0.71,0.22,61.65,0.98,-77.76
2026-07-22 23:50:03.216,0.88,-0.81,0.19,133.91,-56.03,-71.78
2026-07-22 23:50:03.247,0.88,-0.81,0.19,133.91,-56.03,-71.78
2026-07-22 23:50:03.247,1.0,-1.01,0.33,107.91,-149.96,-51.51
2026-07-22 23:50:03.247,1.0,-1.01,0.33,107.91,-149.96,-51.51
2026-07-22 23:50:03.311,0.87,-1.21,0.51,-26.18,-258.54,-34.06
2026-07-22 23:50:03.311,0.75,-1.24,0.37,-157.23,-324.58,-64.21
2026-07-22 23:50:03.375,0.75,-1.24,0.37,-157.23,-324.58,-64.21
2026-07-22 23:50:03.375,0.68,-1.15,-0.01,-220.4,-291.44,-84.35
2026-07-22 23:50:03.375,0.68,-1.15,-0.01,-220.4,-291.44,-84.35
2026-07-22 23:50:03.422,0.64,-1.12,-0.31,-239.81,-184.27,-50.48
2026-07-22 23:50:03.422,0.6,-1.11,-0.54,-249.69,-94.36,-39.18
2026-07-22 23:50:03.486,0.6,-1.11,-0.54,-249.69,-94.36,-39.18
2026-07-22 23:50:03.486,0.44,-0.89,-0.51,-213.75,-84.9,-26.06
2026-07-22 23:50:03.486,0.44,-0.89,-0.51,-213.75,-84.9,-26.06
2026-07-22 23:50:03.565,0.36,-0.42,-0.36,-135.93,-85.51,21.67
2026-07-22 23:50:03.566,0.36,-0.42,-0.36,-135.93,-85.51,21.67
2026-07-22 23:50:03.610,0.41,-0.19,-0.44,-48.16,-49.5,66.1
2026-07-22 23:50:03.612,0.42,-0.38,-0.52,13.12,-6.04,91.25
2026-07-22 23:50:03.612,0.42,-0.38,-0.52,13.12,-6.04,91.25
2026-07-22 23:50:03.676,0.51,-0.61,-0.5,3.3,60.36,95.4
2026-07-22 23:50:03.676,0.51,-0.61,-0.5,3.3,60.36,95.4
2026-07-22 23:50:03.786,0.68,-0.68,-0.48,-51.94,132.2,108.28
2026-07-22 23:50:03.786,0.68,-0.68,-0.48,-106.69,159.67,134.4
2026-07-22 23:50:03.786,0.7,-0.61,-0.52,-106.69,159.67,134.4
2026-07-22 23:50:03.786,0.58,-0.65,-0.56,-104.49,137.51,148.62
2026-07-22 23:50:03.786,0.58,-0.65,-0.56,-104.49,137.51,148.62
2026-07-22 23:50:03.913,0.52,-0.88,-0.56,-40.04,105.47,141.11
2026-07-22 23:50:03.913,0.52,-1.03,-0.53,20.26,77.7,140.26
2026-07-22 23:50:03.913,0.52,-1.03,-0.53,20.26,77.7,140.26
2026-07-22 23:50:03.913,0.51,-1.0,-0.45,45.29,63.17,183.47
2026-07-22 23:50:03.913,0.51,-1.0,-0.45,45.29,63.17,183.47
2026-07-22 23:50:03.971,0.38,-0.91,-0.39,35.58,80.57,257.69
2026-07-22 23:50:03.976,0.18,-0.85,-0.56,-42.79,128.05,312.87
2026-07-22 23:50:03.976,0.18,-0.85,-0.56,-42.79,128.05,312.87
2026-07-22 23:50:04.024,0.06,-0.63,-0.73,-190.0,155.76,309.69
2026-07-22 23:50:04.024,0.06,-0.63,-0.73,-190.0,155.76,309.69
2026-07-22 23:50:04.103,0.01,-0.44,-0.74,-247.01,131.04,227.72
2026-07-22 23:50:04.103,0.01,-0.44,-0.74,-247.01,131.04,227.72
2026-07-22 23:50:04.103,-0.0,-0.53,-0.66,-132.81,55.73,85.75
2026-07-22 23:50:04.157,0.1,-0.61,-0.55,54.38,-32.71,-52.61
2026-07-22 23:50:04.157,0.1,-0.61,-0.55,54.38,-32.71,-52.61
2026-07-22 23:50:04.209,0.12,-0.69,-0.57,293.76,-104.37,-118.23
2026-07-22 23:50:04.209,0.12,-0.69,-0.57,293.76,-104.37,-118.23
2026-07-22 23:50:04.209,-0.15,-0.97,-0.36,467.9,-172.3,-107.2
2026-07-22 23:50:04.262,-0.36,-1.2,0.06,393.68,-146.73,-116.27
2026-07-22 23:50:04.262,-0.36,-1.2,0.06,393.68,-146.73,-116.27
2026-07-22 23:50:04.325,-0.09,-1.19,0.09,141.72,20.94,-202.64
2026-07-22 23:50:04.325,-0.09,-1.19,0.09,141.72,20.94,-202.64
2026-07-22 23:50:04.325,0.33,-1.03,-0.29,-129.21,170.47,-278.99
2026-07-22 23:50:04.389,0.5,-0.7,-0.46,-287.17,167.24,-246.64
2026-07-22 23:50:04.405,0.5,-0.7,-0.46,-287.17,167.24,-246.64
2026-07-22 23:50:04.445,0.55,-0.39,-0.28,-269.84,97.9,-154.11
2026-07-22 23:50:04.445,0.55,-0.39,-0.28,-269.84,97.9,-154.11
2026-07-22 23:50:04.445,0.66,-0.38,-0.0,-151.06,67.02,-93.57
2026-07-22 23:50:04.511,0.73,-0.58,0.08,-16.11,78.86,-21.12
2026-07-22 23:50:04.511,0.73,-0.58,0.08,-16.11,78.86,-21.12
2026-07-22 23:50:04.565,0.75,-0.87,-0.02,144.53,152.16,117.68
2026-07-22 23:50:04.581,0.75,-0.87,-0.02,144.53,152.16,117.68
2026-07-22 23:50:04.581,0.7,-1.15,-0.22,260.38,256.35,223.75
2026-07-22 23:50:04.628,0.7,-1.15,-0.22,260.38,256.35,223.75
2026-07-22 23:50:04.628,0.57,-1.13,-0.26,228.64,201.72,188.96
2026-07-22 23:50:04.693,0.56,-0.73,0.04,163.21,-48.58,107.48
2026-07-22 23:50:04.694,0.56,-0.73,0.04,163.21,-48.58,107.48
2026-07-22 23:50:04.694,0.56,-0.4,0.48,225.83,-245.73,107.3
2026-07-22 23:50:04.802,0.56,-0.4,0.48,225.83,-245.73,107.3
2026-07-22 23:50:04.802,0.52,-0.48,0.77,308.96,-242.92,130.92
2026-07-22 23:50:04.813,0.54,-0.89,0.56,146.24,-199.04,110.96
2026-07-22 23:50:04.813,0.54,-0.89,0.56,146.24,-199.04,110.96
2026-07-22 23:50:04.813,0.64,-1.24,0.15,-81.42,-214.42,97.72
2026-07-22 23:50:04.866,0.64,-1.24,0.15,-81.42,-214.42,97.72
2026-07-22 23:50:04.866,0.67,-1.05,0.08,-86.85,-233.28,71.9
2026-07-22 23:50:04.929,0.55,-0.48,0.23,18.13,-255.0,-34.61
2026-07-22 23:50:04.929,0.55,-0.48,0.23,18.13,-255.0,-34.61
2026-07-22 23:50:04.929,0.47,-0.15,0.41,89.48,-208.5,-200.99
2026-07-22 23:50:04.993,0.47,-0.15,0.41,89.48,-208.5,-200.99
2026-07-22 23:50:04.993,0.92,-0.24,0.61,111.88,-100.22,-352.36
2026-07-22 23:50:05.056,0.92,-0.24,0.61,49.87,-112.43,-347.84
2026-07-22 23:50:05.059,1.32,-0.33,0.37,49.87,-112.43,-347.84
2026-07-22 23:50:05.067,1.2,-0.03,-0.16,-129.7,-224.67,-176.0
2026-07-22 23:50:05.104,1.2,-0.03,-0.16,-129.7,-224.67,-176.0
2026-07-22 23:50:05.104,1.15,0.28,-0.32,-229.8,-249.57,-70.92
2026-07-22 23:50:05.104,1.15,0.28,-0.32,-229.8,-249.57,-70.92
2026-07-22 23:50:05.231,1.04,0.09,-0.36,-133.73,-144.59,-78.43
2026-07-22 23:50:05.231,0.85,-0.24,-0.52,8.48,0.79,-94.3
2026-07-22 23:50:05.231,0.85,-0.24,-0.52,8.48,0.79,-94.3
2026-07-22 23:50:05.231,0.71,-0.18,-0.59,89.05,59.2,-90.82
2026-07-22 23:50:05.231,0.71,-0.18,-0.59,89.05,59.2,-90.82
2026-07-22 23:50:05.278,0.69,0.08,-0.54,104.61,-0.24,-63.54
2026-07-22 23:50:05.468,0.82,0.13,-0.4,89.42,-71.96,-50.54
2026-07-22 23:50:05.468,0.82,0.13,-0.4,89.42,-71.96,-50.54
2026-07-22 23:50:05.468,0.94,-0.06,-0.23,68.48,-82.89,-25.02
2026-07-22 23:50:05.468,0.94,-0.06,-0.23,68.48,-82.89,-25.02
2026-07-22 23:50:05.468,0.9,-0.1,-0.31,58.04,-86.43,19.41
2026-07-22 23:50:05.516,0.9,-0.1,-0.31,58.04,-86.43,19.41
2026-07-22 23:50:05.532,0.85,0.07,-0.65,71.17,-84.78,24.35
2026-07-22 23:50:05.548,0.92,0.18,-0.78,72.08,-38.88,4.46
2026-07-22 23:50:05.548,0.92,0.18,-0.78,72.08,-38.88,4.46
2026-07-22 23:50:05.548,0.95,0.04,-0.59,15.32,-4.33,11.41
2026-07-22 23:50:05.548,0.95,0.04,-0.59,15.32,-4.33,11.41
2026-07-22 23:50:05.548,0.92,-0.23,-0.61,-69.21,-35.71,42.72
2026-07-22 23:50:05.580,0.92,-0.23,-0.61,-69.21,-35.71,42.72
2026-07-22 23:50:05.580,1.12,-0.52,-0.67,-87.77,-91.61,96.8
2026-07-22 23:50:05.646,1.22,-0.62,-0.48,27.59,-44.13,197.81
2026-07-22 23:50:05.646,1.22,-0.62,-0.48,27.59,-44.13,197.81
2026-07-22 23:50:05.661,0.98,-0.54,-0.51,208.19,74.1,285.58
2026-07-22 23:50:05.772,0.98,-0.54,-0.51,208.19,74.1,285.58
2026-07-22 23:50:05.772,0.82,-0.54,-0.6,256.1,105.71,280.21
2026-07-22 23:50:05.772,0.77,-0.55,-0.5,161.13,91.31,227.78
2026-07-22 23:50:05.773,0.77,-0.55,-0.5,161.13,91.31,227.78
2026-07-22 23:50:05.905,0.65,-0.54,-0.33,113.1,111.69,195.25
2026-07-22 23:50:06.010,0.65,-0.54,-0.33,113.1,111.69,195.25
2026-07-22 23:50:06.074,0.49,-0.52,-0.09,137.02,128.36,173.89
2026-07-22 23:50:06.074,0.43,-0.45,0.04,125.24,68.97,106.81
2026-07-22 23:50:06.074,0.43,-0.45,0.04,125.24,68.97,106.81
2026-07-22 23:50:06.074,0.53,-0.43,0.09,53.1,-34.24,0.31
2026-07-22 23:50:06.074,0.53,-0.43,0.09,53.1,-34.24,0.31
2026-07-22 23:50:06.074,0.56,-0.74,0.15,-33.94,-82.4,-60.49
2026-07-22 23:50:06.074,0.56,-0.74,0.15,-33.94,-82.4,-60.49
2026-07-22 23:50:06.074,0.38,-1.28,0.03,-146.36,-52.25,-11.96
2026-07-22 23:50:06.074,0.46,-1.57,-0.24,-266.3,17.7,86.55
2026-07-22 23:50:06.074,0.46,-1.57,-0.24,-266.3,17.7,86.55
2026-07-22 23:50:06.074,0.75,-1.21,-0.35,-266.17,48.65,99.3
2026-07-22 23:50:06.074,0.75,-1.21,-0.35,-266.17,48.65,99.3
2026-07-22 23:50:06.194,0.67,-0.56,-0.3,-119.87,19.17,5.74
2026-07-22 23:50:06.194,0.43,-0.34,-0.41,22.77,-16.72,-93.57
2026-07-22 23:50:06.196,0.43,-0.34,-0.41,22.77,-16.72,-93.57
2026-07-22 23:50:06.196,0.16,-0.54,-0.69,70.62,-68.05,-120.85
2026-07-22 23:50:06.250,0.16,-0.54,-0.69,70.62,-68.05,-120.85
2026-07-22 23:50:06.250,0.06,-0.68,-0.76,40.16,-106.38,-84.66
2026-07-22 23:50:06.250,0.06,-0.68,-0.76,40.16,-106.38,-84.66
2026-07-22 23:50:06.313,0.28,-0.71,-0.54,-58.59,-71.23,-17.21
2026-07-22 23:50:06.313,0.43,-0.78,-0.43,-175.05,-35.22,55.24
2026-07-22 23:50:06.371,0.43,-0.78,-0.43,-175.05,-35.22,55.24
2026-07-22 23:50:06.371,0.3,-0.82,-0.53,-198.49,-39.0,92.16
2026-07-22 23:50:06.371,0.3,-0.82,-0.53,-198.49,-39.0,92.16
2026-07-22 23:50:06.550,0.15,-0.82,-0.66,-124.94,-32.84,66.16
2026-07-22 23:50:06.550,0.15,-0.76,-0.76,-46.69,-20.75,21.67
2026-07-22 23:50:06.550,0.15,-0.76,-0.76,-46.69,-20.75,21.67
2026-07-22 23:50:06.550,0.1,-0.77,-0.83,-24.41,15.87,58.78
2026-07-22 23:50:06.550,0.1,-0.77,-0.83,-24.41,15.87,58.78
2026-07-22 23:50:06.550,-0.0,-1.16,-0.68,-52.98,91.25,155.76
2026-07-22 23:50:06.550,-0.0,-1.16,-0.68,-52.98,91.25,155.76
2026-07-22 23:50:06.550,0.06,-1.38,-0.59,-36.56,102.05,177.06
2026-07-22 23:50:06.613,0.24,-0.96,-0.81,81.42,16.54,102.66
2026-07-22 23:50:06.613,0.24,-0.96,-0.81,81.42,16.54,102.66
2026-07-22 23:50:06.788,0.39,-0.67,-0.97,173.95,-42.05,63.05
2026-07-22 23:50:06.788,0.39,-0.67,-0.97,173.95,-42.05,63.05
2026-07-22 23:50:06.788,0.42,-0.76,-0.86,151.06,-3.54,128.6
2026-07-22 23:50:06.788,0.31,-0.79,-0.65,94.24,61.52,194.15
2026-07-22 23:50:06.795,0.31,-0.79,-0.65,94.24,61.52,194.15
2026-07-22 23:50:06.795,0.12,-0.69,-0.47,75.38,79.53,174.68
2026-07-22 23:50:06.795,0.12,-0.69,-0.47,75.38,79.53,174.68
2026-07-22 23:50:06.795,0.04,-0.6,-0.35,69.27,44.62,100.46
2026-07-22 23:50:06.909,0.04,-0.6,-0.35,69.27,44.62,100.46
2026-07-22 23:50:06.909,0.13,-0.51,-0.29,38.21,-13.49,15.2
2026-07-22 23:50:06.909,0.19,-0.59,-0.28,0.55,-46.45,-59.69
2026-07-22 23:50:06.909,0.19,-0.59,-0.28,0.55,-46.45,-59.69
2026-07-22 23:50:06.915,-0.0,-0.94,-0.39,-31.68,-45.29,-109.92
2026-07-22 23:50:06.978,-0.0,-0.94,-0.39,-31.68,-45.29,-109.92
2026-07-22 23:50:06.978,-0.41,-1.31,-0.46,-80.63,-2.32,-79.16
2026-07-22 23:50:06.978,-0.41,-1.31,-0.46,-80.63,-2.32,-79.16
2026-07-22 23:50:07.025,-0.21,-1.4,-0.55,-127.2,98.57,37.54
2026-07-22 23:50:07.025,0.42,-1.12,-0.68,-110.84,128.48,66.22
2026-07-22 23:50:07.088,0.42,-1.12,-0.68,-110.84,128.48,66.22
2026-07-22 23:50:07.088,0.57,-0.63,-0.63,-36.56,45.04,-31.74
2026-07-22 23:50:07.095,0.57,-0.63,-0.63,-36.56,45.04,-31.74
2026-07-22 23:50:07.152,0.4,-0.34,-0.59,20.57,4.88,-90.21
2026-07-22 23:50:07.152,0.4,-0.34,-0.59,33.75,12.57,-91.25
2026-07-22 23:50:07.215,0.14,-0.43,-0.72,33.75,12.57,-91.25
2026-07-22 23:50:07.215,-0.03,-0.61,-0.82,18.07,-32.29,-112.3
2026-07-22 23:50:07.215,-0.03,-0.61,-0.82,18.07,-32.29,-112.3
2026-07-22 23:50:07.280,-0.01,-0.68,-0.73,-27.83,-90.76,-124.27
2026-07-22 23:50:07.311,-0.01,-0.68,-0.73,-27.83,-90.76,-124.27
2026-07-22 23:50:07.327,0.06,-0.7,-0.59,-73.36,-70.01,-67.32
2026-07-22 23:50:07.327,0.04,-0.68,-0.56,-79.77,11.29,25.7
2026-07-22 23:50:07.327,0.04,-0.68,-0.56,-79.77,11.29,25.7
2026-07-22 23:50:07.392,-0.0,-0.7,-0.67,-65.0,73.49,86.3
2026-07-22 23:50:07.392,-0.0,-0.7,-0.67,-65.0,73.49,86.3
2026-07-22 23:50:07.392,0.04,-0.81,-0.81,-63.78,83.98,94.6
2026-07-22 23:50:07.455,0.04,-0.81,-0.81,-63.78,83.98,94.6
2026-07-22 23:50:07.455,0.09,-1.0,-0.74,-66.59,50.9,61.52
2026-07-22 23:50:07.514,-0.01,-1.13,-0.62,-38.45,15.99,24.11
2026-07-22 23:50:07.514,-0.01,-1.13,-0.62,-38.45,15.99,24.11
2026-07-22 23:50:07.514,-0.09,-1.17,-0.65,18.74,3.11,12.02
2026-07-22 23:50:07.581,-0.09,-1.17,-0.65,18.74,3.11,12.02
2026-07-22 23:50:07.581,0.09,-1.04,-0.73,95.09,-14.1,14.47
2026-07-22 23:50:07.581,0.09,-1.04,-0.73,95.09,-14.1,14.47
2026-07-22 23:50:07.629,0.3,-0.73,-0.87,165.95,-39.55,28.63
2026-07-22 23:50:07.629,0.39,-0.73,-0.94,168.21,-33.63,79.41
2026-07-22 23:50:07.695,0.39,-0.73,-0.94,168.21,-33.63,79.41
2026-07-22 23:50:07.695,0.4,-0.9,-0.79,118.71,21.36,155.03
2026-07-22 23:50:07.695,0.4,-0.9,-0.79,118.71,21.36,155.03
2026-07-22 23:50:07.821,0.34,-0.82,-0.55,96.37,63.42,171.33
2026-07-22 23:50:07.821,0.21,-0.64,-0.36,97.78,62.38,120.18
2026-07-22 23:50:07.870,0.21,-0.64,-0.36,97.78,62.38,120.18
2026-07-22 23:50:07.870,0.12,-0.59,-0.21,73.12,38.57,58.35
2026-07-22 23:50:07.870,0.12,-0.59,-0.21,28.93,-0.49,-6.04
2026-07-22 23:50:07.870,0.14,-0.6,-0.21,28.93,-0.49,-6.04
2026-07-22 23:50:07.870,0.14,-0.69,-0.36,-6.71,-38.21,-68.79
2026-07-22 23:50:07.951,0.14,-0.69,-0.36,-6.71,-38.21,-68.79
2026-07-22 23:50:07.951,-0.16,-1.08,-0.38,-61.58,-37.35,-86.43
2026-07-22 23:50:07.951,-0.16,-1.08,-0.38,-61.58,-37.35,-86.43
2026-07-22 23:50:07.977,-0.39,-1.45,-0.38,-130.31,46.75,-12.76
2026-07-22 23:50:07.977,0.05,-1.26,-0.57,-142.58,126.53,62.87
2026-07-22 23:50:08.168,0.05,-1.26,-0.57,-142.58,126.53,62.87
2026-07-22 23:50:08.168,0.52,-0.81,-0.64,-86.3,85.14,21.79
2026-07-22 23:50:08.168,0.52,-0.81,-0.64,-86.3,85.14,21.79
2026-07-22 23:50:08.168,0.5,-0.51,-0.56,-29.91,24.35,-51.7
2026-07-22 23:50:08.168,0.5,-0.51,-0.56,-29.91,24.35,-51.7
2026-07-22 23:50:08.168,0.27,-0.46,-0.59,-10.19,35.58,-65.19
2026-07-22 23:50:08.168,0.01,-0.6,-0.76,1.53,20.02,-84.9
2026-07-22 23:50:08.168,0.01,-0.6,-0.76,1.53,20.02,-84.9
2026-07-22 23:50:08.778,-0.14,-0.71,-0.82,-7.51,-59.88,-129.58
2026-07-22 23:50:08.778,-0.14,-0.71,-0.82,-7.51,-59.88,-129.58
2026-07-22 23:50:08.780,-0.06,-0.74,-0.66,-49.44,-97.47,-120.91
2026-07-22 23:50:08.780,-0.06,-0.74,-0.66,-69.95,-49.44,-46.81
2026-07-22 23:50:08.780,0.07,-0.71,-0.54,-69.95,-49.44,-46.81
2026-07-22 23:50:08.780,0.06,-0.68,-0.6,-47.61,12.27,21.97
2026-07-22 23:50:08.780,0.06,-0.68,-0.6,-47.61,12.27,21.97
2026-07-22 23:50:08.780,0.02,-0.73,-0.76,-28.69,39.86,51.09
2026-07-22 23:50:08.780,0.02,-0.73,-0.76,-28.69,39.86,51.09
2026-07-22 23:50:08.780,0.06,-0.83,-0.85,-38.57,45.47,58.47
2026-07-22 23:50:08.780,0.09,-0.99,-0.68,-53.83,43.76,53.34
2026-07-22 23:50:08.780,0.09,-0.99,-0.68,-53.83,43.76,53.34
2026-07-22 23:50:08.780,-0.01,-1.18,-0.54,-35.89,43.76,42.85
2026-07-22 23:50:08.780,-0.01,-1.18,-0.54,-35.89,43.76,42.85
2026-07-22 23:50:08.780,0.03,-1.22,-0.63,34.73,19.17,24.11
2026-07-22 23:50:08.780,0.03,-1.22,-0.63,34.73,19.17,24.11
2026-07-22 23:50:08.780,0.28,-0.94,-0.77,138.49,-34.3,4.03
2026-07-22 23:50:08.780,0.32,-0.64,-0.95,192.26,-53.16,24.17
2026-07-22 23:50:08.883,0.32,-0.64,-0.95,192.26,-53.16,24.17
2026-07-22 23:50:08.883,0.26,-0.78,-0.86,144.71,-1.65,107.54
2026-07-22 23:50:08.883,0.26,-0.78,-0.86,144.71,-1.65,107.54
2026-07-22 23:50:08.883,0.26,-0.93,-0.64,78.98,64.58,186.89
2026-07-22 23:50:08.883,0.26,-0.93,-0.64,78.98,64.58,186.89
2026-07-22 23:50:08.883,0.21,-0.77,-0.49,72.27,67.87,171.63
2026-07-22 23:50:08.883,0.15,-0.57,-0.35,83.13,29.97,98.57
2026-07-22 23:50:08.896,0.15,-0.57,-0.35,83.13,29.97,98.57
2026-07-22 23:50:08.896,0.15,-0.5,-0.26,52.37,-8.18,29.3
2026-07-22 23:50:08.896,0.15,-0.5,-0.26,52.37,-8.18,29.3
2026-07-22 23:50:08.896,0.1,-0.64,-0.24,-2.08,-36.44,-34.73
2026-07-22 23:50:08.896,0.1,-0.64,-0.24,-2.08,-36.44,-34.73
2026-07-22 23:50:08.896,0.1,-0.64,-0.24,-2.08,-36.44,-34.73
2026-07-22 23:50:09.073,0.1,-0.64,-0.24,-2.08,-36.44,-34.73
2026-07-22 23:50:09.120,-0.19,-1.24,-0.26,-64.7,-38.21,-98.39
2026-07-22 23:50:09.120,-0.19,-1.24,-0.26,-86.67,35.64,-28.38
2026-07-22 23:50:09.120,-0.06,-1.31,-0.43,-86.67,35.64,-28.38
2026-07-22 23:50:09.120,0.33,-1.2,-0.67,-102.36,110.17,36.62
2026-07-22 23:50:09.120,0.33,-1.2,-0.67,-102.36,110.17,36.62
2026-07-22 23:50:09.120,0.48,-0.8,-0.63,-79.71,101.44,15.08
2026-07-22 23:50:09.120,0.48,-0.8,-0.63,-79.71,101.44,15.08
2026-07-22 23:50:09.120,0.37,-0.41,-0.54,-24.29,47.0,-50.11
2026-07-22 23:50:09.120,0.14,-0.43,-0.68,19.23,-1.16,-104.31
2026-07-22 23:50:09.120,0.14,-0.43,-0.68,19.23,-1.16,-104.31
2026-07-22 23:50:09.184,-0.03,-0.62,-0.85,21.79,-55.24,-141.72
2026-07-22 23:50:09.184,-0.03,-0.62,-0.85,21.79,-55.24,-141.72
2026-07-22 23:50:09.311,-0.02,-0.68,-0.78,-18.62,-94.06,-135.86
2026-07-22 23:50:09.311,-0.02,-0.68,-0.78,-18.62,-94.06,-135.86
2026-07-22 23:50:09.311,0.05,-0.71,-0.61,-69.46,-65.86,-63.9
2026-07-22 23:50:09.311,0.05,-0.73,-0.53,-92.1,7.93,28.08
2026-07-22 23:50:09.311,0.05,-0.73,-0.53,-92.1,7.93,28.08
2026-07-22 23:50:09.438,0.03,-0.74,-0.58,-83.5,59.51,76.97
2026-07-22 23:50:09.438,0.03,-0.74,-0.58,-83.5,59.51,76.97
2026-07-22 23:50:09.438,0.07,-0.81,-0.7,-71.59,71.17,80.93
2026-07-22 23:50:09.438,0.07,-0.81,-0.7,-63.54,52.25,59.39
2026-07-22 23:50:09.438,0.11,-0.95,-0.73,-63.54,52.25,59.39
2026-07-22 23:50:09.496,0.02,-1.07,-0.69,-38.64,19.78,26.06
2026-07-22 23:50:09.496,0.02,-1.07,-0.69,-38.64,19.78,26.06
2026-07-22 23:50:09.496,-0.09,-1.19,-0.67,8.36,4.82,7.08
2026-07-22 23:50:09.729,-0.09,-1.19,-0.67,8.36,4.82,7.08
2026-07-22 23:50:09.729,0.03,-1.16,-0.67,79.65,-5.37,4.15
2026-07-22 23:50:09.729,0.03,-1.16,-0.67,159.24,-27.47,12.88
2026-07-22 23:50:09.729,0.24,-0.82,-0.77,159.24,-27.47,12.88
2026-07-22 23:50:09.729,0.28,-0.65,-0.93,176.09,-30.21,58.04
2026-07-22 23:50:09.729,0.28,-0.65,-0.93,176.09,-30.21,58.04
2026-07-22 23:50:09.729,0.25,-0.83,-0.82,122.99,6.65,134.4
2026-07-22 23:50:09.729,0.25,-0.83,-0.82,122.99,6.65,134.4
2026-07-22 23:50:09.729,0.27,-0.85,-0.59,87.34,35.03,161.93
2026-07-22 23:50:09.738,0.26,-0.68,-0.45,87.77,21.48,112.43
2026-07-22 23:50:09.908,0.26,-0.68,-0.45,87.77,21.48,112.43
2026-07-22 23:50:09.908,0.23,-0.58,-0.32,67.08,-7.51,48.77
2026-07-22 23:50:09.908,0.23,-0.58,-0.32,67.08,-7.51,48.77
2026-07-22 23:50:09.913,0.22,-0.57,-0.25,17.76,-33.14,-5.07
2026-07-22 23:50:09.913,0.14,-0.73,-0.23,-21.67,-49.26,-61.16
2026-07-22 23:50:10.096,0.14,-0.73,-0.23,-21.67,-49.26,-61.16
2026-07-22 23:50:10.096,-0.03,-1.01,-0.22,-41.08,-48.4,-96.25
2026-07-22 23:50:10.103,-0.03,-1.01,-0.22,-41.08,-48.4,-96.25
2026-07-22 23:50:10.103,-0.17,-1.39,-0.44,-74.4,8.48,-50.23
2026-07-22 23:50:10.626,-0.17,-1.39,-0.44,-74.4,8.48,-50.23
2026-07-22 23:50:10.754,0.02,-1.39,-0.77,-118.96,98.57,51.88
2026-07-22 23:50:10.754,0.37,-0.77,-0.68,-102.23,83.37,64.51
2026-07-22 23:50:10.756,0.37,-0.77,-0.68,-102.23,83.37,64.51
2026-07-22 23:50:10.756,0.5,-0.36,-0.48,-37.23,-0.67,-19.35
2026-07-22 23:50:10.756,0.5,-0.36,-0.48,-37.23,-0.67,-19.35
2026-07-22 23:50:10.756,0.41,-0.51,-0.63,-4.33,-10.38,-71.04
2026-07-22 23:50:10.756,0.41,-0.51,-0.63,-4.33,-10.38,-71.04
2026-07-22 23:50:10.756,0.22,-0.69,-0.81,0.06,4.76,-81.24
2026-07-22 23:50:10.756,0.12,-0.67,-0.78,1.1,-33.57,-100.34
2026-07-22 23:50:10.756,0.12,-0.67,-0.78,1.1,-33.57,-100.34
2026-07-22 23:50:10.756,0.13,-0.65,-0.66,-14.59,-61.04,-96.25
2026-07-22 23:50:10.756,0.13,-0.65,-0.66,-14.59,-61.04,-96.25
2026-07-22 23:50:10.756,0.12,-0.65,-0.59,-47.91,-4.94,-22.22
2026-07-22 23:50:10.756,0.12,-0.65,-0.59,-47.91,-4.94,-22.22
2026-07-22 23:50:10.756,0.05,-0.66,-0.63,-84.11,91.13,81.24
2026-07-22 23:50:10.756,-0.13,-0.71,-0.62,-110.9,138.49,130.25
2026-07-22 23:50:10.756,-0.13,-0.71,-0.62,-110.9,138.49,130.25
2026-07-22 23:50:10.756,-0.29,-0.87,-0.54,-100.59,111.76,106.26
2026-07-22 23:50:10.756,-0.29,-0.87,-0.54,-100.59,111.76,106.26
2026-07-22 23:50:10.756,-0.11,-1.13,-0.66,-42.42,49.93,73.24
2026-07-22 23:50:10.756,-0.11,-1.13,-0.66,-42.42,49.93,73.24
2026-07-22 23:50:10.756,-0.11,-1.13,-0.66,-42.42,49.93,73.24
2026-07-22 23:50:10.756,-0.11,-1.13,-0.66,-42.42,49.93,73.24
2026-07-22 23:50:10.773,0.75,-1.17,-0.72,113.22,-1.83,99.55
2026-07-22 23:50:10.773,0.75,-1.17,-0.72,113.22,-1.83,99.55
2026-07-22 23:50:10.997,0.75,-1.17,-0.72,113.22,-1.83,99.55
2026-07-22 23:50:10.997,0.75,-1.17,-0.72,113.22,-1.83,99.55
2026-07-22 23:50:10.997,0.65,-0.82,-0.54,119.81,135.13,175.54
2026-07-22 23:50:10.997,0.65,-0.82,-0.54,119.81,135.13,175.54
2026-07-22 23:50:10.997,0.3,-0.67,-0.59,84.96,141.3,144.78
2026-07-22 23:50:10.997,0.07,-0.57,-0.57,59.88,121.4,96.86
2026-07-22 23:50:10.997,0.07,-0.57,-0.57,59.88,121.4,96.86
2026-07-22 23:50:10.997,-0.03,-0.59,-0.51,27.65,121.46,76.48
2026-07-22 23:50:10.997,-0.03,-0.59,-0.51,27.65,121.46,76.48
2026-07-22 23:50:10.997,-0.03,-0.65,-0.41,-7.14,128.78,66.71
2026-07-22 23:50:10.997,-0.01,-0.77,-0.35,-24.17,95.09,20.45
2026-07-22 23:50:10.997,-0.01,-0.77,-0.35,-24.17,95.09,20.45
2026-07-22 23:50:10.997,-0.09,-0.96,-0.37,-31.01,44.31,-31.68
2026-07-22 23:50:11.113,-0.09,-0.96,-0.37,-31.01,44.31,-31.68
2026-07-22 23:50:11.113,-0.11,-1.05,-0.42,-50.23,53.77,-14.16
2026-07-22 23:50:11.113,-0.11,-1.05,-0.42,-50.23,53.77,-14.16
2026-07-22 23:50:11.113,0.11,-1.01,-0.57,-77.88,113.77,50.6
2026-07-22 23:50:11.113,0.35,-0.84,-0.71,-83.01,126.22,68.48
2026-07-22 23:50:11.113,0.35,-0.84,-0.71,-83.01,126.22,68.48
2026-07-22 23:50:11.113,0.4,-0.64,-0.7,-55.91,76.72,28.08
2026-07-22 23:50:11.113,0.4,-0.64,-0.7,-55.91,76.72,28.08
2026-07-22 23:50:11.113,0.3,-0.59,-0.76,-19.53,39.98,-5.55
2026-07-22 23:50:11.113,0.3,-0.59,-0.76,-19.53,39.98,-5.55
2026-07-22 23:50:11.113,0.13,-0.57,-0.88,0.98,29.66,-10.31
2026-07-22 23:50:11.113,0.03,-0.56,-0.87,-13.55,21.12,-2.01
2026-07-22 23:50:11.113,0.03,-0.56,-0.87,-13.55,21.12,-2.01
2026-07-22 23:50:11.475,0.06,-0.61,-0.78,-46.81,42.3,32.23
2026-07-22 23:50:11.475,0.06,-0.61,-0.78,-46.81,42.3,32.23
2026-07-22 23:50:11.475,0.06,-0.67,-0.75,-65.0,112.79,98.94
2026-07-22 23:50:11.475,0.06,-0.67,-0.75,-67.75,178.71,155.88
2026-07-22 23:50:11.475,-0.05,-0.71,-0.8,-67.75,178.71,155.88
2026-07-22 23:50:11.475,-0.18,-0.75,-0.84,-73.61,189.94,164.12
2026-07-22 23:50:11.475,-0.18,-0.75,-0.84,-73.61,189.94,164.12
2026-07-22 23:50:11.475,-0.24,-0.8,-0.84,-88.44,151.98,126.65
2026-07-22 23:50:11.475,-0.24,-0.8,-0.84,-88.44,151.98,126.65
2026-07-22 23:50:11.475,-0.27,-0.9,-0.69,-103.21,98.27,75.74
2026-07-22 23:50:11.475,-0.26,-0.99,-0.46,-92.29,69.58,54.38
2026-07-22 23:50:11.475,-0.26,-0.99,-0.46,-92.29,69.58,54.38
2026-07-22 23:50:11.475,-0.05,-1.07,-0.46,-34.73,44.62,49.5
2026-07-22 23:50:11.483,-0.05,-1.07,-0.46,-34.73,44.62,49.5
2026-07-22 23:50:11.483,0.31,-1.05,-0.63,47.42,3.3,41.63
2026-07-22 23:50:11.900,0.31,-1.05,-0.63,47.42,3.3,41.63
2026-07-22 23:50:11.900,0.47,-0.8,-0.78,117.49,-4.27,65.0
2026-07-22 23:50:11.900,0.45,-0.68,-0.89,135.74,43.7,137.15
2026-07-22 23:50:11.900,0.45,-0.68,-0.89,135.74,43.7,137.15
2026-07-22 23:50:11.900,0.46,-0.92,-0.88,101.62,109.44,221.5
2026-07-22 23:50:11.901,0.46,-0.92,-0.88,101.62,109.44,221.5
2026-07-22 23:50:11.901,0.44,-1.03,-0.68,66.1,135.31,246.52
2026-07-22 23:50:11.901,0.44,-1.03,-0.68,62.62,97.47,183.35
2026-07-22 23:50:11.901,0.39,-0.78,-0.53,62.62,97.47,183.35
2026-07-22 23:50:11.904,0.24,-0.51,-0.45,64.51,67.57,107.85
2026-07-22 23:50:11.904,0.24,-0.51,-0.45,64.51,67.57,107.85
2026-07-22 23:50:11.904,0.04,-0.46,-0.34,32.23,89.11,72.57
2026-07-22 23:50:11.905,0.04,-0.46,-0.34,32.23,89.11,72.57
2026-07-22 23:50:11.906,-0.0,-0.52,-0.31,2.81,90.64,24.66
2026-07-22 23:50:11.907,-0.15,-0.71,-0.48,-0.24,41.56,-51.03
2026-07-22 23:50:11.907,-0.15,-0.71,-0.48,-0.24,41.56,-51.03
2026-07-22 23:50:11.907,-0.47,-1.03,-0.62,-40.47,13.37,-59.33
2026-07-22 23:50:11.907,-0.47,-1.03,-0.62,-40.47,13.37,-59.33
2026-07-22 23:50:12.069,-0.19,-1.37,-0.59,-129.03,85.94,48.65
2026-07-22 23:50:12.069,0.41,-1.19,-0.57,-139.4,132.93,108.52
2026-07-22 23:50:12.146,0.41,-1.19,-0.57,-139.4,132.93,108.52
2026-07-22 23:50:12.146,0.6,-0.61,-0.64,-35.58,55.85,31.31
2026-07-22 23:50:12.146,0.6,-0.61,-0.64,-35.58,55.85,31.31
2026-07-22 23:50:12.146,0.48,-0.45,-0.82,49.19,-0.49,-44.07
2026-07-22 23:50:12.146,0.48,-0.45,-0.82,49.19,-0.49,-44.07
2026-07-22 23:50:12.146,0.22,-0.57,-0.92,51.76,13.43,-53.65
2026-07-22 23:50:12.146,0.04,-0.61,-0.82,12.21,12.15,-53.34
2026-07-22 23:50:12.148,0.04,-0.61,-0.82,12.21,12.15,-53.34
2026-07-22 23:50:12.372,0.04,-0.62,-0.68,-30.03,-2.75,-50.6
2026-07-22 23:50:12.372,0.04,-0.62,-0.68,-30.03,-2.75,-50.6
2026-07-22 23:50:12.373,0.01,-0.68,-0.65,-54.14,30.4,-7.26
2026-07-22 23:50:12.373,0.01,-0.68,-0.65,-54.14,30.4,-7.26
2026-07-22 23:50:12.373,-0.09,-0.74,-0.75,-61.34,94.48,60.79
2026-07-22 23:50:12.373,-0.18,-0.8,-0.86,-73.18,135.99,109.74
2026-07-22 23:50:12.373,-0.18,-0.8,-0.86,-73.18,135.99,109.74
2026-07-22 23:50:12.373,-0.25,-1.0,-0.7,-99.3,130.13,112.12
2026-07-22 23:50:12.373,-0.25,-1.0,-0.7,-99.3,130.13,112.12
2026-07-22 23:50:12.377,-0.3,-1.2,-0.44,-101.26,97.05,85.82
2026-07-22 23:50:12.553,-0.3,-1.2,-0.44,-29.11,41.75,50.72
2026-07-22 23:50:12.553,-0.16,-1.23,-0.47,-29.11,41.75,50.72
2026-07-22 23:50:12.553,0.2,-1.05,-0.67,88.81,-33.81,11.72
2026-07-22 23:50:12.553,0.2,-1.05,-0.67,88.81,-33.81,11.72
2026-07-22 23:50:12.555,0.47,-0.78,-0.83,166.38,-57.5,22.52
2026-07-22 23:50:12.555,0.47,-0.78,-0.83,166.38,-57.5,22.52
2026-07-22 23:50:12.555,0.54,-0.74,-0.84,156.92,-1.77,99.24
2026-07-22 23:50:12.555,0.39,-0.85,-0.72,101.5,62.38,165.77
2026-07-22 23:50:12.613,0.39,-0.85,-0.72,101.5,62.38,165.77
2026-07-22 23:50:12.613,0.16,-0.8,-0.64,70.98,68.85,157.41
2026-07-22 23:50:12.627,0.16,-0.8,-0.64,70.98,68.85,157.41
2026-07-22 23:50:12.731,-0.01,-0.65,-0.57,65.19,39.06,106.32
2026-07-22 23:50:12.770,-0.01,-0.65,-0.57,65.19,39.06,106.32
2026-07-22 23:50:12.770,-0.1,-0.6,-0.41,40.34,22.16,63.54
2026-07-22 23:50:12.770,-0.05,-0.63,-0.24,4.39,-8.06,2.08
2026-07-22 23:50:12.770,-0.05,-0.63,-0.24,4.39,-8.06,2.08
2026-07-22 23:50:13.018,0.03,-0.81,-0.19,-6.35,-71.84,-89.48
2026-07-22 23:50:13.018,0.03,-0.81,-0.19,-6.35,-71.84,-89.48
2026-07-22 23:50:13.018,-0.12,-1.13,-0.18,-11.72,-102.42,-128.7
2026-07-22 23:50:13.018,-0.12,-1.13,-0.18,-11.72,-102.42,-128.7
2026-07-22 23:50:13.018,-0.1,-1.26,-0.41,-24.29,-50.17,-64.03
2026-07-22 23:50:13.018,0.29,-1.04,-0.78,-31.43,18.62,13.06
2026-07-22 23:50:13.034,0.29,-1.04,-0.78,-31.43,18.62,13.06
2026-07-22 23:50:13.034,0.46,-0.64,-0.72,-34.61,31.25,7.08
2026-07-22 23:50:13.034,0.46,-0.64,-0.72,-34.61,31.25,7.08
2026-07-22 23:50:13.034,0.37,-0.48,-0.54,-31.8,34.55,-41.44
2026-07-22 23:50:13.034,0.37,-0.48,-0.54,-31.8,34.55,-41.44
2026-07-22 23:50:13.034,0.17,-0.64,-0.65,-17.27,46.45,-84.11
2026-07-22 23:50:13.034,-0.05,-0.75,-0.83,3.48,-1.4,-133.3
2026-07-22 23:50:13.082,-0.05,-0.75,-0.83,3.48,-1.4,-133.3
2026-07-22 23:50:13.082,-0.08,-0.74,-0.81,-4.52,-102.78,-180.18
2026-07-22 23:50:13.336,-0.08,-0.74,-0.81,-4.52,-102.78,-180.18
2026-07-22 23:50:13.336,0.07,-0.76,-0.65,-42.36,-157.65,-181.46
2026-07-22 23:50:13.390,0.19,-0.76,-0.57,-56.82,-119.38,-121.58
2026-07-22 23:50:13.390,0.19,-0.76,-0.57,-56.82,-119.38,-121.58
2026-07-22 23:50:13.392,0.22,-0.7,-0.6,-36.74,-38.76,-39.86
2026-07-22 23:50:13.394,0.22,-0.7,-0.6,-36.74,-38.76,-39.86
2026-07-22 23:50:13.394,0.16,-0.77,-0.63,-24.29,23.44,17.4
2026-07-22 23:50:13.394,0.16,-0.77,-0.63,-24.29,23.44,17.4
2026-07-22 23:50:13.394,-0.0,-0.93,-0.61,-24.29,41.02,30.03
2026-07-22 23:50:13.394,-0.16,-1.09,-0.67,3.42,12.82,1.4
2026-07-22 23:50:13.394,-0.16,-1.09,-0.67,3.42,12.82,1.4
2026-07-22 23:50:13.396,-0.05,-1.1,-0.76,74.58,-38.57,-35.16
2026-07-22 23:50:13.396,-0.05,-1.1,-0.76,74.58,-38.57,-35.16
2026-07-22 23:50:13.451,0.2,-0.81,-0.87,152.77,-74.77,-31.13
2026-07-22 23:50:13.451,0.2,-0.81,-0.87,152.77,-74.77,-31.13
2026-07-22 23:50:13.451,0.17,-0.54,-1.03,172.0,-70.31,23.56
2026-07-22 23:50:13.811,-0.01,-0.63,-1.06,117.8,-48.58,77.88
2026-07-22 23:50:13.811,-0.01,-0.63,-1.06,117.8,-48.58,77.88
2026-07-22 23:50:13.811,-0.14,-0.85,-0.91,41.56,-45.84,94.24
2026-07-22 23:50:13.811,-0.14,-0.85,-0.91,41.56,-45.84,94.24
2026-07-22 23:50:13.811,-0.02,-0.79,-0.83,13.79,-92.77,54.81
2026-07-22 23:50:13.811,-0.02,-0.79,-0.83,47.55,-165.95,-18.07
2026-07-22 23:50:13.811,0.34,-0.53,-0.75,47.55,-165.95,-18.07
2026-07-22 23:50:13.811,0.61,-0.47,-0.47,62.81,-205.57,-68.54
2026-07-22 23:50:13.987,0.61,-0.47,-0.47,62.81,-205.57,-68.54
2026-07-22 23:50:13.995,0.64,-0.66,-0.16,39.0,-213.38,-101.56
2026-07-22 23:50:13.995,0.64,-0.66,-0.16,39.0,-213.38,-101.56
2026-07-22 23:50:14.051,0.39,-0.88,-0.08,10.19,-181.15,-114.2
2026-07-22 23:50:14.051,0.05,-0.99,-0.31,-28.08,-80.63,-72.51
2026-07-22 23:50:14.051,0.05,-0.99,-0.31,-28.08,-80.63,-72.51
2026-07-22 23:50:14.051,-0.07,-1.14,-0.72,-82.95,44.43,5.62
2026-07-22 23:50:14.051,-0.07,-1.14,-0.72,-82.95,44.43,5.62
2026-07-22 23:50:14.051,0.1,-1.06,-0.77,-106.81,108.4,49.38
2026-07-22 23:50:14.051,0.28,-0.68,-0.57,-66.28,69.27,0.24
2026-07-22 23:50:14.051,0.28,-0.68,-0.57,-66.28,69.27,0.24
2026-07-22 23:50:14.051,0.23,-0.57,-0.67,-9.83,-32.53,-109.99
2026-07-22 23:50:14.051,0.23,-0.57,-0.67,-9.83,-32.53,-109.99
2026-07-22 23:50:14.051,0.09,-0.64,-0.85,22.28,-122.99,-187.87
2026-07-22 23:50:14.051,0.09,-0.64,-0.85,22.28,-122.99,-187.87
2026-07-22 23:50:14.051,0.09,-0.65,-0.84,15.99,-171.63,-196.84
2026-07-22 23:50:14.051,0.2,-0.7,-0.7,-17.88,-167.72,-155.09
2026-07-22 23:50:14.179,0.2,-0.7,-0.7,-17.88,-167.72,-155.09
2026-07-22 23:50:14.179,0.24,-0.7,-0.58,-40.83,-108.03,-82.46
2026-07-22 23:50:14.180,0.24,-0.7,-0.58,-40.83,-108.03,-82.46
2026-07-22 23:50:14.180,0.2,-0.62,-0.54,-41.44,-25.15,-6.59
2026-07-22 23:50:14.180,0.16,-0.61,-0.61,-44.49,40.77,47.91
2026-07-22 23:50:14.225,0.16,-0.61,-0.61,-44.49,40.77,47.91
2026-07-22 23:50:14.225,0.13,-0.76,-0.65,-61.83,60.12,64.58
2026-07-22 23:50:14.225,0.13,-0.76,-0.65,-61.83,60.12,64.58
2026-07-22 23:50:14.653,0.01,-1.05,-0.57,-75.99,38.27,50.6
2026-07-22 23:50:14.663,0.01,-1.05,-0.57,-75.99,38.27,50.6
2026-07-22 23:50:14.666,-0.05,-1.3,-0.58,-39.61,14.04,41.14
2026-07-22 23:50:14.666,0.21,-1.17,-0.71,76.84,-34.12,13.49
2026-07-22 23:50:14.666,0.21,-1.17,-0.71,76.84,-34.12,13.49
2026-07-22 23:50:14.666,0.53,-0.71,-0.85,198.67,-85.39,-21.0
2026-07-22 23:50:14.666,0.53,-0.71,-0.85,198.67,-85.39,-21.0
2026-07-22 23:50:14.666,0.54,-0.47,-0.98,210.27,-34.24,30.64
2026-07-22 23:50:14.666,0.54,-0.47,-0.98,104.86,118.9,177.12
2026-07-22 23:50:14.666,0.3,-0.75,-0.79,104.86,118.9,177.12
2026-07-22 23:50:14.669,0.0,-1.1,-0.49,-10.25,233.4,293.03
2026-07-22 23:50:14.669,0.0,-1.1,-0.49,-10.25,233.4,293.03
2026-07-22 23:50:14.669,-0.14,-1.09,-0.36,-34.85,188.23,253.11
2026-07-22 23:50:14.671,-0.14,-1.09,-0.36,-34.85,188.23,253.11
2026-07-22 23:50:14.671,-0.08,-0.82,-0.29,15.14,38.39,101.99
2026-07-22 23:50:14.671,0.05,-0.55,-0.24,48.58,-79.28,-32.17
2026-07-22 23:50:14.671,0.05,-0.55,-0.24,48.58,-79.28,-32.17
2026-07-22 23:50:14.673,-0.04,-0.57,-0.19,31.8,-113.83,-98.27
2026-07-22 23:50:14.711,-0.04,-0.57,-0.19,31.8,-113.83,-98.27
2026-07-22 23:50:14.715,-0.33,-0.89,-0.18,-0.73,-106.69,-114.56
2026-07-22 23:50:14.828,-0.33,-0.89,-0.18,-19.29,-91.49,-89.6
2026-07-22 23:50:14.828,-0.39,-1.25,-0.2,-19.29,-91.49,-89.6
2026-07-22 23:50:14.828,0.1,-1.47,-0.29,-37.72,-43.4,-27.47
2026-07-22 23:50:14.828,0.1,-1.47,-0.29,-37.72,-43.4,-27.47
2026-07-22 23:50:14.828,0.6,-1.17,-0.43,-38.88,-3.3,-7.26
2026-07-22 23:50:14.828,0.6,-1.17,-0.43,-38.88,-3.3,-7.26
2026-07-22 23:50:14.955,0.55,-0.56,-0.56,-8.79,-33.69,-83.37
2026-07-22 23:50:14.955,0.55,-0.56,-0.56,0.37,-80.14,-175.35
2026-07-22 23:50:14.955,0.23,-0.34,-0.74,0.37,-80.14,-175.35
2026-07-22 23:50:14.955,-0.1,-0.51,-0.98,-36.68,-84.78,-194.46
2026-07-22 23:50:14.955,-0.1,-0.51,-0.98,-36.68,-84.78,-194.46
2026-07-22 23:50:15.130,-0.22,-0.66,-1.02,-102.42,-85.51,-151.0
2026-07-22 23:50:15.130,-0.22,-0.66,-1.02,-102.42,-85.51,-151.0
2026-07-22 23:50:15.130,0.01,-0.77,-0.78,-147.95,-82.21,-80.87
2026-07-22 23:50:15.130,0.31,-0.84,-0.55,-128.36,-32.78,2.2
2026-07-22 23:50:15.130,0.31,-0.84,-0.55,-128.36,-32.78,2.2
2026-07-22 23:50:15.130,0.4,-0.75,-0.51,-66.89,35.4,65.25
2026-07-22 23:50:15.130,0.4,-0.75,-0.51,-66.89,35.4,65.25
2026-07-22 23:50:15.196,0.28,-0.64,-0.62,-29.6,86.98,89.66
2026-07-22 23:50:15.196,0.28,-0.64,-0.62,-37.11,101.99,81.05
2026-07-22 23:50:15.196,0.07,-0.7,-0.69,-37.11,101.99,81.05
2026-07-22 23:50:15.248,-0.1,-0.93,-0.61,-55.24,69.95,47.12
2026-07-22 23:50:15.248,-0.1,-0.93,-0.61,-55.24,69.95,47.12
2026-07-22 23:50:15.320,-0.22,-1.11,-0.61,-36.44,21.67,9.89
2026-07-22 23:50:15.320,-0.22,-1.11,-0.61,-36.44,21.67,9.89
2026-07-22 23:50:15.320,-0.17,-1.15,-0.68,23.5,-12.63,-10.31
2026-07-22 23:50:15.484,-0.17,-1.15,-0.68,23.5,-12.63,-10.31
2026-07-22 23:50:15.497,-0.17,-1.15,-0.68,23.5,-12.63,-10.31
2026-07-22 23:50:15.497,-0.17,-1.15,-0.68,23.5,-12.63,-10.31
2026-07-22 23:50:15.497,0.36,-0.77,-0.84,164.18,-41.44,33.87
2026-07-22 23:50:15.497,0.44,-0.8,-0.94,152.22,-31.68,87.52
2026-07-22 23:50:15.497,0.44,-0.8,-0.94,152.22,-31.68,87.52
2026-07-22 23:50:15.497,0.41,-0.95,-0.76,99.73,22.46,152.53
2026-07-22 23:50:15.497,0.41,-0.95,-0.76,99.73,22.46,152.53
2026-07-22 23:50:15.785,0.26,-0.84,-0.53,77.94,58.23,160.16
2026-07-22 23:50:15.795,0.26,-0.84,-0.53,77.94,58.23,160.16
2026-07-22 23:50:15.797,0.15,-0.66,-0.41,75.32,37.78,105.53
2026-07-22 23:50:15.797,0.15,-0.57,-0.33,48.4,-1.77,44.31
2026-07-22 23:50:15.797,0.15,-0.57,-0.33,48.4,-1.77,44.31
2026-07-22 23:50:15.797,0.09,-0.65,-0.27,4.88,-34.97,-17.09
2026-07-22 23:50:15.797,0.09,-0.65,-0.27,4.88,-34.97,-17.09
2026-07-22 23:50:15.797,-0.05,-0.89,-0.26,-18.43,-71.53,-83.13
2026-07-22 23:50:15.797,-0.05,-0.89,-0.26,-18.43,-71.53,-83.13
2026-07-22 23:50:15.797,-0.14,-1.08,-0.18,-20.63,-98.14,-113.59
2026-07-22 23:50:15.797,-0.03,-1.28,-0.25,-41.56,-51.76,-65.86
2026-07-22 23:50:15.797,-0.03,-1.28,-0.25,-41.56,-51.76,-65.86
2026-07-22 23:50:15.797,0.2,-1.28,-0.58,-81.6,36.87,7.75
2026-07-22 23:50:15.797,0.2,-1.28,-0.58,-81.6,36.87,7.75
2026-07-22 23:50:15.971,0.29,-0.82,-0.63,-85.02,52.06,7.45
2026-07-22 23:50:15.971,0.28,-0.42,-0.49,-49.62,11.9,-56.7
2026-07-22 23:50:15.971,0.28,-0.42,-0.49,-49.62,11.9,-56.7
2026-07-22 23:50:15.971,0.22,-0.51,-0.58,-10.07,-10.25,-119.87
2026-07-22 23:50:15.971,0.22,-0.51,-0.58,-10.07,-10.25,-119.87
2026-07-22 23:50:15.971,0.03,-0.74,-0.82,26.12,-72.88,-192.81
2026-07-22 23:50:15.971,0.03,-0.74,-0.82,26.12,-72.88,-192.81
2026-07-22 23:50:16.033,0.03,-0.74,-0.82,26.12,-72.88,-192.81
2026-07-22 23:50:16.033,0.03,-0.74,-0.82,26.12,-72.88,-192.81
2026-07-22 23:50:16.033,0.13,-0.75,-0.67,55.42,-216.06,-215.33
2026-07-22 23:50:16.160,0.39,-0.84,-0.39,39.73,-135.56,-111.82
2026-07-22 23:50:16.160,0.39,-0.84,-0.39,39.73,-135.56,-111.82
2026-07-22 23:50:16.160,0.4,-0.79,-0.29,24.29,-47.85,-33.87
2026-07-22 23:50:16.160,0.4,-0.79,-0.29,24.29,-47.85,-33.87
2026-07-22 23:50:16.160,0.2,-0.66,-0.51,-2.81,5.86,8.0
2026-07-22 23:50:16.207,0.2,-0.66,-0.51,-31.13,26.67,40.83
2026-07-22 23:50:16.207,0.13,-0.67,-0.67,-31.13,26.67,40.83
2026-07-22 23:50:16.271,0.27,-1.04,-0.38,-13.98,36.5,71.47
2026-07-22 23:50:16.271,0.27,-1.04,-0.38,-13.98,36.5,71.47
2026-07-22 23:50:16.271,0.26,-1.32,-0.1,39.49,50.9,69.58
2026-07-22 23:50:16.509,0.26,-1.32,-0.1,39.49,50.9,69.58
2026-07-22 23:50:16.509,0.2,-1.1,-0.47,27.04,87.52,66.22
2026-07-22 23:50:16.509,0.29,-0.82,-0.87,-22.64,121.7,117.98
2026-07-22 23:50:16.509,0.29,-0.82,-0.87,-22.64,121.7,117.98
2026-07-22 23:50:16.509,0.52,-0.75,-0.81,-18.68,98.39,150.33
2026-07-22 23:50:16.509,0.52,-0.75,-0.81,-18.68,98.39,150.33
2026-07-22 23:50:16.509,0.68,-0.75,-0.71,-17.64,42.97,119.02
2026-07-22 23:50:16.509,0.68,-0.75,-0.71,-17.64,42.97,119.02
2026-07-22 23:50:16.509,0.52,-0.8,-0.62,-72.2,0.67,84.53
2026-07-22 23:50:16.509,0.11,-0.84,-0.59,-88.26,-34.24,48.16
2026-07-22 23:50:16.619,0.11,-0.84,-0.59,-88.26,-34.24,48.16
2026-07-22 23:50:16.619,-0.17,-0.72,-0.55,35.28,-58.84,13.43
2026-07-22 23:50:16.619,-0.17,-0.72,-0.55,35.28,-58.84,13.43
2026-07-22 23:50:16.619,-0.07,-0.52,-0.4,112.55,-32.84,18.07
2026-07-22 23:50:16.619,-0.07,-0.52,-0.4,112.55,-32.84,18.07
2026-07-22 23:50:16.751,0.21,-0.41,-0.38,-1.28,31.74,14.71
2026-07-22 23:50:16.752,0.29,-0.55,-0.69,-193.66,75.26,-51.88
2026-07-22 23:50:16.752,0.29,-0.55,-0.69,-193.66,75.26,-51.88
2026-07-22 23:50:16.752,0.04,-0.83,-1.17,-316.71,116.33,-79.28
2026-07-22 23:50:16.753,0.04,-0.83,-1.17,-316.71,116.33,-79.28
2026-07-22 23:50:16.817,-0.16,-1.08,-1.28,-222.11,194.89,11.96
2026-07-22 23:50:16.858,0.13,-1.03,-0.81,65.55,226.01,97.17
2026-07-22 23:50:16.858,0.13,-1.03,-0.81,65.55,226.01,97.17
2026-07-22 23:50:17.001,0.58,-0.62,-0.42,260.44,143.49,39.49
2026-07-22 23:50:17.001,0.58,-0.62,-0.42,260.44,143.49,39.49
2026-07-22 23:50:17.001,0.77,-0.25,-0.42,221.44,40.04,-110.23
2026-07-22 23:50:17.001,0.77,-0.25,-0.42,221.44,40.04,-110.23
2026-07-22 23:50:17.001,0.84,-0.06,-0.5,135.93,-35.46,-228.45
2026-07-22 23:50:17.001,0.81,-0.2,-0.57,155.27,-133.97,-244.2
2026-07-22 23:50:17.001,0.81,-0.2,-0.57,155.27,-133.97,-244.2
2026-07-22 23:50:17.001,0.68,-0.6,-0.55,183.47,-220.7,-148.25
2026-07-22 23:50:17.409,0.68,-0.6,-0.55,183.47,-220.7,-148.25
2026-07-22 23:50:17.409,0.54,-0.86,-0.34,217.71,-208.92,-41.02
2026-07-22 23:50:17.415,0.52,-0.88,-0.23,218.75,-139.04,-20.08
2026-07-22 23:50:17.415,0.52,-0.88,-0.23,218.75,-139.04,-20.08
2026-07-22 23:50:17.415,0.58,-0.82,-0.33,40.65,-94.54,-51.15
2026-07-22 23:50:17.415,0.58,-0.82,-0.33,40.65,-94.54,-51.15
2026-07-22 23:50:17.415,0.67,-0.69,-0.36,-160.1,-38.76,-60.55
2026-07-22 23:50:17.415,0.81,-0.56,-0.36,-211.98,54.57,-20.39
2026-07-22 23:50:17.415,0.81,-0.56,-0.36,-211.98,54.57,-20.39
2026-07-22 23:50:17.415,0.86,-0.48,-0.5,-162.54,117.19,44.98
2026-07-22 23:50:17.415,0.86,-0.48,-0.5,-162.54,117.19,44.98
2026-07-22 23:50:17.415,0.91,-0.57,-0.64,-75.74,130.8,113.53
2026-07-22 23:50:17.415,0.91,-0.57,-0.64,-75.74,130.8,113.53
2026-07-22 23:50:17.415,1.01,-0.78,-0.74,31.37,151.79,194.34
2026-07-22 23:50:17.415,1.06,-0.95,-0.67,113.95,188.84,230.71
2026-07-22 23:50:17.415,1.06,-0.95,-0.67,113.95,188.84,230.71
2026-07-22 23:50:17.415,1.0,-0.87,-0.37,114.07,174.44,176.09
2026-07-22 23:50:17.415,1.0,-0.87,-0.37,114.07,174.44,176.09
2026-07-22 23:50:17.595,0.85,-0.56,-0.08,47.91,124.82,102.29
2026-07-22 23:50:17.595,0.66,-0.33,0.03,-23.68,113.83,65.0
2026-07-22 23:50:17.604,0.66,-0.33,0.03,-23.68,113.83,65.0
2026-07-22 23:50:17.604,0.44,-0.38,-0.01,-61.4,126.46,38.82
2026-07-22 23:50:17.604,0.44,-0.38,-0.01,-61.4,126.46,38.82
2026-07-22 23:50:17.604,0.29,-0.52,-0.04,-69.7,131.59,17.82
2026-07-22 23:50:17.604,0.29,-0.52,-0.04,-69.7,131.59,17.82
2026-07-22 23:50:17.710,0.22,-0.56,0.02,-70.25,148.13,3.05
2026-07-22 23:50:17.710,0.18,-0.55,0.06,-103.64,201.17,-39.73
2026-07-22 23:50:17.715,0.18,-0.55,0.06,-103.64,201.17,-39.73
2026-07-22 23:50:17.715,0.23,-0.57,-0.14,-184.33,259.34,-86.43
2026-07-22 23:50:17.763,0.23,-0.57,-0.14,-184.33,259.34,-86.43
2026-07-22 23:50:17.763,0.27,-0.67,-0.48,-248.72,259.34,-81.6
2026-07-22 23:50:17.763,0.29,-0.86,-0.75,-317.93,197.08,-17.64
2026-07-22 23:50:17.763,0.29,-0.86,-0.75,-317.93,197.08,-17.64
2026-07-22 23:50:18.066,0.41,-0.96,-0.87,-386.72,134.09,56.95
2026-07-22 23:50:18.066,0.41,-0.96,-0.87,-386.72,134.09,56.95
2026-07-22 23:50:18.066,0.56,-0.89,-0.85,-310.61,93.57,63.42
2026-07-22 23:50:18.066,0.62,-0.8,-0.78,-102.17,40.95,4.39
2026-07-22 23:50:18.066,0.62,-0.8,-0.78,-102.17,40.95,4.39
2026-07-22 23:50:18.066,0.65,-0.78,-0.69,78.98,-8.79,-53.96
2026-07-22 23:50:18.066,0.65,-0.78,-0.69,78.98,-8.79,-53.96
2026-07-22 23:50:18.066,0.74,-0.79,-0.54,154.54,-28.63,-66.71
2026-07-22 23:50:18.066,0.73,-0.76,-0.42,177.86,-57.86,-43.4
2026-07-22 23:50:18.066,0.73,-0.76,-0.42,177.86,-57.86,-43.4
2026-07-22 23:50:18.066,0.63,-0.72,-0.4,189.58,-76.66,-0.55
2026-07-22 23:50:18.081,0.63,-0.72,-0.4,189.58,-76.66,-0.55
2026-07-22 23:50:18.191,0.56,-0.72,-0.41,143.13,-65.55,65.37
2026-07-22 23:50:18.216,0.56,-0.72,-0.41,143.13,-65.55,65.37
2026-07-22 23:50:18.216,0.55,-0.79,-0.43,42.05,-61.52,141.54
2026-07-22 23:50:18.216,0.57,-0.85,-0.42,-33.2,-61.34,168.15
2026-07-22 23:50:18.216,0.57,-0.85,-0.42,-33.2,-61.34,168.15
2026-07-22 23:50:18.305,0.57,-0.81,-0.37,-50.42,-52.12,125.49
2026-07-22 23:50:18.315,0.57,-0.81,-0.37,-50.42,-52.12,125.49
2026-07-22 23:50:18.315,0.57,-0.8,-0.32,-34.55,-43.58,77.7
2026-07-22 23:50:18.315,0.57,-0.8,-0.32,-1.65,-43.76,43.46
2026-07-22 23:50:18.315,0.58,-0.85,-0.3,-1.65,-43.76,43.46
2026-07-22 23:50:18.368,0.63,-0.95,-0.33,27.4,-38.02,12.76
2026-07-22 23:50:18.368,0.63,-0.95,-0.33,27.4,-38.02,12.76
2026-07-22 23:50:18.368,0.69,-1.04,-0.4,40.1,-22.22,-20.45
2026-07-22 23:50:18.640,0.69,-1.04,-0.4,40.1,-22.22,-20.45
2026-07-22 23:50:18.640,0.64,-1.0,-0.44,42.85,-4.94,-88.32
2026-07-22 23:50:18.640,0.63,-0.86,-0.44,47.79,-12.76,-167.54
2026-07-22 23:50:18.640,0.63,-0.86,-0.44,47.79,-12.76,-167.54
2026-07-22 23:50:18.640,0.78,-0.68,-0.37,57.25,-66.59,-210.88
2026-07-22 23:50:18.640,0.78,-0.68,-0.37,57.25,-66.59,-210.88
2026-07-22 23:50:18.640,0.88,-0.53,-0.28,48.46,-122.92,-221.19
2026-07-22 23:50:18.640,0.88,-0.53,-0.28,48.46,-122.92,-221.19
2026-07-22 23:50:18.640,0.78,-0.61,-0.26,9.34,-138.31,-189.27
2026-07-22 23:50:18.640,0.64,-0.75,-0.33,-50.35,-101.99,-115.54
2026-07-22 23:50:18.669,0.64,-0.75,-0.33,-50.35,-101.99,-115.54
2026-07-22 23:50:18.669,0.57,-0.68,-0.48,-54.99,-81.73,-64.82
2026-07-22 23:50:18.669,0.57,-0.68,-0.48,-54.99,-81.73,-64.82
2026-07-22 23:50:18.737,0.49,-0.59,-0.53,0.92,-119.38,-60.0
2026-07-22 23:50:18.737,0.4,-0.64,-0.33,9.52,-119.75,-65.86
2026-07-22 23:50:18.848,0.4,-0.64,-0.33,9.52,-119.75,-65.86
2026-07-22 23:50:18.848,0.42,-0.65,-0.22,-6.23,-43.64,-71.53
2026-07-22 23:50:18.848,0.42,-0.65,-0.22,-6.23,-43.64,-71.53
2026-07-22 23:50:18.848,0.5,-0.51,-0.45,17.4,25.82,-53.53
2026-07-22 23:50:18.848,0.5,-0.51,-0.45,17.4,25.82,-53.53
2026-07-22 23:50:19.034,0.56,-0.42,-0.74,21.48,32.9,16.11
2026-07-22 23:50:19.034,0.63,-0.42,-0.86,-39.55,-4.39,107.36
2026-07-22 23:50:19.034,0.63,-0.42,-0.86,-39.55,-4.39,107.36
2026-07-22 23:50:19.034,0.72,-0.37,-0.8,-98.02,-38.94,158.87
2026-07-22 23:50:19.034,0.72,-0.37,-0.8,-98.02,-38.94,158.87
2026-07-22 23:50:19.034,0.82,-0.34,-0.67,-96.86,-18.68,151.12
2026-07-22 23:50:19.034,0.82,-0.34,-0.67,-61.89,16.6,90.76
2026-07-22 23:50:19.034,0.71,-0.44,-0.63,-61.89,16.6,90.76
2026-07-22 23:50:19.146,0.42,-0.49,-0.77,-43.88,9.03,41.32
2026-07-22 23:50:19.146,0.42,-0.49,-0.77,-43.88,9.03,41.32
2026-07-22 23:50:19.146,0.23,-0.34,-1.04,-75.93,-23.86,93.69
2026-07-22 23:50:19.146,0.23,-0.34,-1.04,-75.93,-23.86,93.69
2026-07-22 23:50:19.154,0.22,-0.22,-1.1,-180.3,-53.28,196.72
2026-07-22 23:50:19.392,0.22,-0.22,-1.1,-318.48,-72.63,225.28
2026-07-22 23:50:19.392,0.16,-0.26,-0.9,-318.48,-72.63,225.28
2026-07-22 23:50:19.392,0.15,-0.2,-0.72,-365.54,-47.91,204.04
2026-07-22 23:50:19.392,0.15,-0.2,-0.72,-365.54,-47.91,204.04
2026-07-22 23:50:19.392,0.34,0.06,-0.61,-329.96,60.36,232.48
2026-07-22 23:50:19.447,0.34,0.06,-0.61,-329.96,60.36,232.48
2026-07-22 23:50:19.447,0.58,0.3,-0.64,-252.69,149.54,271.97
2026-07-22 23:50:19.447,0.67,0.3,-0.71,-118.9,103.09,233.89
2026-07-22 23:50:19.447,0.67,0.3,-0.71,-118.9,103.09,233.89
2026-07-22 23:50:19.447,0.64,0.22,-0.71,-13.43,7.14,141.11
2026-07-22 23:50:19.447,0.64,0.22,-0.71,-13.43,7.14,141.11
2026-07-22 23:50:19.447,0.58,0.16,-0.66,49.38,-19.1,51.33
2026-07-22 23:50:19.447,0.47,0.13,-0.59,109.8,43.76,2.08
2026-07-22 23:50:19.510,0.47,0.13,-0.59,109.8,43.76,2.08
2026-07-22 23:50:19.510,0.41,0.01,-0.54,133.3,167.48,31.43
2026-07-22 23:50:19.510,0.41,0.01,-0.54,133.3,167.48,31.43
2026-07-22 23:50:19.573,0.48,-0.19,-0.42,178.04,210.14,145.69
2026-07-22 23:50:19.573,0.48,-0.19,-0.42,178.04,210.14,145.69
2026-07-22 23:50:19.642,0.43,-0.44,-0.33,312.01,48.28,279.85
2026-07-22 23:50:19.642,0.8,-0.86,-0.82,339.36,-167.48,216.55
2026-07-22 23:50:19.642,0.8,-0.86,-0.82,339.36,-167.48,216.55
2026-07-22 23:50:19.693,1.21,-0.94,-1.35,104.31,-232.12,-12.15
2026-07-22 23:50:19.693,1.21,-0.94,-1.35,104.31,-232.12,-12.15
2026-07-22 23:50:19.748,0.84,-0.82,-1.15,-166.02,-139.4,-103.6
2026-07-22 23:50:19.748,0.48,-0.76,-0.74,-164.49,-0.12,-65.0
2026-07-22 23:50:19.748,0.48,-0.76,-0.74,-164.49,-0.12,-65.0
2026-07-22 23:50:20.161,0.49,-0.55,-0.53,9.4,83.8,-45.17
2026-07-22 23:50:20.161,0.49,-0.55,-0.53,9.4,83.8,-45.17
2026-07-22 23:50:20.161,0.5,-0.32,-0.41,87.4,94.18,-79.47
2026-07-22 23:50:20.161,0.5,-0.32,-0.41,87.4,94.18,-79.47
2026-07-22 23:50:20.161,0.39,-0.14,-0.36,8.85,-14.34,-141.05
2026-07-22 23:50:20.161,0.18,-0.1,-0.77,-151.86,-289.92,-141.4
2026-07-22 23:50:20.161,0.18,-0.1,-0.77,-151.86,-289.92,-141.4
2026-07-22 23:50:20.161,0.08,-0.1,-1.34,-225.22,-486.39,-57.07
2026-07-22 23:50:20.161,0.08,-0.1,-1.34,-122.25,-349.24,21.48
2026-07-22 23:50:20.161,0.12,-0.06,-1.38,-122.25,-349.24,21.48
2026-07-22 23:50:20.176,0.16,-0.09,-1.17,10.8,-87.22,44.92
2026-07-22 23:50:20.176,0.16,-0.09,-1.17,10.8,-87.22,44.92
2026-07-22 23:50:20.176,0.2,-0.14,-1.08,46.2,43.15,30.76
2026-07-22 23:50:20.178,0.2,-0.14,-1.08,46.2,43.15,30.76
2026-07-22 23:50:20.180,0.23,-0.19,-1.03,33.69,64.03,2.87
2026-07-22 23:50:20.180,0.2,-0.2,-1.01,30.4,55.66,-11.9
2026-07-22 23:50:20.180,0.2,-0.2,-1.01,30.4,55.66,-11.9
2026-07-22 23:50:20.180,0.1,-0.19,-0.98,41.87,54.99,-5.13
2026-07-22 23:50:20.409,0.1,-0.19,-0.98,41.87,54.99,-5.13
2026-07-22 23:50:20.409,-0.01,-0.13,-0.81,37.78,52.67,7.14
2026-07-22 23:50:20.409,-0.01,-0.13,-0.81,37.78,52.67,7.14
2026-07-22 23:50:20.409,-0.02,-0.11,-0.86,-12.02,12.39,23.44
2026-07-22 23:50:20.409,0.11,-0.16,-1.09,-45.1,-36.01,36.13
2026-07-22 23:50:20.414,0.11,-0.16,-1.09,-45.1,-36.01,36.13
2026-07-22 23:50:20.414,0.15,-0.18,-1.01,-17.64,-32.23,18.37
2026-07-22 23:50:20.414,0.15,-0.18,-1.01,-17.64,-32.23,18.37
2026-07-22 23:50:20.414,0.14,-0.2,-0.85,12.15,-6.59,-3.85
2026-07-22 23:50:20.414,0.14,-0.2,-0.85,12.15,-6.59,-3.85
2026-07-22 23:50:20.658,0.26,-0.21,-0.98,16.6,-0.85,8.73
2026-07-22 23:50:20.658,0.26,-0.21,-0.98,20.14,0.61,30.21
2026-07-22 23:50:20.658,0.35,-0.21,-1.15,20.14,0.61,30.21
2026-07-22 23:50:20.658,0.17,-0.17,-1.1,25.94,9.34,30.15
2026-07-22 23:50:20.658,0.17,-0.17,-1.1,25.94,9.34,30.15
2026-07-22 23:50:20.658,-0.02,-0.11,-0.96,19.47,15.87,11.66
2026-07-22 23:50:20.658,-0.02,-0.11,-0.96,19.47,15.87,11.66
2026-07-22 23:50:20.658,0.06,-0.12,-0.9,5.43,15.5,-4.94
2026-07-22 23:50:20.658,0.06,-0.12,-0.9,5.43,15.5,-4.94
2026-07-22 23:50:20.658,0.15,-0.17,-0.92,-5.13,13.43,-9.28
2026-07-22 23:50:20.779,0.11,-0.17,-0.95,-9.22,13.67,-4.82
2026-07-22 23:50:20.779,0.11,-0.17,-0.95,-9.22,13.67,-4.82
2026-07-22 23:50:20.779,0.09,-0.18,-0.99,-9.77,12.15,3.6
2026-07-22 23:50:20.779,0.09,-0.18,-0.99,-9.77,12.15,3.6
2026-07-22 23:50:20.779,0.16,-0.2,-1.03,-10.19,6.29,3.66
2026-07-22 23:50:20.779,0.16,-0.2,-1.03,-10.19,6.29,3.66
2026-07-22 23:50:21.082,0.24,-0.22,-1.02,-9.77,-0.06,-4.82
2026-07-22 23:50:21.082,0.22,-0.22,-0.99,-4.76,-2.87,-2.75
2026-07-22 23:50:21.082,0.22,-0.22,-0.99,-4.76,-2.87,-2.75
2026-07-22 23:50:21.084,0.14,-0.21,-0.97,2.32,-4.52,19.1
2026-07-22 23:50:21.084,0.14,-0.21,-0.97,2.32,-4.52,19.1
2026-07-22 23:50:21.084,0.1,-0.19,-0.98,6.1,-8.18,44.31
2026-07-22 23:50:21.084,0.1,-0.19,-0.98,6.1,-8.18,44.31
2026-07-22 23:50:21.084,0.12,-0.17,-0.98,8.42,-12.39,55.18
2026-07-22 23:50:21.084,0.12,-0.17,-0.98,8.42,-12.39,55.18
2026-07-22 23:50:21.084,0.12,-0.16,-0.97,12.94,-13.61,49.62
2026-07-22 23:50:21.085,0.11,-0.15,-0.96,15.2,-10.38,34.36
2026-07-22 23:50:21.085,0.11,-0.15,-0.96,15.2,-10.38,34.36
2026-07-22 23:50:21.085,0.09,-0.15,-0.97,9.03,-4.76,17.88
2026-07-22 23:50:21.142,0.09,-0.15,-0.97,9.03,-4.76,17.88
2026-07-22 23:50:21.143,0.08,-0.17,-0.98,-2.62,0.49,5.55
2026-07-22 23:50:21.144,0.08,-0.17,-0.98,-2.62,0.49,5.55
2026-07-22 23:50:21.430,0.08,-0.19,-0.99,-10.93,4.03,-1.59
2026-07-22 23:50:21.430,0.08,-0.19,-0.99,-12.33,5.25,-4.39
2026-07-22 23:50:21.430,0.09,-0.21,-0.98,-12.33,5.25,-4.39
2026-07-22 23:50:21.430,0.1,-0.22,-0.98,-9.03,4.64,-5.68
2026-07-22 23:50:21.430,0.1,-0.22,-0.98,-9.03,4.64,-5.68
2026-07-22 23:50:21.430,0.11,-0.22,-0.99,-4.27,2.56,-6.04
2026-07-22 23:50:21.430,0.11,-0.22,-0.99,-4.27,2.56,-6.04
2026-07-22 23:50:21.430,0.12,-0.21,-0.98,-0.06,-0.43,-1.53
2026-07-22 23:50:21.430,0.12,-0.21,-0.98,-0.06,-0.43,-1.53
2026-07-22 23:50:21.430,0.12,-0.2,-0.98,2.69,-3.3,8.42
2026-07-22 23:50:21.430,0.12,-0.2,-0.98,4.21,-5.19,17.82
2026-07-22 23:50:21.430,0.1,-0.19,-0.98,4.21,-5.19,17.82
2026-07-22 23:50:21.430,0.08,-0.18,-0.98,4.76,-5.98,20.2
2026-07-22 23:50:21.551,0.08,-0.18,-0.98,4.76,-5.98,20.2
2026-07-22 23:50:21.551,0.07,-0.18,-0.98,4.09,-5.43,14.77
2026-07-22 23:50:21.553,0.07,-0.18,-0.98,4.09,-5.43,14.77
2026-07-22 23:50:21.553,0.08,-0.18,-0.98,2.44,-3.85,5.37
2026-07-22 23:50:21.553,0.08,-0.18,-0.98,2.44,-3.85,5.37
2026-07-22 23:50:21.669,0.09,-0.18,-0.98,0.67,-1.83,-3.11
2026-07-22 23:50:21.669,0.1,-0.19,-0.98,-0.98,-0.31,-7.39
2026-07-22 23:50:21.669,0.1,-0.19,-0.98,-0.98,-0.31,-7.39
2026-07-22 23:50:21.669,0.1,-0.19,-0.98,-2.01,0.0,-7.75
2026-07-22 23:50:21.669,0.1,-0.19,-0.98,-2.01,0.0,-7.75
2026-07-22 23:50:21.669,0.1,-0.2,-0.99,-1.89,-0.92,-6.1
2026-07-22 23:50:21.737,0.1,-0.2,-0.99,-1.89,-0.92,-6.1
2026-07-22 23:50:21.737,0.1,-0.21,-0.98,-0.61,-2.2,-3.66
2026-07-22 23:50:22.686,0.1,-0.21,-0.98,-0.61,-2.2,-3.66
2026-07-22 23:50:22.686,0.12,-0.2,-0.98,1.22,-2.44,-0.73
2026-07-22 23:50:22.686,0.11,-0.19,-0.98,1.59,-1.28,1.1
2026-07-22 23:50:22.686,0.11,-0.19,-0.98,1.59,-1.28,1.1
2026-07-22 23:50:22.686,0.09,-0.17,-0.98,-0.31,0.12,0.73
2026-07-22 23:50:22.686,0.09,-0.17,-0.98,-0.31,0.12,0.73
2026-07-22 23:50:22.686,0.07,-0.17,-0.98,-2.38,0.55,-0.73
2026-07-22 23:50:22.696,0.07,-0.17,-0.98,-2.62,-0.06,-1.59
2026-07-22 23:50:22.696,0.07,-0.19,-0.98,-2.62,-0.06,-1.59
2026-07-22 23:50:22.696,0.09,-0.2,-0.99,-1.04,-0.92,-1.22
2026-07-22 23:50:22.696,0.09,-0.2,-0.99,-1.04,-0.92,-1.22
2026-07-22 23:50:22.696,0.1,-0.2,-0.98,1.16,-1.34,0.18
2026-07-22 23:50:22.696,0.1,-0.2,-0.98,1.16,-1.34,0.18
2026-07-22 23:50:22.696,0.11,-0.18,-0.99,2.32,-1.4,1.59
2026-07-22 23:50:22.696,0.11,-0.18,-0.99,2.32,-1.4,1.59
2026-07-22 23:50:22.700,0.1,-0.17,-0.98,1.89,-1.16,2.2
2026-07-22 23:50:22.700,0.1,-0.17,-0.98,0.67,-0.49,1.95
2026-07-22 23:50:22.700,0.09,-0.16,-0.98,0.67,-0.49,1.95
2026-07-22 23:50:22.700,0.08,-0.17,-0.98,-0.18,0.12,0.67
2026-07-22 23:50:22.700,0.08,-0.17,-0.98,-0.18,0.12,0.67
2026-07-22 23:50:22.702,0.08,-0.19,-1.0,-0.18,0.12,-0.73
2026-07-22 23:50:22.703,0.08,-0.19,-1.0,-0.18,0.12,-0.73
2026-07-22 23:50:22.703,0.08,-0.22,-1.03,1.1,-0.12,0.49
2026-07-22 23:50:22.703,0.08,-0.22,-1.03,1.1,-0.12,0.49
2026-07-22 23:50:22.703,0.06,-0.27,-1.08,5.19,-1.77,3.23
2026-07-22 23:50:22.703,0.06,-0.27,-1.08,5.19,-1.77,3.23
2026-07-22 23:50:22.703,0.04,-0.31,-1.09,12.02,-7.75,-0.31
2026-07-22 23:50:22.703,0.05,-0.3,-1.03,20.08,-17.27,-8.61
2026-07-22 23:50:22.703,0.05,-0.3,-1.03,20.08,-17.27,-8.61
2026-07-22 23:50:22.703,0.06,-0.25,-0.93,26.49,-26.98,-3.72
2026-07-22 23:50:22.703,0.06,-0.25,-0.93,26.49,-26.98,-3.72
2026-07-22 23:50:22.703,0.07,-0.17,-0.88,20.57,-32.53,18.43
2026-07-22 23:50:22.703,0.07,-0.17,-0.88,20.57,-32.53,18.43
2026-07-22 23:50:22.703,0.1,-0.09,-0.88,-4.39,-26.73,38.7
2026-07-22 23:50:22.703,0.1,-0.09,-0.88,-4.39,-26.73,38.7
2026-07-22 23:50:22.703,0.11,-0.05,-0.92,-34.3,-10.74,37.84
2026-07-22 23:50:22.713,0.11,-0.04,-0.98,-58.04,5.55,15.93
2026-07-22 23:50:22.713,0.11,-0.04,-0.98,-58.04,5.55,15.93
2026-07-22 23:50:22.713,0.17,-0.04,-0.95,-80.93,19.35,-4.09
2026-07-22 23:50:22.713,0.17,-0.04,-0.95,-80.93,19.35,-4.09
2026-07-22 23:50:22.713,0.22,-0.11,-0.95,-100.28,33.63,-0.73
2026-07-22 23:50:22.713,0.22,-0.11,-0.95,-100.28,33.63,-0.73
2026-07-22 23:50:22.713,0.18,-0.15,-0.96,-95.89,46.94,22.52
2026-07-22 23:50:22.713,0.18,-0.15,-0.96,-64.03,53.28,31.07
2026-07-22 23:50:22.941,0.07,-0.01,-0.88,-64.03,53.28,31.07
2026-07-22 23:50:22.941,-0.19,0.02,-0.86,-38.7,45.41,28.2
2026-07-22 23:50:22.941,-0.19,0.02,-0.86,-38.7,45.41,28.2
2026-07-22 23:50:22.941,-0.45,-0.09,-0.93,-46.63,4.58,79.1
2026-07-22 23:50:22.941,-0.45,-0.09,-0.93,-46.63,4.58,79.1
2026-07-22 23:50:22.945,-0.4,-0.05,-0.86,-58.84,-61.58,140.01
2026-07-22 23:50:22.945,-0.06,0.24,-0.81,-44.62,-102.11,108.28
2026-07-22 23:50:22.945,-0.06,0.24,-0.81,-44.62,-102.11,108.28
2026-07-22 23:50:22.945,0.34,0.48,-1.23,-27.53,-90.15,34.06
2026-07-22 23:50:22.988,0.34,0.48,-1.23,-27.53,-90.15,34.06
2026-07-22 23:50:22.988,0.49,0.47,-1.96,-18.55,-32.78,-0.92
2026-07-22 23:50:23.001,0.49,0.47,-1.96,-18.55,-32.78,-0.92
2026-07-22 23:50:23.164,0.4,0.4,-2.33,-8.06,46.2,-3.05
2026-07-22 23:50:23.179,0.3,0.15,-2.14,16.78,110.84,-27.59
2026-07-22 23:50:23.179,0.3,0.15,-2.14,16.78,110.84,-27.59
2026-07-22 23:50:23.179,0.18,-0.11,-1.47,74.28,127.81,-77.82
2026-07-22 23:50:23.179,0.18,-0.11,-1.47,74.28,127.81,-77.82
2026-07-22 23:50:23.179,-0.05,-0.01,-0.57,122.07,107.06,-105.41
2026-07-22 23:50:23.179,-0.05,-0.01,-0.57,122.07,107.06,-105.41
2026-07-22 23:50:23.179,-0.3,0.17,0.08,90.09,90.82,-124.02
2026-07-22 23:50:23.227,-0.4,0.22,0.29,7.87,60.42,-121.03
2026-07-22 23:50:23.227,-0.4,0.22,0.29,7.87,60.42,-121.03
2026-07-22 23:50:23.291,-0.31,0.15,0.26,-17.58,-35.22,-28.56
2026-07-22 23:50:23.291,-0.31,0.15,0.26,-17.58,-35.22,-28.56
2026-07-22 23:50:23.291,-0.23,-0.02,0.16,14.04,-144.84,97.35
2026-07-22 23:50:23.411,-0.17,-0.08,-0.08,4.94,-163.09,123.17
2026-07-22 23:50:23.411,-0.17,-0.08,-0.08,4.94,-163.09,123.17
2026-07-22 23:50:23.411,0.03,0.04,-0.52,-15.69,-76.6,30.88
2026-07-22 23:50:23.411,0.03,0.04,-0.52,-15.69,-76.6,30.88
2026-07-22 23:50:23.411,0.6,0.14,-1.82,-0.67,63.6,-70.5
2026-07-22 23:50:23.769,0.6,0.14,-1.82,-0.67,63.6,-70.5
2026-07-22 23:50:23.769,0.97,-0.02,-2.89,-0.98,116.58,-70.37
2026-07-22 23:50:23.769,0.56,-0.13,-2.45,-7.75,14.1,-25.63
2026-07-22 23:50:23.769,0.56,-0.13,-2.45,-7.75,14.1,-25.63
2026-07-22 23:50:23.769,0.17,-0.05,-1.86,8.0,-88.87,-43.58
2026-07-22 23:50:23.769,0.17,-0.05,-1.86,8.0,-88.87,-43.58
2026-07-22 23:50:23.769,0.1,0.03,-1.15,37.72,-56.4,-97.78
2026-07-22 23:50:23.769,0.1,0.03,-1.15,37.72,-56.4,-97.78
2026-07-22 23:50:23.769,0.06,0.13,-0.13,50.05,45.29,-144.35
2026-07-22 23:50:23.769,-0.01,0.22,0.41,42.3,94.06,-123.78
2026-07-22 23:50:23.769,-0.01,0.22,0.41,42.3,94.06,-123.78
2026-07-22 23:50:23.769,-0.07,0.21,0.49,12.63,48.03,18.68
2026-07-22 23:50:23.769,-0.07,0.21,0.49,12.63,48.03,18.68
2026-07-22 23:50:23.769,-0.18,-0.01,0.4,-54.08,-28.5,181.88
2026-07-22 23:50:23.769,-0.18,-0.01,0.4,-54.08,-28.5,181.88
2026-07-22 23:50:23.769,-0.25,-0.21,0.02,-121.03,-53.83,221.5
2026-07-22 23:50:24.025,-0.11,-0.04,-0.53,-84.35,-50.6,145.26
2026-07-22 23:50:24.025,-0.11,-0.04,-0.53,-84.35,-50.6,145.26
2026-07-22 23:50:24.025,0.08,0.05,-1.5,67.2,-16.6,65.0
2026-07-22 23:50:24.025,0.08,0.05,-1.5,67.2,-16.6,65.0
2026-07-22 23:50:24.025,0.21,-0.2,-2.36,135.07,3.3,30.52
2026-07-22 23:50:24.025,0.45,-0.23,-2.31,50.48,-28.38,26.31
2026-07-22 23:50:24.027,0.45,-0.23,-2.31,50.48,-28.38,26.31
2026-07-22 23:50:24.027,0.59,-0.12,-2.06,-10.56,-40.89,-8.18
2026-07-22 23:50:24.027,0.59,-0.12,-2.06,-10.56,-40.89,-8.18
2026-07-22 23:50:24.027,0.49,-0.21,-1.84,17.15,-6.71,-90.09
2026-07-22 23:50:24.445,0.49,-0.21,-1.84,17.15,-6.71,-90.09
2026-07-22 23:50:24.445,0.23,-0.21,-1.26,53.1,51.09,-141.36
2026-07-22 23:50:24.445,-0.11,0.04,-0.43,29.66,92.41,-134.28
2026-07-22 23:50:24.445,-0.11,0.04,-0.43,29.66,92.41,-134.28
2026-07-22 23:50:24.445,-0.38,0.18,0.22,-80.32,124.39,-74.65
2026-07-22 23:50:24.445,-0.38,0.18,0.22,-80.32,124.39,-74.65
2026-07-22 23:50:24.445,-0.54,0.03,0.42,-174.32,188.11,61.4
2026-07-22 23:50:24.445,-0.54,0.03,0.42,-189.39,181.76,154.36
2026-07-22 23:50:24.445,-0.42,-0.21,0.19,-189.39,181.76,154.36
2026-07-22 23:50:24.445,0.02,-0.19,-0.28,-112.43,63.17,75.68
2026-07-22 23:50:24.445,0.02,-0.19,-0.28,-112.43,63.17,75.68
2026-07-22 23:50:24.445,0.46,-0.0,-1.1,44.43,-56.09,-45.59
2026-07-22 23:50:24.445,0.46,-0.0,-1.1,44.43,-56.09,-45.59
2026-07-22 23:50:24.445,0.55,0.09,-1.95,133.48,-194.46,-57.07
2026-07-22 23:50:24.452,0.49,0.19,-2.02,98.57,-267.27,1.04
2026-07-22 23:50:24.452,0.49,0.19,-2.02,98.57,-267.27,1.04
2026-07-22 23:50:24.452,0.57,0.3,-1.62,34.06,-167.79,11.66
2026-07-22 23:50:24.452,0.57,0.3,-1.62,34.06,-167.79,11.66
2026-07-22 23:50:24.484,0.63,0.2,-1.97,14.1,-25.76,-72.27
2026-07-22 23:50:24.484,0.63,0.2,-1.97,14.1,-25.76,-72.27
2026-07-22 23:50:24.547,0.57,-0.11,-2.21,12.33,60.12,-126.89
2026-07-22 23:50:24.547,0.41,-0.2,-1.52,0.98,85.88,-67.99
2026-07-22 23:50:24.547,0.41,-0.2,-1.52,0.98,85.88,-67.99
2026-07-22 23:50:24.611,0.18,-0.03,-0.55,-20.94,89.66,3.72
2026-07-22 23:50:24.611,0.18,-0.03,-0.55,-20.94,89.66,3.72
2026-07-22 23:50:24.696,-0.12,0.08,0.18,-59.2,150.15,42.66
2026-07-22 23:50:24.696,-0.12,0.08,0.18,-59.2,150.15,42.66
2026-07-22 23:50:24.696,-0.49,0.05,0.28,-99.43,282.47,77.82
2026-07-22 23:50:24.721,-0.59,-0.19,-0.04,-147.64,311.46,85.45
2026-07-22 23:50:24.737,-0.59,-0.19,-0.04,-147.64,311.46,85.45
2026-07-22 23:50:24.784,-0.14,-0.23,-0.25,-129.64,142.64,34.3
2026-07-22 23:50:24.784,-0.14,-0.23,-0.25,-129.64,142.64,34.3
2026-07-22 23:50:24.784,0.49,0.06,-0.4,-0.06,-44.07,-11.84
2026-07-22 23:50:24.911,0.49,0.06,-0.4,77.7,-170.23,8.42
2026-07-22 23:50:24.911,0.87,0.23,-0.98,77.7,-170.23,8.42
2026-07-22 23:50:24.911,0.73,0.28,-1.82,30.03,-296.45,47.36
2026-07-22 23:50:24.911,0.73,0.28,-1.82,30.03,-296.45,47.36
2026-07-22 23:50:24.911,0.45,0.28,-1.96,-11.11,-305.97,29.97
2026-07-22 23:50:25.025,0.45,0.28,-1.96,-11.11,-305.97,29.97
2026-07-22 23:50:25.038,0.56,0.31,-1.67,13.61,-168.7,-39.06
2026-07-22 23:50:25.038,0.9,0.23,-1.91,37.9,-53.59,-84.17
2026-07-22 23:50:25.038,0.9,0.23,-1.91,37.9,-53.59,-84.17
2026-07-22 23:50:25.047,0.88,-0.06,-2.01,21.12,27.71,-67.2
2026-07-22 23:50:25.086,0.88,-0.06,-2.01,21.12,27.71,-67.2
2026-07-22 23:50:25.086,0.34,-0.18,-1.59,-0.92,91.67,-31.01
2026-07-22 23:50:25.086,0.34,-0.18,-1.59,-0.92,91.67,-31.01
2026-07-22 23:50:25.150,-0.08,-0.08,-0.95,-4.82,100.28,-1.65
2026-07-22 23:50:25.150,-0.2,0.05,-0.16,-10.8,101.62,16.85
2026-07-22 23:50:25.150,-0.2,0.05,-0.16,-10.8,101.62,16.85
2026-07-22 23:50:25.325,-0.3,0.15,0.34,-26.06,176.09,25.33
2026-07-22 23:50:25.325,-0.3,0.15,0.34,-26.06,176.09,25.33
2026-07-22 23:50:25.325,-0.4,-0.04,0.28,-70.43,286.01,58.29
2026-07-22 23:50:25.325,-0.4,-0.04,0.28,-70.43,286.01,58.29
2026-07-22 23:50:25.325,-0.13,-0.13,-0.14,-107.73,247.74,60.91
2026-07-22 23:50:25.325,0.45,0.11,-0.56,-34.24,73.12,-8.97
2026-07-22 23:50:25.325,0.45,0.11,-0.56,-34.24,73.12,-8.97
2026-07-22 23:50:25.510,0.95,0.29,-1.0,93.02,-108.09,-55.42
2026-07-22 23:50:25.510,0.95,0.29,-1.0,93.02,-108.09,-55.42
2026-07-22 23:50:25.510,1.1,0.22,-1.43,105.29,-281.92,-16.05
2026-07-22 23:50:25.510,1.1,0.22,-1.43,25.76,-307.19,40.28
2026-07-22 23:50:25.510,0.79,0.03,-1.39,25.76,-307.19,40.28
2026-07-22 23:50:25.510,0.4,0.07,-1.53,2.69,-167.66,-12.7
2026-07-22 23:50:25.519,0.4,0.07,-1.53,2.69,-167.66,-12.7
2026-07-22 23:50:25.519,0.26,0.23,-1.7,27.47,-56.21,-89.42
2026-07-22 23:50:25.647,0.26,0.23,-1.7,27.47,-56.21,-89.42
2026-07-22 23:50:25.647,0.34,0.24,-1.22,28.26,-0.85,-67.08
2026-07-22 23:50:25.647,0.41,0.19,-0.77,12.7,37.05,-36.93
2026-07-22 23:50:25.647,0.41,0.19,-0.77,12.7,37.05,-36.93
2026-07-22 23:50:25.647,0.38,0.11,-0.62,-14.47,49.26,-26.06
2026-07-22 23:50:25.746,0.38,0.11,-0.62,-14.47,49.26,-26.06
2026-07-22 23:50:25.746,0.32,-0.0,-0.66,-38.7,41.75,0.49
2026-07-22 23:50:25.752,0.32,-0.0,-0.66,-38.7,41.75,0.49
2026-07-22 23:50:25.752,0.24,-0.04,-0.78,-30.52,31.13,0.92
2026-07-22 23:50:25.752,0.19,-0.03,-0.95,-6.96,24.9,-40.04
2026-07-22 23:50:25.864,0.19,-0.03,-0.95,-6.96,24.9,-40.04
2026-07-22 23:50:25.864,0.2,0.03,-1.07,5.8,15.5,-64.15
2026-07-22 23:50:25.864,0.2,0.03,-1.07,5.8,15.5,-64.15
2026-07-22 23:50:25.864,0.29,0.1,-1.04,8.42,-0.49,-39.92
2026-07-22 23:50:25.864,0.29,0.1,-1.04,8.42,-0.49,-39.92
2026-07-22 23:50:25.864,0.37,0.12,-0.93,3.72,-14.53,8.42
2026-07-22 23:50:25.926,0.37,0.15,-0.88,3.17,-16.78,29.11
2026-07-22 23:50:25.926,0.37,0.15,-0.88,3.17,-16.78,29.11
2026-07-22 23:50:26.046,0.32,0.19,-0.93,10.07,-8.67,3.85
2026-07-22 23:50:26.046,0.32,0.19,-0.93,10.07,-8.67,3.85
2026-07-22 23:50:26.053,0.32,0.17,-0.96,9.83,-3.05,-18.01
2026-07-22 23:50:26.053,0.32,0.17,-0.96,1.71,-7.2,-8.85
2026-07-22 23:50:26.053,0.34,0.08,-0.94,1.71,-7.2,-8.85
2026-07-22 23:50:26.111,0.39,0.05,-0.93,-4.27,-16.42,5.13
2026-07-22 23:50:26.111,0.39,0.05,-0.93,-4.27,-16.42,5.13
2026-07-22 23:50:26.111,0.5,0.07,-0.95,-5.86,-21.91,8.12
2026-07-22 23:50:26.165,0.5,0.07,-0.95,-5.86,-21.91,8.12
2026-07-22 23:50:26.165,0.5,0.09,-0.95,-3.3,-17.64,12.45
2026-07-22 23:50:26.165,0.5,0.09,-0.95,-3.3,-17.64,12.45
2026-07-22 23:50:26.362,0.36,0.12,-0.94,5.07,-5.37,14.16
2026-07-22 23:50:26.401,0.24,0.15,-0.94,17.03,5.98,3.6
2026-07-22 23:50:26.401,0.24,0.15,-0.94,17.03,5.98,3.6
2026-07-22 23:50:26.401,0.22,0.17,-0.94,21.61,7.51,-1.71
2026-07-22 23:50:26.401,0.22,0.17,-0.94,21.61,7.51,-1.71
2026-07-22 23:50:26.401,0.27,0.17,-0.94,11.05,-0.31,11.29
2026-07-22 23:50:26.401,0.27,0.17,-0.94,11.05,-0.31,11.29
2026-07-22 23:50:26.465,0.31,0.15,-0.95,-5.74,-7.39,24.66
2026-07-22 23:50:26.465,0.31,0.15,-0.95,-5.74,-7.39,24.66
2026-07-22 23:50:26.465,0.31,0.15,-0.95,-5.74,-7.39,24.66
2026-07-22 23:50:26.465,0.31,0.15,-0.95,-5.74,-7.39,24.66
2026-07-22 23:50:26.465,0.31,0.08,-0.96,-15.01,-0.24,-4.15
2026-07-22 23:50:26.465,0.31,0.08,-0.96,-4.88,5.07,-19.17
2026-07-22 23:50:26.591,0.33,0.07,-0.95,-4.88,5.07,-19.17
2026-07-22 23:50:26.591,0.33,0.1,-0.94,3.54,6.53,-15.56
2026-07-22 23:50:26.591,0.33,0.1,-0.94,3.54,6.53,-15.56
2026-07-22 23:50:26.591,0.29,0.12,-0.95,3.97,5.86,-2.69
2026-07-22 23:50:26.591,0.29,0.12,-0.95,3.97,5.86,-2.69
2026-07-22 23:50:26.645,0.26,0.09,-0.96,-1.46,5.0,4.09
2026-07-22 23:50:26.654,0.26,0.09,-0.96,-1.46,5.0,4.09
2026-07-22 23:50:26.654,0.27,0.05,-0.97,-3.78,4.15,1.65
