Sample,Timestamp,Elapsed_s,AccX,AccY,AccZ,GyroX,GyroY,GyroZ
0,2026-08-03 13:20:26.620,0.0,-0.33,-0.13,0.86,1.65,-4.82,2.62
1,2026-08-03 13:20:26.621,0.001,0.03,0.97,1.28,47.06,-2.26,77.7
2,2026-08-03 13:20:26.621,0.001,-0.39,0.84,1.24,-57.62,2.62,-25.82
3,2026-08-03 13:20:26.622,0.002,-0.39,0.84,1.24,-57.62,2.62,-25.82
4,2026-08-03 13:20:26.623,0.003,-0.31,0.37,1.04,-124.21,10.5,-103.15
5,2026-08-03 13:20:26.672,0.052,-0.31,0.37,1.04,-124.21,10.5,-103.15
6,2026-08-03 13:20:26.673,0.053,0.01,-0.0,0.92,-122.07,18.31,-111.33
7,2026-08-03 13:20:26.673,0.053,0.29,-0.13,0.88,-81.36,24.41,-71.04
8,2026-08-03 13:20:26.674,0.054,0.29,-0.13,0.88,-81.36,24.41,-71.04
9,2026-08-03 13:20:26.732,0.112,0.42,-0.1,0.87,-50.48,26.55,-21.3
10,2026-08-03 13:20:26.734,0.114,0.42,-0.1,0.87,-50.48,26.55,-21.3
11,2026-08-03 13:20:26.735,0.115,0.45,-0.05,0.9,-40.71,21.48,13.31
12,2026-08-03 13:20:26.852,0.232,0.45,-0.05,0.9,-40.71,21.48,13.31
13,2026-08-03 13:20:26.853,0.233,0.42,-0.06,0.93,-33.02,17.09,25.88
14,2026-08-03 13:20:26.854,0.234,0.42,-0.06,0.93,-15.69,19.41,21.36
15,2026-08-03 13:20:26.854,0.234,0.39,-0.06,0.91,-15.69,19.41,21.36
16,2026-08-03 13:20:26.855,0.235,0.36,-0.08,0.87,-8.0,16.05,11.23
17,2026-08-03 13:20:26.926,0.306,0.36,-0.08,0.87,-8.0,16.05,11.23
18,2026-08-03 13:20:26.927,0.307,0.35,-0.12,0.83,-15.81,2.44,1.22
19,2026-08-03 13:20:26.973,0.353,0.38,-0.15,0.83,-11.35,-12.7,-13.85
20,2026-08-03 13:20:27.032,0.412,0.42,-0.19,0.87,-2.38,-16.85,-23.44
21,2026-08-03 13:20:27.033,0.413,0.44,-0.21,0.87,-11.78,-7.02,-16.78
22,2026-08-03 13:20:27.039,0.419,0.44,-0.21,0.87,-11.78,-7.02,-16.78
23,2026-08-03 13:20:27.094,0.474,0.42,-0.21,0.85,-24.96,9.46,-2.26
24,2026-08-03 13:20:27.095,0.475,0.42,-0.21,0.85,-24.96,9.46,-2.26
25,2026-08-03 13:20:27.096,0.476,0.35,-0.22,0.82,-36.5,19.04,3.72
26,2026-08-03 13:20:27.162,0.542,0.35,-0.22,0.82,-36.5,19.04,3.72
27,2026-08-03 13:20:27.163,0.543,0.29,-0.2,0.8,-17.4,20.51,-23.07
28,2026-08-03 13:20:27.213,0.593,0.29,-0.2,0.8,-17.4,20.51,-23.07
29,2026-08-03 13:20:27.214,0.594,0.29,-0.14,0.87,53.28,39.12,-80.02
30,2026-08-03 13:20:27.214,0.594,0.3,-0.08,0.97,75.13,56.34,-118.35
31,2026-08-03 13:20:27.272,0.652,0.3,-0.08,0.97,75.13,56.34,-118.35
32,2026-08-03 13:20:27.273,0.653,0.28,-0.03,1.01,18.31,55.24,-113.77
33,2026-08-03 13:20:27.274,0.654,0.28,-0.03,1.01,18.31,55.24,-113.77
34,2026-08-03 13:20:27.334,0.714,0.25,0.02,0.97,-28.69,56.64,-87.1
35,2026-08-03 13:20:27.392,0.772,0.21,0.06,0.9,-37.29,58.84,-59.57
36,2026-08-03 13:20:27.393,0.773,0.22,0.05,0.86,-24.11,59.69,-57.13
37,2026-08-03 13:20:27.451,0.831,0.26,0.05,0.91,-22.89,80.75,-92.83
38,2026-08-03 13:20:27.512,0.892,0.26,0.09,1.01,-54.93,98.27,-117.13
39,2026-08-03 13:20:27.513,0.893,0.22,0.1,1.01,-52.8,80.14,-74.34
40,2026-08-03 13:20:27.572,0.952,0.2,0.07,0.96,0.85,47.36,-7.45
41,2026-08-03 13:20:27.574,0.954,0.2,0.07,0.96,0.85,47.36,-7.45
42,2026-08-03 13:20:27.574,0.954,0.22,0.02,0.9,21.73,7.93,19.35
43,2026-08-03 13:20:27.636,1.016,0.22,0.02,0.9,21.73,7.93,19.35
44,2026-08-03 13:20:27.637,1.017,0.22,-0.05,0.96,-4.46,-23.86,16.11
45,2026-08-03 13:20:27.691,1.071,0.22,-0.05,0.96,-4.46,-23.86,16.11
46,2026-08-03 13:20:27.692,1.072,0.28,-0.16,0.98,-32.35,-77.39,11.78
47,2026-08-03 13:20:27.692,1.072,0.28,-0.16,0.98,-34.91,-114.93,21.79
48,2026-08-03 13:20:27.751,1.131,0.31,-0.2,0.89,-34.91,-114.93,21.79
49,2026-08-03 13:20:27.751,1.131,-0.09,-0.14,0.85,19.53,-66.96,54.99
50,2026-08-03 13:20:27.752,1.132,-0.09,-0.14,0.85,19.53,-66.96,54.99
51,2026-08-03 13:20:27.812,1.192,-0.19,-0.09,0.71,98.82,-118.96,139.89
52,2026-08-03 13:20:27.875,1.255,0.34,-0.22,0.45,97.11,-311.28,249.69
53,2026-08-03 13:20:27.876,1.256,0.34,-0.22,0.45,5.49,-279.48,212.46
54,2026-08-03 13:20:27.876,1.256,0.54,-0.32,0.46,5.49,-279.48,212.46
55,2026-08-03 13:20:27.932,1.312,0.3,-0.39,0.9,-121.83,2.08,55.18
56,2026-08-03 13:20:27.992,1.372,0.11,-0.59,1.29,-164.31,188.54,-22.28
57,2026-08-03 13:20:27.992,1.372,0.06,-0.67,1.28,-69.34,183.04,-5.55
58,2026-08-03 13:20:28.052,1.432,0.04,-0.64,1.02,14.34,95.46,29.97
59,2026-08-03 13:20:28.053,1.433,0.04,-0.64,1.02,14.34,95.46,29.97
60,2026-08-03 13:20:28.113,1.493,0.04,-0.64,0.77,14.1,29.36,37.23
61,2026-08-03 13:20:28.114,1.494,0.04,-0.64,0.77,14.1,29.36,37.23
62,2026-08-03 13:20:28.114,1.494,0.09,-0.62,0.67,-1.4,30.52,11.17
63,2026-08-03 13:20:28.172,1.552,0.09,-0.62,0.67,-1.4,30.52,11.17
64,2026-08-03 13:20:28.172,1.552,0.13,-0.54,0.72,1.04,74.28,-16.17
65,2026-08-03 13:20:28.232,1.612,0.15,-0.47,0.75,8.42,95.09,-21.85
66,2026-08-03 13:20:28.232,1.612,0.19,-0.42,0.76,19.59,72.57,-11.11
67,2026-08-03 13:20:28.233,1.613,0.19,-0.42,0.76,19.59,72.57,-11.11
68,2026-08-03 13:20:28.308,1.688,0.29,-0.42,0.79,30.88,22.95,10.56
69,2026-08-03 13:20:28.309,1.689,0.29,-0.42,0.79,30.88,22.95,10.56
70,2026-08-03 13:20:28.352,1.732,0.42,-0.42,0.88,44.07,-19.1,33.51
71,2026-08-03 13:20:28.353,1.733,0.42,-0.42,0.88,44.07,-19.1,33.51
72,2026-08-03 13:20:28.353,1.733,0.5,-0.36,1.05,89.36,-23.13,38.39
73,2026-08-03 13:20:28.412,1.792,0.5,-0.36,1.05,182.01,-3.97,33.26
74,2026-08-03 13:20:28.412,1.792,0.43,-0.17,1.19,182.01,-3.97,33.26
75,2026-08-03 13:20:28.471,1.851,0.27,0.11,1.24,264.28,11.54,45.41
76,2026-08-03 13:20:28.471,1.851,0.1,0.38,1.29,248.72,21.97,76.97
77,2026-08-03 13:20:28.531,1.911,0.1,0.38,1.29,248.72,21.97,76.97
78,2026-08-03 13:20:28.532,1.912,0.0,0.57,1.28,132.81,36.5,106.2
79,2026-08-03 13:20:28.591,1.971,-0.03,0.51,1.11,-29.54,38.94,107.79
80,2026-08-03 13:20:28.592,1.972,-0.06,0.23,0.97,-192.44,7.81,77.51
81,2026-08-03 13:20:28.662,2.042,-0.06,0.23,0.97,-192.44,7.81,77.51
82,2026-08-03 13:20:28.667,2.047,-0.04,-0.08,1.03,-296.45,-24.41,43.88
83,2026-08-03 13:20:28.712,2.092,-0.02,-0.2,1.15,-281.62,-30.15,29.48
84,2026-08-03 13:20:28.712,2.092,-0.02,-0.13,1.1,-182.56,-22.46,-12.27
85,2026-08-03 13:20:28.772,2.152,-0.02,-0.13,1.1,-182.56,-22.46,-12.27
86,2026-08-03 13:20:28.772,2.152,-0.05,-0.14,0.81,-100.71,11.54,-109.99
87,2026-08-03 13:20:28.773,2.153,-0.05,-0.14,0.81,-100.71,11.54,-109.99
88,2026-08-03 13:20:28.891,2.271,-0.12,-0.19,0.43,-34.85,66.16,-168.46
89,2026-08-03 13:20:28.892,2.272,-0.12,-0.19,0.43,-34.85,66.16,-168.46
90,2026-08-03 13:20:28.892,2.272,-0.19,-0.21,0.2,43.58,86.0,-126.1
91,2026-08-03 13:20:28.892,2.272,-0.25,-0.2,0.23,92.16,75.62,-63.42
92,2026-08-03 13:20:28.893,2.273,-0.25,-0.2,0.23,92.16,75.62,-63.42
93,2026-08-03 13:20:28.951,2.331,-0.29,-0.2,0.44,96.98,59.63,-40.65
94,2026-08-03 13:20:28.952,2.332,-0.29,-0.2,0.44,96.98,59.63,-40.65
95,2026-08-03 13:20:28.952,2.332,-0.33,-0.17,0.76,99.18,20.51,-18.68
96,2026-08-03 13:20:29.015,2.395,-0.33,-0.17,0.76,99.18,20.51,-18.68
97,2026-08-03 13:20:29.015,2.395,-0.35,-0.05,1.14,109.56,-4.7,4.39
98,2026-08-03 13:20:29.071,2.451,-0.29,0.09,1.46,106.87,32.23,-26.43
99,2026-08-03 13:20:29.072,2.452,-0.29,0.09,1.46,106.87,32.23,-26.43
100,2026-08-03 13:20:29.072,2.452,-0.21,0.13,1.62,92.65,93.81,-94.73
101,2026-08-03 13:20:29.138,2.518,-0.21,0.13,1.62,92.65,93.81,-94.73
102,2026-08-03 13:20:29.138,2.518,-0.15,0.07,1.64,84.84,124.88,-148.07
103,2026-08-03 13:20:29.264,2.644,-0.12,0.05,1.44,79.65,108.4,-169.86
104,2026-08-03 13:20:29.264,2.644,-0.14,0.06,1.07,71.11,53.1,-156.37
105,2026-08-03 13:20:29.265,2.645,-0.2,0.06,0.77,62.99,-9.03,-122.74
106,2026-08-03 13:20:29.311,2.691,-0.24,0.1,0.73,47.91,-41.56,-100.46
107,2026-08-03 13:20:29.312,2.692,-0.24,0.1,0.73,47.91,-41.56,-100.46
108,2026-08-03 13:20:29.375,2.755,-0.19,0.18,0.86,23.32,-46.26,-100.4
109,2026-08-03 13:20:29.375,2.755,-0.06,0.23,0.87,12.94,-50.35,-104.68
110,2026-08-03 13:20:29.376,2.756,-0.06,0.23,0.87,12.94,-50.35,-104.68
111,2026-08-03 13:20:29.439,2.819,0.06,0.23,0.73,29.05,-63.29,-95.15
112,2026-08-03 13:20:29.441,2.821,0.06,0.23,0.73,29.05,-63.29,-95.15
113,2026-08-03 13:20:29.441,2.821,0.15,0.21,0.65,49.87,-65.92,-74.46
114,2026-08-03 13:20:29.492,2.872,0.15,0.21,0.65,49.87,-65.92,-74.46
115,2026-08-03 13:20:29.493,2.873,0.18,0.25,0.7,61.04,-45.41,-56.34
116,2026-08-03 13:20:29.613,2.993,0.15,0.37,0.86,67.08,-14.1,-39.73
117,2026-08-03 13:20:29.614,2.994,0.08,0.48,1.07,60.0,12.82,-6.41
118,2026-08-03 13:20:29.615,2.995,-0.01,0.5,1.26,32.59,25.94,51.82
119,2026-08-03 13:20:29.671,3.051,-0.11,0.4,1.36,8.42,24.72,115.78
120,2026-08-03 13:20:29.672,3.052,-0.11,0.4,1.36,8.42,24.72,115.78
121,2026-08-03 13:20:29.735,3.115,-0.19,0.26,1.36,-1.1,15.81,155.88
122,2026-08-03 13:20:29.736,3.116,-0.24,0.18,1.27,-11.6,6.59,155.4
123,2026-08-03 13:20:29.798,3.178,-0.25,0.21,1.1,-25.02,-8.12,122.8
124,2026-08-03 13:20:29.799,3.179,-0.24,0.26,0.99,-35.22,-24.84,80.69
125,2026-08-03 13:20:29.852,3.232,-0.24,0.26,0.99,-35.22,-24.84,80.69
126,2026-08-03 13:20:29.852,3.232,-0.22,0.31,1.07,-47.79,-29.85,35.52
127,2026-08-03 13:20:29.915,3.295,-0.19,0.38,1.14,-54.2,-33.39,-12.21
128,2026-08-03 13:20:29.915,3.295,-0.16,0.36,0.99,-39.67,-51.51,-41.44
129,2026-08-03 13:20:29.971,3.351,-0.16,0.36,0.99,-39.67,-51.51,-41.44
130,2026-08-03 13:20:29.971,3.351,-0.14,0.28,0.72,-15.81,-69.03,-46.94
131,2026-08-03 13:20:30.031,3.411,-0.15,0.21,0.56,-6.04,-60.73,-46.51
132,2026-08-03 13:20:30.032,3.412,-0.15,0.21,0.56,-11.84,-32.59,-44.74
133,2026-08-03 13:20:30.092,3.472,-0.15,0.19,0.56,-11.84,-32.59,-44.74
134,2026-08-03 13:20:30.093,3.473,-0.15,0.21,0.63,-13.98,-2.44,-43.03
135,2026-08-03 13:20:30.151,3.531,-0.15,0.25,0.72,-3.11,19.53,-48.28
136,2026-08-03 13:20:30.168,3.548,-0.15,0.25,0.72,-3.11,19.53,-48.28
137,2026-08-03 13:20:30.217,3.597,-0.16,0.3,0.8,14.47,24.72,-56.15
138,2026-08-03 13:20:30.218,3.598,-0.15,0.36,0.94,32.84,22.89,-64.03
139,2026-08-03 13:20:30.271,3.651,-0.11,0.42,1.05,48.22,26.73,-76.84
140,2026-08-03 13:20:30.272,3.652,-0.11,0.42,1.05,48.22,26.73,-76.84
141,2026-08-03 13:20:30.272,3.652,-0.09,0.47,1.12,55.85,34.79,-92.22
142,2026-08-03 13:20:30.392,3.772,-0.09,0.47,1.12,55.85,34.79,-92.22
143,2026-08-03 13:20:30.451,3.831,-0.12,0.47,1.23,43.33,45.53,-108.28
144,2026-08-03 13:20:30.453,3.833,-0.12,0.47,1.23,43.33,45.53,-108.28
145,2026-08-03 13:20:30.463,3.843,-0.16,0.41,1.3,12.45,42.79,-125.0
146,2026-08-03 13:20:30.463,3.843,-0.16,0.41,1.3,-12.27,3.42,-134.03
147,2026-08-03 13:20:30.464,3.844,-0.2,0.31,1.16,-12.27,3.42,-134.03
148,2026-08-03 13:20:30.464,3.844,-0.23,0.2,0.9,-17.82,-56.88,-134.09
149,2026-08-03 13:20:30.465,3.845,-0.23,0.2,0.9,-17.82,-56.88,-134.09
150,2026-08-03 13:20:30.511,3.891,-0.22,0.13,0.69,-13.49,-94.91,-138.67
151,2026-08-03 13:20:30.512,3.892,-0.22,0.13,0.69,-13.49,-94.91,-138.67
152,2026-08-03 13:20:30.571,3.951,-0.13,0.15,0.65,-5.19,-95.7,-153.56
153,2026-08-03 13:20:30.572,3.952,-0.01,0.23,0.7,9.22,-81.05,-170.17
154,2026-08-03 13:20:30.632,4.012,0.07,0.31,0.74,27.4,-72.27,-178.16
155,2026-08-03 13:20:30.692,4.072,0.11,0.35,0.76,39.12,-71.11,-170.96
156,2026-08-03 13:20:30.695,4.075,0.11,0.35,0.76,39.12,-71.11,-170.96
157,2026-08-03 13:20:30.695,4.075,0.13,0.35,0.75,41.32,-67.26,-148.44
158,2026-08-03 13:20:30.752,4.132,0.13,0.33,0.78,46.69,-51.57,-117.92
159,2026-08-03 13:20:30.812,4.192,0.11,0.38,0.91,54.63,-26.37,-89.17
160,2026-08-03 13:20:30.813,4.193,0.07,0.55,1.16,54.57,-9.64,-68.48
161,2026-08-03 13:20:30.871,4.251,0.07,0.55,1.16,54.57,-9.64,-68.48
162,2026-08-03 13:20:30.872,4.252,0.03,0.72,1.4,42.72,-14.47,-46.26
163,2026-08-03 13:20:30.872,4.252,-0.02,0.72,1.49,20.45,-25.82,-6.53
164,2026-08-03 13:20:30.931,4.311,-0.02,0.72,1.49,20.45,-25.82,-6.53
165,2026-08-03 13:20:30.932,4.312,-0.09,0.52,1.33,-14.59,-39.73,41.56
166,2026-08-03 13:20:30.998,4.378,-0.09,0.52,1.33,-14.59,-39.73,41.56
167,2026-08-03 13:20:30.999,4.379,-0.23,0.34,0.98,-40.95,-67.5,68.12
168,2026-08-03 13:20:31.171,4.551,-0.34,0.33,0.71,-37.72,-96.86,68.91
169,2026-08-03 13:20:31.172,4.552,-0.34,0.33,0.71,-33.14,-107.79,82.64
170,2026-08-03 13:20:31.172,4.552,-0.23,0.42,0.64,-33.14,-107.79,82.64
171,2026-08-03 13:20:31.172,4.552,0.03,0.41,0.69,-38.57,-93.44,117.98
172,2026-08-03 13:20:31.173,4.553,0.03,0.41,0.69,-38.57,-93.44,117.98
173,2026-08-03 13:20:31.173,4.553,0.2,0.28,0.75,-39.61,-58.78,123.6
174,2026-08-03 13:20:31.174,4.554,0.21,0.11,0.79,-41.93,-18.8,75.2
175,2026-08-03 13:20:31.231,4.611,0.21,0.11,0.79,-51.27,13.24,-10.62
176,2026-08-03 13:20:31.232,4.612,0.12,0.03,0.81,-51.27,13.24,-10.62
177,2026-08-03 13:20:31.298,4.678,-0.06,0.07,0.85,-63.29,41.2,-115.84
178,2026-08-03 13:20:31.299,4.679,-0.25,0.23,0.98,-70.8,73.0,-209.41
179,2026-08-03 13:20:31.351,4.731,-0.25,0.23,0.98,-70.8,73.0,-209.41
180,2026-08-03 13:20:31.352,4.732,-0.32,0.48,1.1,-58.47,91.43,-268.55
181,2026-08-03 13:20:31.352,4.732,-0.32,0.48,1.1,-32.1,79.28,-304.14
182,2026-08-03 13:20:31.412,4.792,-0.24,0.76,1.14,-32.1,79.28,-304.14
183,2026-08-03 13:20:31.412,4.792,-0.11,0.93,1.16,-23.13,52.19,-314.27
184,2026-08-03 13:20:31.471,4.851,-0.11,0.93,1.16,-23.13,52.19,-314.27
185,2026-08-03 13:20:31.472,4.852,0.01,0.9,1.13,-30.15,34.18,-287.35
186,2026-08-03 13:20:31.712,5.092,0.08,0.74,1.12,-28.2,32.29,-242.49
187,2026-08-03 13:20:31.712,5.092,0.08,0.74,1.12,-13.55,34.0,-204.9
188,2026-08-03 13:20:31.713,5.093,0.12,0.58,1.14,-13.55,34.0,-204.9
189,2026-08-03 13:20:31.713,5.093,0.17,0.47,1.13,0.79,24.9,-180.24
190,2026-08-03 13:20:31.714,5.094,0.17,0.47,1.13,0.79,24.9,-180.24
191,2026-08-03 13:20:31.714,5.094,0.19,0.36,1.03,8.48,5.62,-154.42
192,2026-08-03 13:20:31.714,5.094,0.17,0.22,0.88,13.43,-10.38,-115.78
193,2026-08-03 13:20:31.718,5.098,0.17,0.22,0.88,13.43,-10.38,-115.78
194,2026-08-03 13:20:31.719,5.099,0.1,0.04,0.81,15.32,-9.7,-59.2
195,2026-08-03 13:20:31.719,5.099,0.02,-0.17,0.81,13.61,3.05,6.04
196,2026-08-03 13:20:31.771,5.151,0.02,-0.17,0.81,13.61,3.05,6.04
197,2026-08-03 13:20:31.772,5.152,-0.01,-0.29,0.87,14.16,15.2,46.51
198,2026-08-03 13:20:31.833,5.213,-0.01,-0.29,0.87,14.16,15.2,46.51
199,2026-08-03 13:20:31.833,5.213,0.01,-0.27,0.96,10.56,23.44,53.65
200,2026-08-03 13:20:31.835,5.215,0.01,-0.27,0.96,10.56,23.44,53.65
201,2026-08-03 13:20:31.894,5.274,0.0,-0.18,1.0,-2.08,22.22,55.42
202,2026-08-03 13:20:31.895,5.275,-0.07,-0.07,0.99,-14.47,10.31,67.44
203,2026-08-03 13:20:31.967,5.347,-0.17,0.03,1.01,-25.51,1.83,86.73
204,2026-08-03 13:20:31.968,5.348,-0.17,0.03,1.01,-25.51,1.83,86.73
205,2026-08-03 13:20:32.011,5.391,-0.24,0.08,1.1,-40.71,5.43,106.51
206,2026-08-03 13:20:32.071,5.451,-0.24,0.08,1.1,-40.71,5.43,106.51
207,2026-08-03 13:20:32.071,5.451,-0.26,0.07,1.12,-55.42,7.57,116.7
208,2026-08-03 13:20:32.072,5.452,-0.29,0.06,0.96,-56.7,-9.09,108.89
209,2026-08-03 13:20:32.072,5.452,-0.29,0.06,0.96,-47.36,-30.82,86.67
210,2026-08-03 13:20:32.133,5.513,-0.35,0.08,0.8,-47.36,-30.82,86.67
211,2026-08-03 13:20:32.133,5.513,-0.35,0.14,0.86,-42.79,-28.32,56.58
212,2026-08-03 13:20:32.311,5.691,-0.35,0.14,0.86,-42.79,-28.32,56.58
213,2026-08-03 13:20:32.312,5.692,-0.24,0.23,1.07,-38.33,-5.62,18.55
214,2026-08-03 13:20:32.313,5.693,-0.24,0.23,1.07,-38.33,-5.62,18.55
215,2026-08-03 13:20:32.313,5.693,-0.12,0.29,1.15,-23.8,3.85,-14.53
216,2026-08-03 13:20:32.314,5.694,-0.12,0.29,1.15,-23.8,3.85,-14.53
217,2026-08-03 13:20:32.314,5.694,-0.12,0.28,1.0,-6.77,-15.75,-21.06
218,2026-08-03 13:20:32.314,5.694,-0.22,0.18,0.8,1.34,-40.28,-3.66
219,2026-08-03 13:20:32.380,5.76,-0.3,0.07,0.76,0.92,-39.43,12.45
220,2026-08-03 13:20:32.432,5.812,-0.3,0.07,0.76,0.92,-39.43,12.45
221,2026-08-03 13:20:32.432,5.812,-0.31,0.01,0.86,0.73,-16.66,9.03
222,2026-08-03 13:20:32.491,5.871,-0.31,0.01,0.86,0.73,-16.66,9.03
223,2026-08-03 13:20:32.492,5.872,-0.24,0.01,0.94,8.91,1.95,-12.15
224,2026-08-03 13:20:32.492,5.872,-0.16,0.04,0.93,24.48,5.98,-35.22
225,2026-08-03 13:20:32.493,5.873,-0.1,0.08,0.92,33.26,8.3,-44.86
226,2026-08-03 13:20:32.611,5.991,-0.1,0.08,0.92,33.26,8.3,-44.86
227,2026-08-03 13:20:32.612,5.992,-0.05,0.1,0.97,30.15,16.42,-43.27
228,2026-08-03 13:20:32.612,5.992,-0.0,0.1,1.08,23.99,23.74,-41.87
229,2026-08-03 13:20:32.613,5.993,-0.0,0.1,1.08,19.71,22.46,-43.82
230,2026-08-03 13:20:32.731,6.111,0.05,0.08,1.14,19.71,22.46,-43.82
231,2026-08-03 13:20:32.732,6.112,0.1,0.05,1.09,20.2,9.28,-48.89
232,2026-08-03 13:20:32.733,6.113,0.14,0.05,0.99,23.13,-8.54,-55.6
233,2026-08-03 13:20:32.734,6.114,0.18,0.06,0.95,21.79,-20.63,-58.59
234,2026-08-03 13:20:32.791,6.171,0.18,0.06,0.95,21.79,-20.63,-58.59
235,2026-08-03 13:20:32.792,6.172,0.23,0.09,0.99,16.85,-24.6,-56.7
236,2026-08-03 13:20:32.851,6.231,0.27,0.13,1.06,14.89,-26.12,-51.64
237,2026-08-03 13:20:32.853,6.233,0.27,0.13,1.06,14.89,-26.12,-51.64
238,2026-08-03 13:20:32.853,6.233,0.25,0.16,1.06,18.62,-29.17,-39.43
239,2026-08-03 13:20:32.911,6.291,0.25,0.16,1.06,18.62,-29.17,-39.43
240,2026-08-03 13:20:32.912,6.292,0.2,0.18,1.01,18.19,-27.83,-14.16
241,2026-08-03 13:20:32.973,6.353,0.13,0.19,0.98,6.41,-18.43,18.13
242,2026-08-03 13:20:32.973,6.353,0.13,0.19,0.98,-8.97,-10.01,42.79
243,2026-08-03 13:20:33.031,6.411,0.06,0.2,0.96,-8.97,-10.01,42.79
244,2026-08-03 13:20:33.031,6.411,0.01,0.21,0.95,-20.08,-5.68,52.49
245,2026-08-03 13:20:33.032,6.412,0.01,0.21,0.95,-20.08,-5.68,52.49
246,2026-08-03 13:20:33.097,6.477,-0.01,0.18,0.96,-30.64,0.73,46.02
247,2026-08-03 13:20:33.102,6.482,-0.01,0.18,0.96,-30.64,0.73,46.02
248,2026-08-03 13:20:33.153,6.533,-0.02,0.13,0.99,-40.41,12.45,14.1
249,2026-08-03 13:20:33.154,6.534,-0.02,0.13,0.99,-40.41,12.45,14.1
250,2026-08-03 13:20:33.154,6.534,-0.08,0.13,1.02,-39.18,25.88,-43.76
251,2026-08-03 13:20:33.211,6.591,-0.21,0.15,1.02,-28.32,28.93,-92.9
252,2026-08-03 13:20:33.212,6.592,-0.21,0.15,1.02,-28.32,28.93,-92.9
253,2026-08-03 13:20:33.212,6.592,-0.32,0.14,0.96,-13.79,15.75,-101.5
254,2026-08-03 13:20:33.279,6.659,-0.32,0.14,0.96,-13.79,15.75,-101.5
255,2026-08-03 13:20:33.279,6.659,-0.32,0.14,0.82,8.12,1.34,-76.84
256,2026-08-03 13:20:33.331,6.711,-0.32,0.14,0.82,8.12,1.34,-76.84
257,2026-08-03 13:20:33.332,6.712,-0.2,0.2,0.69,39.31,3.78,-43.09
258,2026-08-03 13:20:33.332,6.712,-0.2,0.2,0.69,58.96,28.38,-16.91
259,2026-08-03 13:20:33.394,6.774,-0.06,0.27,0.74,58.96,28.38,-16.91
260,2026-08-03 13:20:33.396,6.776,0.03,0.29,0.95,38.33,55.54,-6.04
261,2026-08-03 13:20:33.397,6.777,0.03,0.29,0.95,38.33,55.54,-6.04
262,2026-08-03 13:20:33.451,6.831,0.07,0.25,1.17,-3.91,60.36,-6.16
263,2026-08-03 13:20:33.452,6.832,0.07,0.25,1.17,-3.91,60.36,-6.16
264,2026-08-03 13:20:33.514,6.894,0.06,0.19,1.26,-16.66,44.37,-9.83
265,2026-08-03 13:20:33.514,6.894,0.02,0.17,1.13,16.3,36.38,-11.47
266,2026-08-03 13:20:33.572,6.952,-0.04,0.22,0.92,57.31,42.36,-7.08
267,2026-08-03 13:20:33.577,6.957,-0.04,0.22,0.92,57.31,42.36,-7.08
268,2026-08-03 13:20:33.577,6.957,-0.1,0.31,0.89,55.11,36.44,-4.27
269,2026-08-03 13:20:33.696,7.076,-0.1,0.31,0.89,55.11,36.44,-4.27
270,2026-08-03 13:20:33.697,7.077,-0.15,0.38,1.03,13.37,19.84,-7.63
271,2026-08-03 13:20:33.698,7.078,-0.24,0.39,1.14,-15.56,5.98,-11.29
272,2026-08-03 13:20:33.701,7.081,-0.24,0.39,1.14,-15.56,5.98,-11.29
273,2026-08-03 13:20:33.753,7.133,-0.34,0.35,1.17,-0.79,0.37,-16.24
274,2026-08-03 13:20:33.757,7.137,-0.36,0.33,1.19,29.66,8.85,-25.09
275,2026-08-03 13:20:33.811,7.191,-0.38,0.22,1.2,23.93,18.07,-21.42
276,2026-08-03 13:20:33.812,7.192,-0.38,0.22,1.2,23.93,18.07,-21.42
277,2026-08-03 13:20:33.876,7.256,-0.41,0.01,1.08,0.85,10.38,1.83
278,2026-08-03 13:20:33.877,7.257,-0.41,0.01,1.08,0.85,10.38,1.83
279,2026-08-03 13:20:33.877,7.257,-0.39,-0.14,0.85,11.54,-2.32,30.09
280,2026-08-03 13:20:33.931,7.311,-0.39,-0.14,0.85,11.54,-2.32,30.09
281,2026-08-03 13:20:33.932,7.312,-0.32,-0.22,0.69,32.17,0.92,59.33
282,2026-08-03 13:20:33.932,7.312,-0.23,-0.3,0.69,19.1,18.98,85.45
283,2026-08-03 13:20:34.001,7.381,-0.23,-0.3,0.69,19.1,18.98,85.45
284,2026-08-03 13:20:34.001,7.381,-0.15,-0.3,0.77,-21.42,38.21,91.25
285,2026-08-03 13:20:34.053,7.433,-0.15,-0.3,0.77,-21.42,38.21,91.25
286,2026-08-03 13:20:34.053,7.433,-0.1,-0.15,0.92,-60.36,50.78,64.03
287,2026-08-03 13:20:34.176,7.556,-0.08,0.14,1.15,-79.41,53.34,20.14
288,2026-08-03 13:20:34.231,7.611,-0.08,0.14,1.15,-76.05,40.71,-4.88
289,2026-08-03 13:20:34.233,7.613,-0.06,0.38,1.28,-76.05,40.71,-4.88
290,2026-08-03 13:20:34.233,7.613,-0.09,0.47,1.16,-61.16,5.98,4.03
291,2026-08-03 13:20:34.298,7.678,-0.09,0.47,1.16,-61.16,5.98,4.03
292,2026-08-03 13:20:34.299,7.679,-0.09,0.41,0.96,-60.24,-44.01,36.32
293,2026-08-03 13:20:34.300,7.68,-0.04,0.28,0.83,-74.77,-77.03,68.18
294,2026-08-03 13:20:34.301,7.681,-0.02,0.21,0.77,-73.85,-79.65,75.32
295,2026-08-03 13:20:34.301,7.681,0.0,0.25,0.78,-47.61,-73.67,63.11
296,2026-08-03 13:20:34.354,7.734,0.0,0.25,0.78,-47.61,-73.67,63.11
297,2026-08-03 13:20:34.354,7.734,-0.02,0.36,0.86,-12.51,-67.38,53.28
298,2026-08-03 13:20:34.414,7.794,-0.02,0.36,0.86,-12.51,-67.38,53.28
299,2026-08-03 13:20:34.415,7.795,-0.13,0.44,1.0,10.44,-47.36,54.87
300,2026-08-03 13:20:34.474,7.854,-0.22,0.5,1.18,19.84,-17.4,65.25
301,2026-08-03 13:20:34.475,7.855,-0.22,0.5,1.18,31.86,-2.56,80.51
302,2026-08-03 13:20:34.475,7.855,-0.24,0.55,1.29,31.86,-2.56,80.51
303,2026-08-03 13:20:34.531,7.911,-0.32,0.53,1.23,41.2,-9.4,105.22
304,2026-08-03 13:20:34.532,7.912,-0.32,0.53,1.23,41.2,-9.4,105.22
305,2026-08-03 13:20:34.653,8.033,-0.46,0.38,1.19,21.85,-16.05,134.58
306,2026-08-03 13:20:34.653,8.033,-0.59,0.21,1.2,-15.99,-13.0,146.12
307,2026-08-03 13:20:34.654,8.034,-0.61,0.12,1.09,-34.24,-9.64,132.51
308,2026-08-03 13:20:34.724,8.104,-0.56,0.02,0.86,-30.03,-10.13,110.96
309,2026-08-03 13:20:34.725,8.105,-0.56,0.02,0.86,-30.03,-10.13,110.96
310,2026-08-03 13:20:34.725,8.105,-0.51,-0.12,0.59,-27.95,-11.17,87.04
311,2026-08-03 13:20:34.774,8.154,-0.51,-0.12,0.59,-27.95,-11.17,87.04
312,2026-08-03 13:20:34.774,8.154,-0.46,-0.26,0.4,-34.24,-1.71,56.34
313,2026-08-03 13:20:34.775,8.155,-0.46,-0.26,0.4,-33.45,23.68,27.53
314,2026-08-03 13:20:34.893,8.273,-0.37,-0.33,0.38,-33.45,23.68,27.53
315,2026-08-03 13:20:34.893,8.273,-0.29,-0.31,0.5,-23.07,53.65,-0.12
316,2026-08-03 13:20:34.901,8.281,-0.28,-0.2,0.74,-17.7,75.93,-35.03
317,2026-08-03 13:20:34.902,8.282,-0.28,-0.2,0.74,-17.7,75.93,-35.03
318,2026-08-03 13:20:34.952,8.332,-0.33,-0.1,1.05,-25.45,88.87,-67.75
319,2026-08-03 13:20:35.022,8.402,-0.39,-0.02,1.33,-25.94,97.29,-87.71
320,2026-08-03 13:20:35.022,8.402,-0.44,0.07,1.51,2.5,100.16,-99.61
321,2026-08-03 13:20:35.025,8.405,-0.44,0.07,1.51,2.5,100.16,-99.61
322,2026-08-03 13:20:35.072,8.452,-0.44,0.16,1.58,34.12,84.35,-109.8
323,2026-08-03 13:20:35.073,8.453,-0.35,0.2,1.39,59.81,40.77,-118.71
324,2026-08-03 13:20:35.131,8.511,-0.35,0.2,1.39,59.81,40.77,-118.71
325,2026-08-03 13:20:35.131,8.511,-0.22,0.21,0.99,97.35,-13.73,-121.89
326,2026-08-03 13:20:35.193,8.573,-0.12,0.24,0.67,110.96,-41.99,-111.94
327,2026-08-03 13:20:35.194,8.574,-0.08,0.31,0.68,67.14,-37.96,-86.24
328,2026-08-03 13:20:35.254,8.634,-0.08,0.31,0.68,67.14,-37.96,-86.24
329,2026-08-03 13:20:35.254,8.634,-0.05,0.35,0.9,6.04,-26.18,-46.69
330,2026-08-03 13:20:35.255,8.635,-0.05,0.35,0.9,6.04,-26.18,-46.69
331,2026-08-03 13:20:35.318,8.698,-0.0,0.32,0.96,-25.94,-18.68,6.16
332,2026-08-03 13:20:35.318,8.698,0.03,0.25,0.82,-32.04,-14.04,62.56
333,2026-08-03 13:20:35.372,8.752,0.03,0.25,0.82,-32.04,-14.04,62.56
334,2026-08-03 13:20:35.372,8.752,0.02,0.18,0.72,-35.89,-5.98,108.09
335,2026-08-03 13:20:35.373,8.753,0.02,0.18,0.72,-35.89,-5.98,108.09
336,2026-08-03 13:20:35.431,8.811,-0.06,0.16,0.83,-49.01,8.79,139.89
337,2026-08-03 13:20:35.432,8.812,-0.06,0.16,0.83,-49.01,8.79,139.89
338,2026-08-03 13:20:35.505,8.885,-0.19,0.2,1.07,-71.84,18.19,162.54
339,2026-08-03 13:20:35.505,8.885,-0.29,0.27,1.2,-96.37,7.39,180.18
340,2026-08-03 13:20:35.554,8.934,-0.3,0.3,1.12,-107.12,-19.53,194.64
341,2026-08-03 13:20:35.555,8.935,-0.22,0.3,0.93,-94.67,-45.17,205.87
342,2026-08-03 13:20:35.625,9.005,-0.22,0.3,0.93,-94.67,-45.17,205.87
343,2026-08-03 13:20:35.625,9.005,-0.13,0.3,0.8,-59.57,-56.21,212.28
344,2026-08-03 13:20:35.736,9.116,-0.13,0.3,0.8,-59.57,-56.21,212.28
345,2026-08-03 13:20:35.737,9.117,-0.13,0.3,0.8,-59.57,-56.21,212.28
346,2026-08-03 13:20:35.737,9.117,-0.09,0.47,1.08,19.04,-24.11,202.21
347,2026-08-03 13:20:35.795,9.175,-0.21,0.69,1.42,1.22,-2.44,200.2
348,2026-08-03 13:20:35.796,9.176,-0.37,0.73,1.49,-41.14,-10.07,213.75
349,2026-08-03 13:20:35.796,9.176,-0.52,0.6,1.3,-50.29,-39.98,226.62
350,2026-08-03 13:20:35.925,9.305,-0.52,0.6,1.3,-50.29,-39.98,226.62
351,2026-08-03 13:20:35.928,9.308,-0.6,0.41,1.17,-51.76,-60.06,225.89
352,2026-08-03 13:20:35.928,9.308,-0.61,0.19,1.17,-75.38,-62.07,210.08
353,2026-08-03 13:20:35.929,9.309,-0.57,0.02,1.06,-86.79,-64.88,173.58
354,2026-08-03 13:20:35.972,9.352,-0.57,0.02,1.06,-86.79,-64.88,173.58
355,2026-08-03 13:20:35.972,9.352,-0.48,-0.05,0.77,-60.18,-82.89,121.77
356,2026-08-03 13:20:36.031,9.411,-0.37,-0.08,0.49,-19.71,-99.67,74.4
357,2026-08-03 13:20:36.032,9.412,-0.27,-0.11,0.37,-0.18,-94.36,39.31
358,2026-08-03 13:20:36.097,9.477,-0.27,-0.11,0.37,-0.18,-94.36,39.31
359,2026-08-03 13:20:36.097,9.477,-0.25,-0.14,0.41,-6.29,-70.25,8.54
360,2026-08-03 13:20:36.151,9.531,-0.27,-0.16,0.58,-22.22,-35.22,-24.41
361,2026-08-03 13:20:36.152,9.532,-0.27,-0.16,0.58,-22.22,-35.22,-24.41
362,2026-08-03 13:20:36.394,9.774,-0.28,-0.16,0.79,-29.05,3.85,-56.82
363,2026-08-03 13:20:36.396,9.776,-0.28,-0.16,0.79,-29.05,3.85,-56.82
364,2026-08-03 13:20:36.396,9.776,-0.24,-0.13,0.89,-6.84,30.94,-86.79
365,2026-08-03 13:20:36.396,9.776,-0.17,-0.05,0.95,40.59,46.02,-114.56
366,2026-08-03 13:20:36.397,9.777,-0.17,-0.05,0.95,40.59,46.02,-114.56
367,2026-08-03 13:20:36.397,9.777,-0.12,0.04,1.18,78.98,69.21,-124.21
368,2026-08-03 13:20:36.397,9.777,-0.05,0.09,1.46,87.16,92.22,-106.14
369,2026-08-03 13:20:36.398,9.778,0.0,0.11,1.47,80.75,81.36,-80.75
370,2026-08-03 13:20:36.399,9.779,0.0,0.11,1.47,69.7,42.36,-61.04
371,2026-08-03 13:20:36.452,9.832,0.0,0.08,1.3,69.7,42.36,-61.04
372,2026-08-03 13:20:36.453,9.833,-0.03,0.04,1.18,58.65,5.62,-46.14
373,2026-08-03 13:20:36.511,9.891,-0.03,0.04,1.18,58.65,5.62,-46.14
374,2026-08-03 13:20:36.572,9.952,-0.01,0.1,1.03,80.44,-14.1,-40.1
375,2026-08-03 13:20:36.572,9.952,0.04,0.22,0.84,112.61,-24.54,-47.85
376,2026-08-03 13:20:36.572,9.952,0.07,0.33,0.73,102.6,-38.76,-60.61
377,2026-08-03 13:20:36.573,9.953,0.07,0.33,0.73,102.6,-38.76,-60.61
378,2026-08-03 13:20:36.692,10.072,0.12,0.42,0.71,73.0,-51.09,-57.98
379,2026-08-03 13:20:36.694,10.074,0.19,0.47,0.75,52.43,-58.04,-39.92
380,2026-08-03 13:20:36.835,10.215,0.22,0.55,0.84,30.03,-63.9,-27.89
381,2026-08-03 13:20:36.836,10.216,0.24,0.62,0.93,-2.81,-73.97,-20.81
382,2026-08-03 13:20:36.836,10.216,0.27,0.56,0.97,-34.3,-83.44,-17.7
383,2026-08-03 13:20:36.931,10.311,0.27,0.56,0.97,-34.3,-83.44,-17.7
384,2026-08-03 13:20:36.931,10.311,0.25,0.4,0.98,-61.58,-80.99,-42.97
385,2026-08-03 13:20:36.932,10.312,0.25,0.4,0.98,-61.58,-80.99,-42.97
386,2026-08-03 13:20:36.932,10.312,0.18,0.27,1.03,-77.58,-66.16,-94.79
387,2026-08-03 13:20:36.932,10.312,0.18,0.27,1.03,-72.33,-54.81,-132.93
388,2026-08-03 13:20:36.933,10.313,0.06,0.27,1.19,-72.33,-54.81,-132.93
389,2026-08-03 13:20:36.934,10.314,-0.1,0.3,1.24,-65.49,-68.12,-119.51
390,2026-08-03 13:20:36.992,10.372,-0.21,0.16,1.05,-71.23,-101.26,-60.3
391,2026-08-03 13:20:37.007,10.387,-0.21,0.16,1.05,-71.23,-101.26,-60.3
392,2026-08-03 13:20:37.051,10.431,-0.22,-0.07,0.86,-71.84,-121.03,-9.83
393,2026-08-03 13:20:37.052,10.432,-0.22,-0.07,0.86,-68.3,-103.88,-17.64
394,2026-08-03 13:20:37.053,10.433,-0.15,-0.16,0.85,-68.3,-103.88,-17.64
395,2026-08-03 13:20:37.111,10.491,-0.06,-0.08,0.93,-84.11,-54.02,-67.69
396,2026-08-03 13:20:37.173,10.553,-0.01,0.01,1.01,-99.98,3.42,-112.12
397,2026-08-03 13:20:37.175,10.555,0.01,-0.0,1.06,-92.1,42.05,-132.02
398,2026-08-03 13:20:37.231,10.611,0.01,-0.0,1.06,-92.1,42.05,-132.02
399,2026-08-03 13:20:37.232,10.612,-0.02,-0.06,1.01,-57.43,53.83,-139.28
400,2026-08-03 13:20:37.301,10.681,-0.09,-0.07,0.88,-6.84,47.3,-154.97
401,2026-08-03 13:20:37.301,10.681,-0.19,-0.05,0.87,9.09,31.92,-186.28
402,2026-08-03 13:20:37.411,10.791,-0.19,-0.05,0.87,9.09,31.92,-186.28
403,2026-08-03 13:20:37.411,10.791,-0.29,-0.01,1.03,-37.84,21.12,-220.34
404,2026-08-03 13:20:37.421,10.801,-0.29,-0.01,1.03,-37.84,21.12,-220.34
405,2026-08-03 13:20:37.471,10.851,-0.38,0.06,1.2,-92.96,30.4,-247.01
406,2026-08-03 13:20:37.472,10.852,-0.41,0.15,1.19,-93.38,49.19,-266.42
407,2026-08-03 13:20:37.473,10.853,-0.35,0.22,1.01,-40.65,56.64,-273.86
408,2026-08-03 13:20:37.474,10.854,-0.35,0.22,1.01,-40.65,56.64,-273.86
409,2026-08-03 13:20:37.532,10.912,-0.24,0.29,0.88,21.91,52.06,-269.78
410,2026-08-03 13:20:37.532,10.912,-0.15,0.4,0.89,49.07,43.52,-255.98
411,2026-08-03 13:20:37.600,10.98,-0.08,0.47,1.01,31.62,32.84,-223.51
412,2026-08-03 13:20:37.605,10.985,-0.08,0.47,1.01,31.62,32.84,-223.51
413,2026-08-03 13:20:37.652,11.032,-0.03,0.45,1.13,7.2,17.94,-174.44
414,2026-08-03 13:20:37.653,11.033,-0.03,0.45,1.13,7.2,17.94,-174.44
415,2026-08-03 13:20:37.653,11.033,0.03,0.36,1.07,6.77,-4.09,-127.2
416,2026-08-03 13:20:37.711,11.091,0.03,0.36,1.07,6.77,-4.09,-127.2
417,2026-08-03 13:20:37.712,11.092,0.11,0.2,0.85,21.97,-26.92,-94.18
418,2026-08-03 13:20:37.712,11.092,0.11,0.2,0.85,39.73,-35.77,-83.31
419,2026-08-03 13:20:37.771,11.151,0.19,0.1,0.65,39.73,-35.77,-83.31
420,2026-08-03 13:20:37.772,11.152,0.22,0.17,0.61,50.72,-26.0,-93.14
421,2026-08-03 13:20:37.832,11.212,0.22,0.17,0.61,50.72,-26.0,-93.14
422,2026-08-03 13:20:37.833,11.213,0.21,0.3,0.77,40.59,-6.84,-102.54
423,2026-08-03 13:20:37.834,11.214,0.21,0.3,0.77,40.59,-6.84,-102.54
424,2026-08-03 13:20:37.893,11.273,0.19,0.35,1.13,13.0,16.48,-98.94
425,2026-08-03 13:20:37.897,11.277,0.19,0.35,1.13,13.0,16.48,-98.94
426,2026-08-03 13:20:38.013,11.393,0.17,0.3,1.41,-5.0,32.65,-77.7
427,2026-08-03 13:20:38.013,11.393,0.21,0.17,1.41,-3.6,25.21,-30.58
428,2026-08-03 13:20:38.014,11.394,0.24,0.13,1.27,-1.89,2.14,16.97
429,2026-08-03 13:20:38.014,11.394,0.15,0.27,1.18,-11.47,-15.81,36.99
430,2026-08-03 13:20:38.071,11.451,0.15,0.27,1.18,-11.47,-15.81,36.99
431,2026-08-03 13:20:38.072,11.452,0.03,0.43,1.14,-26.73,-25.76,42.72
432,2026-08-03 13:20:38.192,11.572,-0.03,0.45,1.08,-36.87,-38.21,57.98
433,2026-08-03 13:20:38.192,11.572,-0.02,0.34,1.03,-35.46,-57.07,85.08
434,2026-08-03 13:20:38.192,11.572,0.02,0.23,0.95,-23.01,-80.26,106.02
435,2026-08-03 13:20:38.193,11.573,0.02,0.23,0.95,-23.01,-80.26,106.02
436,2026-08-03 13:20:38.252,11.632,0.07,0.16,0.81,-0.55,-98.39,109.07
437,2026-08-03 13:20:38.329,11.709,0.13,0.13,0.72,22.52,-94.06,96.25
438,2026-08-03 13:20:38.329,11.709,0.13,0.13,0.72,29.3,-65.86,74.16
439,2026-08-03 13:20:38.329,11.709,0.18,0.14,0.72,29.3,-65.86,74.16
440,2026-08-03 13:20:38.431,11.811,0.2,0.17,0.8,19.96,-27.77,48.1
441,2026-08-03 13:20:38.432,11.812,0.2,0.17,0.8,19.96,-27.77,48.1
442,2026-08-03 13:20:38.432,11.812,0.17,0.21,0.91,6.53,7.81,22.09
443,2026-08-03 13:20:38.433,11.813,0.11,0.22,0.97,-1.28,26.67,6.16
444,2026-08-03 13:20:38.494,11.874,0.02,0.18,0.95,8.18,29.05,3.72
445,2026-08-03 13:20:38.495,11.875,-0.06,0.11,0.85,36.25,34.06,7.39
446,2026-08-03 13:20:38.552,11.932,-0.06,0.11,0.85,36.25,34.06,7.39
447,2026-08-03 13:20:38.552,11.932,-0.1,0.08,0.79,57.43,47.42,4.76
448,2026-08-03 13:20:38.553,11.933,-0.1,0.08,0.79,57.43,47.42,4.76
449,2026-08-03 13:20:38.615,11.995,-0.11,0.15,0.88,55.79,63.84,-17.33
450,2026-08-03 13:20:38.616,11.996,-0.11,0.15,0.88,55.79,63.84,-17.33
451,2026-08-03 13:20:38.732,12.112,-0.12,0.31,1.14,44.07,84.53,-53.04
452,2026-08-03 13:20:38.732,12.112,-0.08,0.48,1.37,32.47,95.95,-82.15
453,2026-08-03 13:20:38.733,12.113,-0.05,0.5,1.32,22.77,72.69,-85.45
454,2026-08-03 13:20:38.733,12.113,-0.05,0.34,1.06,15.32,20.08,-56.88
455,2026-08-03 13:20:38.855,12.235,-0.05,0.34,1.06,15.32,20.08,-56.88
456,2026-08-03 13:20:38.855,12.235,-0.07,0.1,0.82,9.95,-27.4,-20.26
457,2026-08-03 13:20:38.856,12.236,-0.07,-0.04,0.76,4.09,-44.68,-13.43
458,2026-08-03 13:20:38.857,12.237,-0.03,0.03,0.82,-2.69,-38.76,-47.55
459,2026-08-03 13:20:38.977,12.357,-0.03,0.03,0.82,-2.69,-38.76,-47.55
460,2026-08-03 13:20:38.977,12.357,0.02,0.21,0.82,0.18,-36.99,-90.09
461,2026-08-03 13:20:38.978,12.358,0.02,0.21,0.82,0.18,-36.99,-90.09
462,2026-08-03 13:20:39.031,12.411,0.06,0.33,0.72,11.6,-46.33,-98.02
463,2026-08-03 13:20:39.032,12.412,0.06,0.33,0.72,11.6,-46.33,-98.02
464,2026-08-03 13:20:39.032,12.412,0.14,0.36,0.73,2.81,-46.75,-72.69
465,2026-08-03 13:20:39.033,12.413,0.2,0.39,0.85,-16.36,-30.09,-57.56
466,2026-08-03 13:20:39.152,12.532,0.23,0.48,0.92,-12.7,-11.72,-59.08
467,2026-08-03 13:20:39.153,12.533,0.23,0.48,0.92,-12.7,-11.72,-59.08
468,2026-08-03 13:20:39.153,12.533,0.25,0.54,0.93,1.89,-0.43,-43.27
469,2026-08-03 13:20:39.154,12.534,0.25,0.54,0.93,1.89,-0.43,-43.27
470,2026-08-03 13:20:39.155,12.535,0.24,0.54,1.01,2.32,10.68,-7.57
471,2026-08-03 13:20:39.272,12.652,0.24,0.54,1.01,2.32,10.68,-7.57
472,2026-08-03 13:20:39.273,12.653,0.2,0.53,1.18,-16.36,23.99,26.67
473,2026-08-03 13:20:39.273,12.653,0.17,0.5,1.33,-38.45,26.73,46.75
474,2026-08-03 13:20:39.276,12.656,0.17,0.5,1.33,-38.45,26.73,46.75
475,2026-08-03 13:20:39.276,12.656,0.15,0.46,1.33,-42.91,11.96,55.36
476,2026-08-03 13:20:39.332,12.712,0.07,0.44,1.16,-30.94,-5.8,72.69
477,2026-08-03 13:20:39.391,12.771,0.07,0.44,1.16,-30.94,-5.8,72.69
478,2026-08-03 13:20:39.391,12.771,-0.04,0.37,1.05,-34.73,-15.5,107.42
479,2026-08-03 13:20:39.391,12.771,-0.04,0.37,1.05,-67.69,-20.94,138.73
480,2026-08-03 13:20:39.393,12.773,-0.12,0.25,1.15,-67.69,-20.94,138.73
481,2026-08-03 13:20:39.512,12.892,-0.15,0.15,1.25,-99.85,-31.98,144.71
482,2026-08-03 13:20:39.513,12.893,-0.15,0.1,1.14,-87.16,-52.67,124.69
483,2026-08-03 13:20:39.515,12.895,-0.15,0.1,1.14,-87.16,-52.67,124.69
484,2026-08-03 13:20:39.515,12.895,-0.14,0.08,0.84,-17.09,-76.05,89.54
485,2026-08-03 13:20:39.572,12.952,-0.14,0.08,0.84,-17.09,-76.05,89.54
486,2026-08-03 13:20:39.572,12.952,-0.15,0.09,0.53,58.41,-85.39,58.11
487,2026-08-03 13:20:39.633,13.013,-0.14,0.08,0.38,79.35,-65.25,46.94
488,2026-08-03 13:20:39.634,13.014,-0.14,0.08,0.38,79.35,-65.25,46.94
489,2026-08-03 13:20:39.634,13.014,-0.11,0.03,0.4,57.74,-23.44,42.97
490,2026-08-03 13:20:39.692,13.072,-0.11,0.03,0.4,57.74,-23.44,42.97
491,2026-08-03 13:20:39.693,13.073,-0.1,0.02,0.52,49.07,18.8,13.12
492,2026-08-03 13:20:39.759,13.139,-0.13,0.14,0.73,62.44,57.68,-34.73
493,2026-08-03 13:20:39.759,13.139,-0.16,0.33,0.95,72.39,92.47,-65.06
494,2026-08-03 13:20:39.811,13.191,-0.19,0.5,1.14,78.61,109.99,-75.56
495,2026-08-03 13:20:39.812,13.192,-0.19,0.5,1.14,78.61,109.99,-75.56
496,2026-08-03 13:20:39.871,13.251,-0.21,0.6,1.33,70.74,107.97,-80.69
497,2026-08-03 13:20:39.872,13.252,-0.21,0.6,1.33,70.74,107.97,-80.69
498,2026-08-03 13:20:39.872,13.252,-0.19,0.6,1.42,38.82,87.52,-81.3
499,2026-08-03 13:20:39.934,13.314,-0.12,0.44,1.26,5.92,45.17,-65.43
500,2026-08-03 13:20:39.992,13.372,-0.08,0.17,0.97,-33.08,-5.86,-29.3
501,2026-08-03 13:20:39.992,13.372,-0.11,-0.1,0.83,-86.12,-31.62,5.74
502,2026-08-03 13:20:40.057,13.437,-0.11,-0.1,0.83,-86.12,-31.62,5.74
503,2026-08-03 13:20:40.057,13.437,-0.18,-0.23,0.94,-111.33,-9.58,8.0
504,2026-08-03 13:20:40.112,13.492,-0.24,-0.17,1.09,-84.47,27.1,-25.02
505,2026-08-03 13:20:40.112,13.492,-0.22,-0.03,1.0,-15.93,18.01,-54.44
506,2026-08-03 13:20:40.184,13.564,-0.1,0.08,0.75,60.36,-28.81,-57.25
507,2026-08-03 13:20:40.232,13.612,0.01,0.13,0.62,84.72,-56.64,-59.2
508,2026-08-03 13:20:40.234,13.614,0.01,0.13,0.62,84.72,-56.64,-59.2
509,2026-08-03 13:20:40.235,13.615,0.06,0.21,0.68,50.84,-48.22,-78.98
510,2026-08-03 13:20:40.292,13.672,0.1,0.33,0.81,18.49,-23.19,-102.23
511,2026-08-03 13:20:40.293,13.673,0.1,0.33,0.81,18.49,-23.19,-102.23
512,2026-08-03 13:20:40.360,13.74,0.16,0.45,0.91,17.15,0.0,-109.5
513,2026-08-03 13:20:40.361,13.741,0.16,0.45,0.91,17.15,0.0,-109.5
514,2026-08-03 13:20:40.361,13.741,0.25,0.56,0.93,34.97,12.94,-89.97
515,2026-08-03 13:20:40.411,13.791,0.25,0.56,0.93,34.97,12.94,-89.97
516,2026-08-03 13:20:40.413,13.793,0.31,0.69,0.94,50.9,22.16,-47.18
517,2026-08-03 13:20:40.414,13.794,0.31,0.69,0.94,38.94,41.44,2.2
518,2026-08-03 13:20:40.485,13.865,0.24,0.88,1.1,38.94,41.44,2.2
519,2026-08-03 13:20:40.486,13.866,-0.05,1.09,1.38,-3.85,65.12,50.42
520,2026-08-03 13:20:40.532,13.912,-0.05,1.09,1.38,-3.85,65.12,50.42
521,2026-08-03 13:20:40.533,13.913,-0.39,1.12,1.42,-44.74,67.26,106.99
522,2026-08-03 13:20:40.592,13.972,-0.59,0.9,1.05,-47.49,37.96,172.55
523,2026-08-03 13:20:40.592,13.972,-0.67,0.64,0.73,-35.95,14.1,223.33
524,2026-08-03 13:20:40.652,14.032,-0.67,0.64,0.73,-35.95,14.1,223.33
525,2026-08-03 13:20:40.653,14.033,-0.65,0.41,0.73,-59.08,18.92,237.85
526,2026-08-03 13:20:40.654,14.034,-0.65,0.41,0.73,-59.08,18.92,237.85
527,2026-08-03 13:20:40.712,14.092,-0.53,0.27,0.78,-88.75,14.47,210.08
528,2026-08-03 13:20:40.712,14.092,-0.41,0.25,0.75,-80.93,-21.67,154.85
529,2026-08-03 13:20:40.780,14.16,-0.34,0.28,0.75,-50.05,-75.93,100.65
530,2026-08-03 13:20:40.781,14.161,-0.34,0.28,0.75,-50.05,-75.93,100.65
531,2026-08-03 13:20:40.834,14.214,-0.29,0.28,0.8,-20.75,-116.58,65.25
532,2026-08-03 13:20:40.834,14.214,-0.24,0.24,0.82,-5.62,-99.18,52.25
533,2026-08-03 13:20:40.893,14.273,-0.24,0.24,0.82,-5.62,-99.18,52.25
534,2026-08-03 13:20:40.894,14.274,-0.24,0.24,0.82,-5.62,-99.18,52.25
535,2026-08-03 13:20:40.952,14.332,-0.11,0.09,0.66,9.03,3.11,15.01
536,2026-08-03 13:20:40.952,14.332,-0.11,0.09,0.66,18.43,28.5,-16.48
537,2026-08-03 13:20:41.072,14.452,-0.03,0.1,0.63,18.43,28.5,-16.48
538,2026-08-03 13:20:41.072,14.452,0.06,0.13,0.72,15.2,47.61,-35.58
539,2026-08-03 13:20:41.074,14.454,0.06,0.13,0.72,15.2,47.61,-35.58
540,2026-08-03 13:20:41.074,14.454,0.16,0.19,0.93,6.41,64.94,-45.23
541,2026-08-03 13:20:41.084,14.464,0.24,0.28,1.23,2.08,80.81,-53.83
542,2026-08-03 13:20:41.133,14.513,0.24,0.28,1.23,2.08,80.81,-53.83
543,2026-08-03 13:20:41.201,14.581,0.24,0.38,1.55,2.81,95.7,-60.42
544,2026-08-03 13:20:41.251,14.631,0.13,0.4,1.66,14.1,101.75,-61.58
545,2026-08-03 13:20:41.252,14.632,0.13,0.4,1.66,14.1,101.75,-61.58
546,2026-08-03 13:20:41.252,14.632,-0.03,0.42,1.62,19.71,95.89,-56.52
547,2026-08-03 13:20:41.253,14.633,-0.19,0.51,1.46,4.94,77.03,-42.3
548,2026-08-03 13:20:41.312,14.692,-0.36,0.52,1.08,-8.36,39.79,-8.85
549,2026-08-03 13:20:41.433,14.813,-0.52,0.36,0.63,-2.14,-1.46,40.71
550,2026-08-03 13:20:41.433,14.813,-0.58,0.15,0.46,2.75,-16.24,83.31
551,2026-08-03 13:20:41.434,14.814,-0.58,0.15,0.46,2.75,-16.24,83.31
552,2026-08-03 13:20:41.434,14.814,-0.49,0.08,0.65,-18.92,3.17,92.53
553,2026-08-03 13:20:41.434,14.814,-0.31,0.22,0.89,-43.88,27.65,61.34
554,2026-08-03 13:20:41.500,14.88,-0.31,0.22,0.89,-43.88,27.65,61.34
555,2026-08-03 13:20:41.500,14.88,-0.14,0.42,0.95,-34.97,33.39,21.85
556,2026-08-03 13:20:41.552,14.932,-0.14,0.42,0.95,-10.68,30.64,13.24
557,2026-08-03 13:20:41.552,14.932,-0.05,0.46,0.85,-10.68,30.64,13.24
558,2026-08-03 13:20:41.553,14.933,-0.04,0.35,0.68,-2.44,34.3,34.61
559,2026-08-03 13:20:41.622,15.002,-0.04,0.35,0.68,-2.44,34.3,34.61
560,2026-08-03 13:20:41.622,15.002,-0.09,0.23,0.54,-7.14,42.24,68.54
561,2026-08-03 13:20:41.734,15.114,-0.14,0.16,0.49,-19.17,42.42,108.52
562,2026-08-03 13:20:41.735,15.115,-0.19,0.15,0.55,-34.06,33.33,130.43
563,2026-08-03 13:20:41.735,15.115,-0.27,0.25,0.74,-42.66,31.8,121.77
564,2026-08-03 13:20:41.794,15.174,-0.35,0.44,1.04,-47.06,39.31,104.61
565,2026-08-03 13:20:41.795,15.175,-0.35,0.44,1.04,-47.06,39.31,104.61
566,2026-08-03 13:20:41.851,15.231,-0.4,0.59,1.26,-39.06,35.89,91.74
567,2026-08-03 13:20:41.852,15.232,-0.4,0.59,1.26,-39.06,35.89,91.74
568,2026-08-03 13:20:41.852,15.232,-0.4,0.65,1.26,-0.92,16.24,86.0
569,2026-08-03 13:20:41.913,15.293,-0.38,0.73,1.21,39.18,0.73,89.84
570,2026-08-03 13:20:41.914,15.294,-0.38,0.73,1.21,39.18,0.73,89.84
571,2026-08-03 13:20:41.914,15.294,-0.4,0.78,1.21,37.35,2.32,109.07
572,2026-08-03 13:20:41.981,15.361,-0.4,0.78,1.21,37.35,2.32,109.07
573,2026-08-03 13:20:41.981,15.361,-0.42,0.66,1.08,7.14,4.15,138.85
574,2026-08-03 13:20:41.982,15.362,-0.42,0.66,1.08,7.14,4.15,138.85
575,2026-08-03 13:20:42.031,15.411,-0.37,0.54,0.77,-13.61,-13.49,149.23
576,2026-08-03 13:20:42.032,15.412,-0.37,0.54,0.77,-13.61,-13.49,149.23
577,2026-08-03 13:20:42.092,15.472,-0.27,0.56,0.53,-30.76,-25.76,126.04
578,2026-08-03 13:20:42.092,15.472,-0.2,0.63,0.57,-50.48,1.59,90.09
579,2026-08-03 13:20:42.093,15.473,-0.2,0.63,0.57,-50.48,1.59,90.09
580,2026-08-03 13:20:42.151,15.531,-0.18,0.68,0.74,-49.56,44.25,65.37
581,2026-08-03 13:20:42.152,15.532,-0.18,0.68,0.74,-49.56,44.25,65.37
582,2026-08-03 13:20:42.219,15.599,-0.19,0.64,0.79,-36.07,58.04,63.17
583,2026-08-03 13:20:42.220,15.6,-0.19,0.64,0.79,-36.07,58.04,63.17
584,2026-08-03 13:20:42.221,15.601,-0.18,0.55,0.66,-27.04,43.03,78.31
585,2026-08-03 13:20:42.332,15.712,-0.15,0.46,0.54,-30.76,29.48,95.4
586,2026-08-03 13:20:42.333,15.713,-0.12,0.39,0.55,-47.12,29.91,109.44
587,2026-08-03 13:20:42.334,15.714,-0.1,0.3,0.64,-57.01,31.01,119.02
588,2026-08-03 13:20:42.392,15.772,-0.1,0.3,0.64,-57.01,31.01,119.02
589,2026-08-03 13:20:42.392,15.772,-0.1,0.24,0.73,-59.69,20.51,115.36
590,2026-08-03 13:20:42.392,15.772,-0.09,0.19,0.83,-66.28,-11.6,91.49
591,2026-08-03 13:20:42.452,15.832,-0.09,0.19,0.83,-66.28,-11.6,91.49
592,2026-08-03 13:20:42.453,15.833,-0.07,0.12,0.93,-71.41,-55.54,52.31
593,2026-08-03 13:20:42.571,15.951,-0.04,0.09,1.12,-70.86,-76.29,10.8
594,2026-08-03 13:20:42.572,15.952,-0.02,0.13,1.36,-69.7,-59.2,-17.27
595,2026-08-03 13:20:42.572,15.952,-0.01,0.18,1.51,-61.1,-17.64,-23.93
596,2026-08-03 13:20:42.573,15.953,-0.01,0.18,1.51,-61.1,-17.64,-23.93
597,2026-08-03 13:20:42.640,16.02,0.02,0.21,1.55,-37.17,23.44,-27.1
598,2026-08-03 13:20:42.641,16.021,0.02,0.21,1.55,-37.17,23.44,-27.1
599,2026-08-03 13:20:42.695,16.075,0.04,0.26,1.49,-9.16,39.86,-36.38
600,2026-08-03 13:20:42.696,16.076,0.04,0.26,1.49,-9.16,39.86,-36.38
601,2026-08-03 13:20:42.700,16.08,0.0,0.23,1.26,10.8,26.61,-32.1
602,2026-08-03 13:20:42.751,16.131,-0.11,0.1,0.89,26.0,0.67,-3.42
603,2026-08-03 13:20:42.752,16.132,-0.11,0.1,0.89,26.0,0.67,-3.42
604,2026-08-03 13:20:42.812,16.192,-0.22,-0.02,0.64,30.15,-14.22,44.92
605,2026-08-03 13:20:42.813,16.193,-0.24,-0.07,0.65,20.87,1.95,85.94
606,2026-08-03 13:20:42.871,16.251,-0.24,-0.07,0.65,20.87,1.95,85.94
607,2026-08-03 13:20:42.872,16.252,-0.2,-0.04,0.76,16.6,40.89,83.01
608,2026-08-03 13:20:42.872,16.252,-0.2,-0.04,0.76,21.61,64.45,44.49
609,2026-08-03 13:20:42.936,16.316,-0.16,0.04,0.84,21.61,64.45,44.49
610,2026-08-03 13:20:42.936,16.316,-0.1,0.13,0.9,18.19,55.6,8.61
611,2026-08-03 13:20:42.992,16.372,-0.1,0.13,0.9,18.19,55.6,8.61
612,2026-08-03 13:20:42.992,16.372,-0.05,0.2,0.92,7.45,31.37,-4.58
613,2026-08-03 13:20:42.993,16.373,-0.05,0.2,0.92,7.45,31.37,-4.58
614,2026-08-03 13:20:43.052,16.432,-0.02,0.19,0.84,5.55,8.73,5.55
615,2026-08-03 13:20:43.111,16.491,-0.02,0.14,0.7,10.44,-6.96,27.77
616,2026-08-03 13:20:43.112,16.492,-0.02,0.14,0.7,10.44,-6.96,27.77
617,2026-08-03 13:20:43.294,16.674,-0.02,0.14,0.7,10.44,-6.96,27.77
618,2026-08-03 13:20:43.294,16.674,0.03,0.11,0.61,-8.3,-2.69,58.41
619,2026-08-03 13:20:43.295,16.675,0.03,0.11,0.61,-8.3,-2.69,58.41
620,2026-08-03 13:20:43.295,16.675,0.06,0.16,0.68,-26.06,7.63,54.87
621,2026-08-03 13:20:43.295,16.675,0.09,0.24,0.79,-34.55,18.01,47.12
622,2026-08-03 13:20:43.296,16.676,0.11,0.3,0.92,-34.61,29.05,51.21
623,2026-08-03 13:20:43.296,16.676,0.1,0.32,1.03,-24.35,33.94,72.27
624,2026-08-03 13:20:43.353,16.733,0.1,0.32,1.03,-24.35,33.94,72.27
625,2026-08-03 13:20:43.353,16.733,0.03,0.28,1.13,-10.19,30.03,105.22
626,2026-08-03 13:20:43.412,16.792,-0.05,0.17,1.24,-4.58,22.28,140.2
627,2026-08-03 13:20:43.413,16.793,-0.05,0.17,1.24,-4.58,22.28,140.2
628,2026-08-03 13:20:43.413,16.793,-0.13,0.08,1.3,-0.37,15.62,159.97
629,2026-08-03 13:20:43.472,16.852,-0.13,0.08,1.3,-0.37,15.62,159.97
630,2026-08-03 13:20:43.478,16.858,-0.21,0.14,1.3,10.5,17.88,156.13
631,2026-08-03 13:20:43.479,16.859,-0.21,0.14,1.3,10.5,17.88,156.13
632,2026-08-03 13:20:43.531,16.911,-0.28,0.3,1.28,13.37,30.46,147.58
633,2026-08-03 13:20:43.532,16.912,-0.28,0.3,1.28,13.37,30.46,147.58
634,2026-08-03 13:20:43.532,16.912,-0.32,0.37,1.18,0.85,34.06,148.62
635,2026-08-03 13:20:43.651,17.031,-0.32,0.39,1.01,-17.15,20.75,135.74
636,2026-08-03 13:20:43.652,17.032,-0.32,0.39,1.01,-17.15,20.75,135.74
637,2026-08-03 13:20:43.652,17.032,-0.27,0.52,0.91,-38.45,6.53,94.6
638,2026-08-03 13:20:43.652,17.032,-0.2,0.64,0.91,-57.19,-2.87,51.27
639,2026-08-03 13:20:43.775,17.155,-0.2,0.64,0.91,-57.19,-2.87,51.27
640,2026-08-03 13:20:43.776,17.156,-0.15,0.64,0.95,-57.86,-12.15,25.63
641,2026-08-03 13:20:43.776,17.156,-0.12,0.55,0.91,-37.9,-21.61,14.65
642,2026-08-03 13:20:43.777,17.157,-0.12,0.55,0.91,-37.9,-21.61,14.65
643,2026-08-03 13:20:43.777,17.157,-0.1,0.45,0.83,-15.87,-25.02,18.86
644,2026-08-03 13:20:43.894,17.274,-0.1,0.45,0.83,-15.87,-25.02,18.86
645,2026-08-03 13:20:43.895,17.275,-0.06,0.35,0.76,-6.9,-17.15,39.73
646,2026-08-03 13:20:43.896,17.276,-0.04,0.25,0.74,-8.0,-3.91,67.5
647,2026-08-03 13:20:43.896,17.276,-0.03,0.14,0.79,-21.79,6.84,94.79
648,2026-08-03 13:20:43.951,17.331,-0.01,0.04,0.88,-42.85,8.97,119.38
649,2026-08-03 13:20:43.952,17.332,-0.01,0.04,0.88,-42.85,8.97,119.38
650,2026-08-03 13:20:44.011,17.391,0.01,-0.04,0.94,-47.42,0.98,131.59
651,2026-08-03 13:20:44.012,17.392,0.01,-0.04,0.94,-47.42,0.98,131.59
652,2026-08-03 13:20:44.012,17.392,-0.0,-0.09,0.97,-38.09,-4.27,124.94
653,2026-08-03 13:20:44.072,17.452,-0.0,-0.09,0.97,-38.09,-4.27,124.94
654,2026-08-03 13:20:44.072,17.452,-0.05,-0.13,1.03,-36.44,2.26,103.27
655,2026-08-03 13:20:44.137,17.517,-0.11,-0.16,1.11,-44.19,7.87,72.45
656,2026-08-03 13:20:44.138,17.518,-0.11,-0.16,1.11,-44.19,7.87,72.45
657,2026-08-03 13:20:44.139,17.519,-0.18,-0.16,1.15,-47.18,3.6,33.81
658,2026-08-03 13:20:44.251,17.631,-0.18,-0.16,1.15,-47.18,3.6,33.81
659,2026-08-03 13:20:44.312,17.692,-0.25,-0.1,1.11,-33.69,-4.88,-9.09
660,2026-08-03 13:20:44.313,17.693,-0.25,-0.1,1.11,-33.69,-4.88,-9.09
661,2026-08-03 13:20:44.314,17.694,-0.23,0.06,1.08,-1.22,-10.38,-41.69
662,2026-08-03 13:20:44.315,17.695,-0.1,0.27,1.08,29.42,-5.98,-48.34
663,2026-08-03 13:20:44.315,17.695,-0.1,0.27,1.08,41.75,-11.78,-20.32
664,2026-08-03 13:20:44.317,17.697,-0.01,0.3,0.92,41.75,-11.78,-20.32
665,2026-08-03 13:20:44.374,17.754,-0.04,0.12,0.57,47.97,-34.61,25.09
666,2026-08-03 13:20:44.375,17.755,-0.04,0.12,0.57,47.97,-34.61,25.09
667,2026-08-03 13:20:44.375,17.755,-0.1,0.01,0.39,45.29,-31.92,43.03
668,2026-08-03 13:20:44.432,17.812,-0.1,0.01,0.39,45.29,-31.92,43.03
669,2026-08-03 13:20:44.434,17.814,-0.11,0.09,0.6,10.07,8.79,40.28
670,2026-08-03 13:20:44.492,17.872,-0.03,0.17,0.96,-48.46,49.93,60.18
671,2026-08-03 13:20:44.493,17.873,0.01,0.14,1.09,-72.45,54.32,107.12
672,2026-08-03 13:20:44.552,17.932,0.01,0.14,1.09,-72.45,54.32,107.12
673,2026-08-03 13:20:44.553,17.933,-0.04,0.07,0.99,-33.81,25.88,163.51
674,2026-08-03 13:20:44.627,18.007,-0.09,0.04,0.85,22.34,-4.39,205.87
675,2026-08-03 13:20:44.627,18.007,-0.1,0.11,0.79,59.39,-23.07,221.98
676,2026-08-03 13:20:44.671,18.051,-0.1,0.11,0.79,59.39,-23.07,221.98
677,2026-08-03 13:20:44.672,18.052,-0.08,0.24,0.82,92.9,-41.38,208.86
678,2026-08-03 13:20:44.673,18.053,-0.08,0.24,0.82,92.9,-41.38,208.86
679,2026-08-03 13:20:44.732,18.112,-0.04,0.33,0.85,118.84,-43.64,178.28
680,2026-08-03 13:20:44.735,18.115,-0.04,0.33,0.85,118.84,-43.64,178.28
681,2026-08-03 13:20:44.791,18.171,-0.02,0.42,0.87,118.35,-19.71,154.48
682,2026-08-03 13:20:44.792,18.172,0.04,0.54,0.93,106.87,17.7,126.46
683,2026-08-03 13:20:44.853,18.233,0.06,0.61,1.0,119.45,57.01,68.24
684,2026-08-03 13:20:44.913,18.293,0.06,0.62,1.1,107.48,80.63,18.19
685,2026-08-03 13:20:44.913,18.293,0.07,0.7,1.16,12.33,84.23,10.99
686,2026-08-03 13:20:44.972,18.352,0.05,0.78,1.06,-78.67,57.43,13.18
687,2026-08-03 13:20:44.973,18.353,-0.04,0.76,0.79,-66.89,7.93,-2.81
688,2026-08-03 13:20:45.214,18.594,-0.04,0.76,0.79,-66.89,7.93,-2.81
689,2026-08-03 13:20:45.214,18.594,-0.1,0.63,0.56,17.46,-27.95,-25.82
690,2026-08-03 13:20:45.215,18.595,-0.1,0.51,0.5,83.8,-29.85,-33.75
691,2026-08-03 13:20:45.271,18.651,-0.1,0.51,0.5,83.8,-29.85,-33.75
692,2026-08-03 13:20:45.271,18.651,-0.09,0.45,0.56,95.09,-11.9,-26.06
693,2026-08-03 13:20:45.273,18.653,-0.07,0.44,0.66,68.85,0.85,-15.44
694,2026-08-03 13:20:45.284,18.664,-0.07,0.44,0.66,68.85,0.85,-15.44
695,2026-08-03 13:20:45.284,18.664,-0.06,0.45,0.73,33.75,-6.84,-10.38
696,2026-08-03 13:20:45.285,18.665,-0.06,0.45,0.73,33.75,-6.84,-10.38
697,2026-08-03 13:20:45.285,18.665,-0.03,0.49,0.8,8.67,-27.04,-11.84
698,2026-08-03 13:20:45.286,18.666,-0.03,0.49,0.8,8.67,-27.04,-11.84
699,2026-08-03 13:20:45.286,18.666,-0.0,0.54,0.86,-5.49,-27.16,-4.88
700,2026-08-03 13:20:45.332,18.712,-0.0,0.54,0.86,-12.45,-4.27,10.44
701,2026-08-03 13:20:45.332,18.712,-0.04,0.56,0.9,-12.45,-4.27,10.44
702,2026-08-03 13:20:45.334,18.714,-0.09,0.53,0.92,-18.62,9.64,11.78
703,2026-08-03 13:20:45.451,18.831,-0.09,0.53,0.92,-18.62,9.64,11.78
704,2026-08-03 13:20:45.453,18.833,-0.08,0.51,0.89,-29.72,5.49,-0.06
705,2026-08-03 13:20:45.453,18.833,-0.04,0.47,0.81,-40.1,-3.11,-2.38
706,2026-08-03 13:20:45.454,18.834,-0.04,0.47,0.81,-40.1,-3.11,-2.38
707,2026-08-03 13:20:45.512,18.892,-0.01,0.38,0.75,-62.44,-3.36,23.25
708,2026-08-03 13:20:45.513,18.893,-0.01,0.38,0.75,-100.4,2.38,56.4
709,2026-08-03 13:20:45.513,18.893,0.04,0.32,0.82,-100.4,2.38,56.4
710,2026-08-03 13:20:45.814,19.194,0.07,0.33,0.95,-111.15,-0.24,56.95
711,2026-08-03 13:20:45.815,19.195,0.05,0.36,1.01,-85.45,-13.31,39.92
712,2026-08-03 13:20:45.815,19.195,0.02,0.34,1.06,-65.92,-21.12,43.33
713,2026-08-03 13:20:45.816,19.196,0.02,0.34,1.06,-65.92,-21.12,43.33
714,2026-08-03 13:20:45.816,19.196,-0.01,0.25,1.1,-60.42,-20.26,59.14
715,2026-08-03 13:20:45.818,19.198,-0.04,0.16,1.08,-43.76,-19.47,62.44
716,2026-08-03 13:20:45.819,19.199,-0.04,0.16,1.08,-43.76,-19.47,62.44
717,2026-08-03 13:20:45.821,19.201,-0.07,0.08,1.15,-14.47,-7.32,47.3
718,2026-08-03 13:20:45.821,19.201,-0.11,0.09,1.21,51.51,75.62,22.22
719,2026-08-03 13:20:45.992,19.372,-0.19,0.32,1.02,166.5,232.54,29.48
720,2026-08-03 13:20:45.993,19.373,-0.19,0.32,1.02,237.49,270.26,27.89
721,2026-08-03 13:20:45.995,19.375,-0.25,0.63,0.82,237.49,270.26,27.89
722,2026-08-03 13:20:45.995,19.375,-0.25,0.71,0.74,187.01,118.47,-18.01
723,2026-08-03 13:20:45.995,19.375,-0.18,0.57,0.7,51.94,-44.13,-30.33
724,2026-08-03 13:20:45.999,19.379,-0.14,0.33,0.86,-123.41,-110.96,-7.2
725,2026-08-03 13:20:46.112,19.492,-0.14,0.33,0.86,-123.41,-110.96,-7.2
726,2026-08-03 13:20:46.113,19.493,-0.18,0.07,1.08,-209.78,-105.16,-6.84
727,2026-08-03 13:20:46.113,19.493,-0.21,0.03,1.06,-117.8,-83.86,-38.21
728,2026-08-03 13:20:46.114,19.494,-0.21,0.03,1.06,-117.8,-83.86,-38.21
729,2026-08-03 13:20:46.114,19.494,-0.1,0.15,0.8,7.39,-70.86,-54.08
730,2026-08-03 13:20:46.172,19.552,-0.1,0.15,0.8,7.39,-70.86,-54.08
731,2026-08-03 13:20:46.173,19.553,-0.0,0.21,0.59,31.86,-50.96,-34.18
732,2026-08-03 13:20:46.232,19.612,-0.03,0.28,0.81,-19.1,-13.98,-8.85
733,2026-08-03 13:20:46.233,19.613,-0.06,0.42,1.32,-50.66,20.63,6.47
734,2026-08-03 13:20:46.481,19.861,-0.06,0.58,1.36,-23.8,20.51,17.76
735,2026-08-03 13:20:46.482,19.862,-0.06,0.58,1.36,-23.8,20.51,17.76
736,2026-08-03 13:20:46.484,19.864,-0.02,0.59,0.84,12.45,-0.73,31.8
737,2026-08-03 13:20:46.485,19.865,0.02,0.47,0.6,15.32,-3.72,50.6
738,2026-08-03 13:20:46.487,19.867,-0.02,0.32,0.86,0.12,8.06,61.04
739,2026-08-03 13:20:46.487,19.867,-0.12,0.17,1.06,-14.53,15.2,52.86
740,2026-08-03 13:20:46.488,19.868,-0.12,0.17,1.06,-14.53,15.2,52.86
741,2026-08-03 13:20:46.488,19.868,-0.2,0.15,1.02,-11.78,9.7,31.01
742,2026-08-03 13:20:46.532,19.912,-0.2,0.15,1.02,-11.78,9.7,31.01
743,2026-08-03 13:20:46.533,19.913,-0.18,0.23,0.99,3.11,-28.08,-18.86
744,2026-08-03 13:20:46.653,20.033,-0.09,0.26,1.01,13.43,-83.68,-88.68
745,2026-08-03 13:20:46.654,20.034,-0.09,0.26,1.01,13.43,-83.68,-88.68
746,2026-08-03 13:20:46.654,20.034,-0.03,0.28,1.01,20.57,-84.29,-104.25
747,2026-08-03 13:20:46.654,20.034,-0.0,0.32,0.99,22.4,-21.73,-49.07
748,2026-08-03 13:20:46.836,20.216,-0.02,0.32,0.96,9.89,45.96,23.13
749,2026-08-03 13:20:46.837,20.217,-0.02,0.32,0.96,9.89,45.96,23.13
750,2026-08-03 13:20:46.837,20.217,-0.07,0.3,0.92,-14.65,83.8,78.86
751,2026-08-03 13:20:46.838,20.218,-0.12,0.3,0.91,-27.77,77.21,89.36
752,2026-08-03 13:20:46.838,20.218,-0.12,0.32,0.94,-16.17,42.42,57.56
753,2026-08-03 13:20:46.839,20.219,-0.08,0.36,0.92,11.05,12.02,19.9
754,2026-08-03 13:20:46.892,20.272,-0.08,0.36,0.92,11.05,12.02,19.9
755,2026-08-03 13:20:46.893,20.273,-0.05,0.4,0.86,42.36,-2.32,-3.48
756,2026-08-03 13:20:47.134,20.514,-0.05,0.45,0.8,60.97,-0.85,-3.78
757,2026-08-03 13:20:47.134,20.514,-0.06,0.47,0.83,52.19,7.75,22.09
758,2026-08-03 13:20:47.135,20.515,-0.09,0.47,0.9,27.4,13.85,52.31
759,2026-08-03 13:20:47.136,20.516,-0.1,0.44,0.91,6.35,13.98,63.48
760,2026-08-03 13:20:47.136,20.516,-0.09,0.41,0.88,-6.04,11.84,59.39
761,2026-08-03 13:20:47.136,20.516,-0.09,0.41,0.88,-13.55,10.01,49.99
762,2026-08-03 13:20:47.137,20.517,-0.08,0.37,0.88,-13.55,10.01,49.99
763,2026-08-03 13:20:47.194,20.574,-0.08,0.36,0.9,-20.87,6.29,38.27
764,2026-08-03 13:20:47.194,20.574,-0.08,0.35,0.89,-25.45,1.34,25.88
765,2026-08-03 13:20:47.372,20.752,-0.08,0.35,0.89,-25.45,1.34,25.88
766,2026-08-03 13:20:47.373,20.753,-0.05,0.35,0.89,-20.26,-2.01,12.94
767,2026-08-03 13:20:47.373,20.753,-0.03,0.37,0.91,-9.34,-3.11,0.24
768,2026-08-03 13:20:47.374,20.754,-0.03,0.38,0.93,-1.65,-4.21,-9.52
769,2026-08-03 13:20:47.374,20.754,-0.05,0.39,0.93,1.16,-5.98,-18.19
770,2026-08-03 13:20:47.431,20.811,-0.06,0.41,0.92,3.11,-9.7,-27.59
771,2026-08-03 13:20:47.432,20.812,-0.06,0.41,0.92,3.11,-9.7,-27.59
772,2026-08-03 13:20:47.731,21.111,-0.05,0.44,0.9,7.93,-15.5,-31.56
773,2026-08-03 13:20:47.732,21.112,-0.03,0.45,0.92,11.78,-17.88,-26.12
774,2026-08-03 13:20:47.733,21.113,-0.01,0.42,0.93,10.8,-15.2,-14.4
775,2026-08-03 13:20:47.733,21.113,0.0,0.36,0.88,11.41,-15.2,-2.5
776,2026-08-03 13:20:47.734,21.114,0.0,0.36,0.88,11.41,-15.2,-2.5
777,2026-08-03 13:20:47.734,21.114,0.04,0.34,0.87,16.48,-17.76,0.67
778,2026-08-03 13:20:47.735,21.115,0.07,0.35,0.92,15.56,-13.31,-4.76
779,2026-08-03 13:20:47.736,21.116,0.05,0.34,0.97,5.07,1.4,-8.97
780,2026-08-03 13:20:47.736,21.116,-0.01,0.3,1.03,-3.66,19.47,-8.79
781,2026-08-03 13:20:47.737,21.117,-0.01,0.3,1.03,-3.66,19.47,-8.79
782,2026-08-03 13:20:47.971,21.351,-0.1,0.23,1.05,-3.05,28.63,-15.99
783,2026-08-03 13:20:47.972,21.352,-0.1,0.23,1.05,-3.05,28.63,-15.99
784,2026-08-03 13:20:47.972,21.352,-0.14,0.16,0.99,10.38,15.32,-41.75
785,2026-08-03 13:20:47.973,21.353,-0.14,0.16,0.99,10.38,15.32,-41.75
786,2026-08-03 13:20:47.974,21.354,-0.13,0.17,0.85,34.91,-11.66,-89.97
787,2026-08-03 13:20:47.975,21.355,-0.13,0.17,0.85,34.91,-11.66,-89.97
788,2026-08-03 13:20:47.975,21.355,-0.14,0.28,0.78,45.29,-21.85,-140.87
789,2026-08-03 13:20:47.975,21.355,-0.19,0.43,0.93,21.0,2.01,-157.65
790,2026-08-03 13:20:47.976,21.356,-0.3,0.54,1.19,-19.04,35.03,-140.5
791,2026-08-03 13:20:47.977,21.357,-0.3,0.54,1.19,-19.04,35.03,-140.5
792,2026-08-03 13:20:48.035,21.415,-0.39,0.6,1.31,-39.67,45.96,-100.59
793,2026-08-03 13:20:48.095,21.475,-0.41,0.66,1.28,-32.23,37.54,-45.35
794,2026-08-03 13:20:48.095,21.475,-0.35,0.71,1.18,-26.67,23.5,5.19
795,2026-08-03 13:20:48.164,21.544,-0.29,0.71,1.08,-35.03,17.33,32.04
796,2026-08-03 13:20:48.212,21.592,-0.28,0.69,1.01,-42.05,21.55,32.47
797,2026-08-03 13:20:48.213,21.593,-0.29,0.67,0.96,-40.47,23.38,28.87
798,2026-08-03 13:20:48.271,21.651,-0.29,0.67,0.96,-32.47,14.04,38.94
799,2026-08-03 13:20:48.272,21.652,-0.27,0.62,0.86,-32.47,14.04,38.94
800,2026-08-03 13:20:48.272,21.652,-0.25,0.54,0.79,-27.28,2.56,57.8
801,2026-08-03 13:20:48.333,21.713,-0.25,0.54,0.79,-27.28,2.56,57.8
802,2026-08-03 13:20:48.334,21.714,-0.24,0.46,0.76,-31.92,-1.16,73.0
803,2026-08-03 13:20:48.392,21.772,-0.24,0.46,0.76,-31.92,-1.16,73.0
804,2026-08-03 13:20:48.393,21.773,-0.25,0.36,0.75,-37.96,-0.31,79.9
805,2026-08-03 13:20:48.456,21.836,-0.27,0.29,0.78,-35.22,-2.99,75.07
806,2026-08-03 13:20:48.456,21.836,-0.27,0.29,0.78,-25.82,-16.66,60.79
807,2026-08-03 13:20:48.512,21.892,-0.24,0.29,0.73,-23.19,-35.64,51.45
808,2026-08-03 13:20:48.632,22.012,-0.22,0.23,0.69,-37.54,-43.15,56.64
809,2026-08-03 13:20:48.633,22.013,-0.22,0.16,0.7,-50.29,-39.31,62.87
810,2026-08-03 13:20:48.633,22.013,-0.22,0.15,0.72,-42.48,-37.48,58.04
811,2026-08-03 13:20:48.694,22.074,-0.2,0.14,0.74,-28.93,-36.68,51.09
812,2026-08-03 13:20:48.694,22.074,-0.18,0.1,0.78,-25.57,-33.26,48.34
813,2026-08-03 13:20:48.754,22.134,-0.16,0.06,0.84,-25.88,-29.3,46.51
814,2026-08-03 13:20:48.872,22.252,-0.11,0.07,0.87,-22.09,-23.5,42.91
815,2026-08-03 13:20:48.884,22.264,-0.11,0.07,0.87,-22.09,-23.5,42.91
816,2026-08-03 13:20:48.884,22.264,-0.06,0.11,0.88,-23.93,-13.55,41.87
817,2026-08-03 13:20:48.885,22.265,-0.06,0.11,0.88,-23.93,-13.55,41.87
818,2026-08-03 13:20:48.885,22.265,-0.04,0.09,0.88,-39.98,5.0,54.5
819,2026-08-03 13:20:48.933,22.313,-0.04,0.03,0.85,-50.96,25.15,74.16
820,2026-08-03 13:20:48.933,22.313,-0.04,-0.0,0.83,-39.49,34.0,81.3
821,2026-08-03 13:20:49.003,22.383,-0.04,-0.0,0.83,-39.49,34.0,81.3
822,2026-08-03 13:20:49.004,22.384,-0.03,0.01,0.87,-20.69,35.34,75.07
823,2026-08-03 13:20:49.052,22.432,-0.03,0.02,0.96,-8.54,36.5,66.59
824,2026-08-03 13:20:49.053,22.433,-0.04,0.05,1.06,-3.23,37.48,60.61
825,2026-08-03 13:20:49.113,22.493,-0.07,0.07,1.12,-4.64,35.52,57.5
826,2026-08-03 13:20:49.114,22.494,-0.07,0.07,1.12,-4.64,35.52,57.5
827,2026-08-03 13:20:49.231,22.611,-0.11,0.05,1.11,-10.07,27.22,56.95
828,2026-08-03 13:20:49.232,22.612,-0.11,0.05,1.11,-10.07,27.22,56.95
829,2026-08-03 13:20:49.233,22.613,-0.14,0.03,1.05,-13.61,12.15,54.38
830,2026-08-03 13:20:49.234,22.614,-0.14,0.03,1.05,-13.61,12.15,54.38
831,2026-08-03 13:20:49.234,22.614,-0.16,0.02,1.0,-12.15,-5.37,47.06
832,2026-08-03 13:20:49.236,22.616,-0.16,0.02,1.0,-12.15,-5.37,47.06
833,2026-08-03 13:20:49.300,22.68,-0.17,0.02,0.95,-2.38,-21.79,38.21
834,2026-08-03 13:20:49.300,22.68,-0.16,0.07,0.94,15.5,-31.8,28.38
835,2026-08-03 13:20:49.411,22.791,-0.16,0.07,0.94,15.5,-31.8,28.38
836,2026-08-03 13:20:49.412,22.792,-0.16,0.17,1.0,26.31,-26.12,18.43
837,2026-08-03 13:20:49.413,22.793,-0.16,0.17,1.0,26.31,-26.12,18.43
838,2026-08-03 13:20:49.413,22.793,-0.13,0.22,0.99,24.66,-13.98,14.83
839,2026-08-03 13:20:49.414,22.794,-0.1,0.23,0.91,17.58,-10.38,20.32
840,2026-08-03 13:20:49.658,23.038,-0.15,0.21,0.93,-4.52,-4.39,30.15
841,2026-08-03 13:20:49.659,23.039,-0.15,0.21,0.93,-4.52,-4.39,30.15
842,2026-08-03 13:20:49.659,23.039,-0.27,0.18,1.06,-36.01,16.05,38.7
843,2026-08-03 13:20:49.660,23.04,-0.27,0.18,1.06,-36.01,16.05,38.7
844,2026-08-03 13:20:49.660,23.04,-0.37,0.15,1.15,-53.71,40.95,42.3
845,2026-08-03 13:20:49.661,23.041,-0.33,0.08,1.03,-51.51,44.49,38.94
846,2026-08-03 13:20:49.661,23.041,-0.22,0.01,0.8,-37.05,21.67,35.52
847,2026-08-03 13:20:49.662,23.042,-0.19,-0.01,0.68,-12.76,-4.64,43.46
848,2026-08-03 13:20:49.772,23.152,-0.23,-0.03,0.73,17.52,-25.76,51.39
849,2026-08-03 13:20:49.774,23.154,-0.23,-0.03,0.73,17.52,-25.76,51.39
850,2026-08-03 13:20:50.025,23.405,-0.25,-0.03,0.89,33.57,-37.6,36.01
851,2026-08-03 13:20:50.029,23.409,-0.25,-0.03,0.89,33.57,-37.6,36.01
852,2026-08-03 13:20:50.031,23.411,-0.22,0.01,1.01,33.51,-39.61,0.12
853,2026-08-03 13:20:50.033,23.413,-0.22,0.01,1.01,33.51,-39.61,0.12
854,2026-08-03 13:20:50.035,23.415,-0.22,0.01,1.01,33.51,-39.61,0.12
855,2026-08-03 13:20:50.036,23.416,-0.11,0.02,0.98,37.17,-37.9,-57.62
856,2026-08-03 13:20:50.036,23.416,-0.03,0.09,0.98,40.22,-43.09,-77.03
857,2026-08-03 13:20:50.036,23.416,0.07,0.18,1.04,32.35,-41.02,-95.95
858,2026-08-03 13:20:50.042,23.422,0.07,0.18,1.04,32.35,-41.02,-95.95
859,2026-08-03 13:20:50.044,23.424,0.12,0.24,1.17,15.08,-17.27,-104.19
860,2026-08-03 13:20:50.045,23.425,0.09,0.3,1.3,4.03,15.26,-96.25
861,2026-08-03 13:20:50.132,23.512,0.09,0.3,1.3,4.03,15.26,-96.25
862,2026-08-03 13:20:50.132,23.512,0.03,0.33,1.28,11.72,30.88,-84.23
863,2026-08-03 13:20:50.133,23.513,0.03,0.33,1.28,11.72,30.88,-84.23
864,2026-08-03 13:20:50.133,23.513,-0.02,0.35,1.04,34.55,24.23,-73.24
865,2026-08-03 13:20:50.134,23.514,-0.11,0.29,0.77,45.29,13.92,-53.22
866,2026-08-03 13:20:50.192,23.572,-0.11,0.29,0.77,45.29,13.92,-53.22
867,2026-08-03 13:20:50.193,23.573,-0.25,0.18,0.66,29.17,14.1,-28.2
868,2026-08-03 13:20:50.253,23.633,-0.38,0.13,0.69,11.78,21.42,-21.61
869,2026-08-03 13:20:50.377,23.757,-0.43,0.19,0.79,9.09,28.38,-38.82
870,2026-08-03 13:20:50.377,23.757,-0.38,0.24,0.82,19.1,29.17,-54.57
871,2026-08-03 13:20:50.378,23.758,-0.38,0.24,0.82,19.1,29.17,-54.57
872,2026-08-03 13:20:50.378,23.758,-0.32,0.23,0.79,33.39,26.86,-53.28
873,2026-08-03 13:20:50.552,23.932,-0.32,0.23,0.79,33.39,26.86,-53.28
874,2026-08-03 13:20:50.553,23.933,-0.3,0.18,0.83,29.11,32.17,-45.35
875,2026-08-03 13:20:50.558,23.938,-0.3,0.18,0.83,29.11,32.17,-45.35
876,2026-08-03 13:20:50.558,23.938,-0.36,0.15,0.9,7.75,41.2,-38.15
877,2026-08-03 13:20:50.558,23.938,-0.45,0.16,0.95,-8.54,41.08,-31.92
878,2026-08-03 13:20:50.672,24.052,-0.52,0.16,0.95,-16.72,31.25,-26.37
879,2026-08-03 13:20:50.673,24.053,-0.52,0.12,0.88,-14.77,14.04,-23.8
880,2026-08-03 13:20:50.674,24.054,-0.52,0.12,0.88,-14.77,14.04,-23.8
881,2026-08-03 13:20:50.678,24.058,-0.46,0.09,0.82,0.61,-5.8,-28.93
882,2026-08-03 13:20:50.679,24.059,-0.4,0.11,0.79,15.14,-16.17,-40.16
883,2026-08-03 13:20:50.679,24.059,-0.34,0.14,0.78,22.83,-17.94,-49.32
884,2026-08-03 13:20:50.792,24.172,-0.28,0.13,0.76,26.73,-21.61,-49.56
885,2026-08-03 13:20:50.793,24.173,-0.28,0.13,0.76,26.73,-21.61,-49.56
886,2026-08-03 13:20:50.793,24.173,-0.2,0.07,0.72,28.44,-30.21,-42.54
887,2026-08-03 13:20:50.794,24.174,-0.2,0.07,0.72,28.44,-30.21,-42.54
888,2026-08-03 13:20:50.794,24.174,-0.11,0.1,0.72,31.74,-34.67,-35.28
889,2026-08-03 13:20:50.851,24.231,-0.04,0.21,0.79,25.94,-21.85,-24.11
890,2026-08-03 13:20:50.852,24.232,-0.04,0.21,0.79,25.94,-21.85,-24.11
891,2026-08-03 13:20:50.855,24.235,-0.05,0.27,0.84,7.02,-0.31,0.92
892,2026-08-03 13:20:50.921,24.301,-0.05,0.27,0.84,7.02,-0.31,0.92
893,2026-08-03 13:20:50.921,24.301,-0.12,0.24,0.81,-9.52,7.45,36.44
894,2026-08-03 13:20:50.923,24.303,-0.12,0.24,0.81,-9.52,7.45,36.44
895,2026-08-03 13:20:51.212,24.592,-0.22,0.16,0.73,-18.62,-2.26,67.08
896,2026-08-03 13:20:51.271,24.651,-0.22,0.16,0.73,-18.62,-2.26,67.08
897,2026-08-03 13:20:51.272,24.652,-0.22,0.16,0.73,-18.62,-2.26,67.08
898,2026-08-03 13:20:51.284,24.664,-0.32,0.14,0.63,-13.37,-48.52,71.84
899,2026-08-03 13:20:51.285,24.665,-0.32,0.14,0.63,-13.37,-48.52,71.84
900,2026-08-03 13:20:51.285,24.665,-0.31,0.23,0.69,2.08,-71.29,54.44
901,2026-08-03 13:20:51.285,24.665,-0.31,0.42,1.07,13.55,-67.44,30.94
902,2026-08-03 13:20:51.286,24.666,-0.31,0.42,1.07,13.55,-67.44,30.94
903,2026-08-03 13:20:51.286,24.666,-0.39,0.65,1.76,6.41,-30.4,-4.33
904,2026-08-03 13:20:51.287,24.667,-0.39,0.65,1.76,6.41,-30.4,-4.33
905,2026-08-03 13:20:51.287,24.667,-0.46,0.66,2.1,-14.47,-3.36,-47.36
906,2026-08-03 13:20:51.287,24.667,-0.36,0.48,1.65,-0.31,-33.69,-83.25
907,2026-08-03 13:20:51.288,24.668,-0.13,0.35,0.94,43.21,-84.96,-99.98
908,2026-08-03 13:20:51.332,24.712,0.02,0.31,0.58,58.96,-92.47,-95.7
909,2026-08-03 13:20:51.451,24.831,0.05,0.36,0.65,46.02,-56.21,-80.69
910,2026-08-03 13:20:51.452,24.832,0.07,0.44,0.77,24.35,-17.52,-58.41
911,2026-08-03 13:20:51.452,24.832,0.01,0.4,0.74,-17.76,13.98,-25.33
912,2026-08-03 13:20:51.453,24.833,-0.16,0.26,0.73,-73.36,47.06,-0.24
913,2026-08-03 13:20:51.512,24.892,-0.16,0.26,0.73,-73.36,47.06,-0.24
914,2026-08-03 13:20:51.512,24.892,-0.31,0.12,0.79,-94.67,71.72,-8.54
915,2026-08-03 13:20:51.646,25.026,-0.26,0.14,0.85,-52.19,80.14,-57.92
916,2026-08-03 13:20:51.648,25.028,-0.03,0.36,0.83,15.81,80.32,-126.46
917,2026-08-03 13:20:51.695,25.075,-0.03,0.36,0.83,47.79,80.51,-151.73
918,2026-08-03 13:20:51.695,25.075,0.17,0.43,0.71,47.79,80.51,-151.73
919,2026-08-03 13:20:51.695,25.075,0.23,0.17,0.58,41.81,73.61,-109.56
920,2026-08-03 13:20:51.813,25.193,0.12,-0.18,0.54,29.97,43.52,-56.15
921,2026-08-03 13:20:51.813,25.193,-0.09,-0.35,0.65,27.53,-14.04,-45.65
922,2026-08-03 13:20:51.814,25.194,-0.09,-0.35,0.65,27.53,-14.04,-45.65
923,2026-08-03 13:20:51.814,25.194,-0.22,0.04,1.2,46.45,-72.45,-86.49
924,2026-08-03 13:20:51.815,25.195,-0.27,0.82,2.15,55.18,-91.92,-127.62
925,2026-08-03 13:20:51.871,25.251,-0.27,0.82,2.15,55.18,-91.92,-127.62
926,2026-08-03 13:20:51.872,25.252,-0.33,1.11,2.5,23.19,-76.84,-86.61
927,2026-08-03 13:20:52.051,25.431,-0.33,1.11,2.5,23.19,-76.84,-86.61
928,2026-08-03 13:20:52.052,25.432,-0.47,0.67,1.94,-35.28,-51.88,28.87
929,2026-08-03 13:20:52.052,25.432,-0.59,0.04,1.16,-91.06,-23.74,120.18
930,2026-08-03 13:20:52.052,25.432,-0.53,-0.29,0.6,-89.72,-13.43,129.39
931,2026-08-03 13:20:52.053,25.433,-0.53,-0.29,0.6,-89.72,-13.43,129.39
932,2026-08-03 13:20:52.053,25.433,-0.33,-0.21,0.3,-30.58,-27.16,81.36
933,2026-08-03 13:20:52.171,25.551,-0.18,0.02,0.21,18.13,-34.0,36.56
934,2026-08-03 13:20:52.172,25.552,-0.18,0.02,0.21,18.13,-34.0,36.56
935,2026-08-03 13:20:52.172,25.552,-0.17,0.08,0.26,23.44,-19.47,31.01
936,2026-08-03 13:20:52.421,25.801,-0.22,0.02,0.36,18.74,2.56,48.58
937,2026-08-03 13:20:52.422,25.802,-0.22,0.02,0.36,18.74,2.56,48.58
938,2026-08-03 13:20:52.422,25.802,-0.28,0.03,0.53,27.4,29.97,55.3
939,2026-08-03 13:20:52.424,25.804,-0.28,0.03,0.53,27.4,29.97,55.3
940,2026-08-03 13:20:52.424,25.804,-0.37,0.17,0.98,20.14,78.74,34.18
941,2026-08-03 13:20:52.424,25.804,-0.44,0.3,1.44,-10.99,124.02,-1.34
942,2026-08-03 13:20:52.426,25.806,-0.44,0.3,1.44,-10.99,124.02,-1.34
943,2026-08-03 13:20:52.426,25.806,-0.3,0.23,1.21,2.01,89.29,-9.52
944,2026-08-03 13:20:52.426,25.806,0.03,-0.01,0.44,58.78,-3.23,22.95
945,2026-08-03 13:20:52.426,25.806,0.26,-0.3,-0.07,45.47,-43.33,58.59
946,2026-08-03 13:20:52.427,25.807,0.26,-0.3,-0.07,45.47,-43.33,58.59
947,2026-08-03 13:20:52.472,25.852,0.28,-0.52,-0.1,-36.32,-25.63,72.33
948,2026-08-03 13:20:52.473,25.853,0.04,-0.24,0.57,-82.95,-3.85,54.93
949,2026-08-03 13:20:52.651,26.031,-0.45,0.6,2.07,-106.51,20.39,-2.99
950,2026-08-03 13:20:52.652,26.032,-0.45,0.6,2.07,-106.51,20.39,-2.99
951,2026-08-03 13:20:52.652,26.032,-0.78,1.13,2.87,-73.61,3.72,-55.54
952,2026-08-03 13:20:52.718,26.098,-0.75,0.97,2.16,39.67,-74.52,-59.08
953,2026-08-03 13:20:52.719,26.099,-0.6,0.57,1.14,101.07,-116.82,-40.16
954,2026-08-03 13:20:52.719,26.099,-0.44,0.26,0.57,87.65,-89.48,-27.77
955,2026-08-03 13:20:52.720,26.1,-0.27,0.13,0.43,68.36,-44.13,-20.26
956,2026-08-03 13:20:52.831,26.211,-0.27,0.13,0.43,68.36,-44.13,-20.26
957,2026-08-03 13:20:52.839,26.219,-0.2,0.03,0.54,42.05,5.68,-17.76
958,2026-08-03 13:20:52.849,26.229,-0.2,0.03,0.54,42.05,5.68,-17.76
959,2026-08-03 13:20:52.851,26.231,-0.26,-0.17,0.67,5.31,51.21,-21.48
960,2026-08-03 13:20:52.851,26.231,-0.22,-0.33,0.63,-5.19,56.64,-26.25
961,2026-08-03 13:20:52.891,26.271,-0.22,-0.33,0.63,-5.19,56.64,-26.25
962,2026-08-03 13:20:52.892,26.272,-0.08,-0.28,0.49,11.11,28.69,-51.88
963,2026-08-03 13:20:53.012,26.392,0.02,-0.06,0.57,19.84,18.43,-106.51
964,2026-08-03 13:20:53.013,26.393,0.02,-0.06,0.57,19.84,18.43,-106.51
965,2026-08-03 13:20:53.013,26.393,0.03,0.21,0.91,17.94,29.24,-155.64
966,2026-08-03 13:20:53.013,26.393,0.08,0.5,1.2,33.75,7.14,-168.58
967,2026-08-03 13:20:53.014,26.394,0.08,0.5,1.2,33.75,7.14,-168.58
968,2026-08-03 13:20:53.071,26.451,0.18,0.75,1.36,65.92,-55.11,-129.52
969,2026-08-03 13:20:53.072,26.452,0.18,0.75,1.36,65.92,-55.11,-129.52
970,2026-08-03 13:20:53.072,26.452,0.08,1.11,1.59,60.3,-84.47,-56.64
971,2026-08-03 13:20:53.136,26.516,0.08,1.11,1.59,60.3,-84.47,-56.64
972,2026-08-03 13:20:53.136,26.516,-0.34,1.47,1.75,-7.75,-37.96,17.46
973,2026-08-03 13:20:53.193,26.573,-0.34,1.47,1.75,-74.89,37.78,104.0
974,2026-08-03 13:20:53.200,26.58,-0.75,1.26,1.42,-74.89,37.78,104.0
975,2026-08-03 13:20:53.200,26.58,-0.89,0.48,0.78,-92.59,85.27,192.81
976,2026-08-03 13:20:53.251,26.631,-0.89,0.48,0.78,-92.59,85.27,192.81
977,2026-08-03 13:20:53.252,26.632,-0.78,-0.16,0.36,-80.69,93.99,228.58
978,2026-08-03 13:20:53.313,26.693,-0.54,-0.3,0.31,-61.58,82.82,195.43
979,2026-08-03 13:20:53.371,26.751,-0.35,-0.08,0.47,-40.77,61.77,132.57
980,2026-08-03 13:20:53.372,26.752,-0.28,0.19,0.65,-23.32,33.14,86.0
981,2026-08-03 13:20:53.492,26.872,-0.32,0.29,0.74,-12.94,7.69,71.72
982,2026-08-03 13:20:53.493,26.873,-0.39,0.27,0.81,-4.94,-7.57,74.58
983,2026-08-03 13:20:53.493,26.873,-0.43,0.33,0.89,-1.95,-11.35,79.47
984,2026-08-03 13:20:53.735,27.115,-0.49,0.42,0.99,-10.8,-4.46,84.05
985,2026-08-03 13:20:53.735,27.115,-0.55,0.39,1.01,-16.72,7.14,80.14
986,2026-08-03 13:20:53.737,27.117,-0.52,0.38,0.92,10.8,6.77,61.34
987,2026-08-03 13:20:53.737,27.117,-0.4,0.49,0.85,56.58,3.78,39.06
988,2026-08-03 13:20:53.737,27.117,-0.28,0.58,0.78,91.13,31.92,29.91
989,2026-08-03 13:20:54.153,27.533,-0.18,0.64,0.63,142.7,83.25,34.0
990,2026-08-03 13:20:54.154,27.534,-0.18,0.64,0.63,142.7,83.25,34.0
991,2026-08-03 13:20:54.154,27.534,-0.1,0.64,0.48,190.19,118.16,28.93
992,2026-08-03 13:20:54.155,27.535,-0.11,0.61,0.48,165.04,129.7,0.31
993,2026-08-03 13:20:54.155,27.535,-0.14,0.68,0.54,102.6,106.99,-26.61
994,2026-08-03 13:20:54.155,27.535,-0.22,0.82,0.61,43.95,47.12,-32.59
995,2026-08-03 13:20:54.156,27.536,-0.22,0.82,0.61,43.95,47.12,-32.59
996,2026-08-03 13:20:54.156,27.536,-0.37,0.83,0.72,-33.94,-0.98,-28.14
997,2026-08-03 13:20:54.156,27.536,-0.49,0.66,0.8,-127.01,-33.39,-23.01
998,2026-08-03 13:20:54.157,27.537,-0.48,0.49,0.85,-197.88,-84.29,-24.9
999,2026-08-03 13:20:54.158,27.538,-0.48,0.49,0.85,-197.88,-84.29,-24.9
1000,2026-08-03 13:20:54.159,27.539,-0.48,0.49,0.85,-197.88,-84.29,-24.9
1001,2026-08-03 13:20:54.160,27.54,-0.4,0.4,0.98,-99.37,-85.75,-26.49
1002,2026-08-03 13:20:54.160,27.54,-0.4,0.4,0.98,-20.08,-21.18,-30.7
1003,2026-08-03 13:20:54.160,27.54,-0.41,0.38,1.09,-20.08,-21.18,-30.7
1004,2026-08-03 13:20:54.161,27.541,-0.32,0.41,1.05,32.1,-3.54,-41.44
1005,2026-08-03 13:20:54.212,27.592,-0.32,0.41,1.05,32.1,-3.54,-41.44
1006,2026-08-03 13:20:54.212,27.592,-0.17,0.53,0.92,62.26,-37.29,-50.9
1007,2026-08-03 13:20:54.512,27.892,-0.17,0.53,0.92,62.26,-37.29,-50.9
1008,2026-08-03 13:20:54.512,27.892,-0.18,0.61,0.9,49.38,-54.08,-34.3
1009,2026-08-03 13:20:54.513,27.893,-0.18,0.61,0.9,49.38,-54.08,-34.3
1010,2026-08-03 13:20:54.513,27.893,-0.31,0.58,0.94,10.86,-42.3,6.53
1011,2026-08-03 13:20:54.513,27.893,-0.36,0.54,0.93,-3.91,-48.03,30.88
1012,2026-08-03 13:20:54.514,27.894,-0.36,0.54,0.93,-3.91,-48.03,30.88
1013,2026-08-03 13:20:54.514,27.894,-0.29,0.51,0.93,-1.28,-61.28,21.61
1014,2026-08-03 13:20:54.515,27.895,-0.29,0.51,0.93,-1.28,-61.28,21.61
1015,2026-08-03 13:20:54.515,27.895,-0.21,0.47,1.0,-10.38,-54.5,-0.24
1016,2026-08-03 13:20:54.516,27.896,-0.16,0.41,1.07,-31.56,-41.38,-10.25
1017,2026-08-03 13:20:54.517,27.897,-0.15,0.34,1.05,-55.42,-28.63,5.0
1018,2026-08-03 13:20:54.517,27.897,-0.16,0.27,0.96,-77.39,-13.92,36.13
1019,2026-08-03 13:20:54.632,28.012,-0.16,0.27,0.96,-77.39,-13.92,36.13
1020,2026-08-03 13:20:54.632,28.012,-0.18,0.23,0.91,-93.51,-0.43,56.52
1021,2026-08-03 13:20:54.754,28.134,-0.18,0.23,0.91,-93.51,-0.43,56.52
1022,2026-08-03 13:20:54.754,28.134,-0.17,0.2,0.89,-97.96,4.58,55.85
1023,2026-08-03 13:20:54.754,28.134,-0.14,0.17,0.91,-92.16,-2.2,52.98
1024,2026-08-03 13:20:54.755,28.135,-0.14,0.17,0.96,-84.72,-12.21,59.39
1025,2026-08-03 13:20:54.756,28.136,-0.16,0.15,1.0,-81.24,-17.33,48.71
1026,2026-08-03 13:20:54.875,28.255,-0.14,0.08,0.97,-74.1,-20.81,15.62
1027,2026-08-03 13:20:54.875,28.255,-0.08,0.01,0.89,-55.97,-28.26,-9.89
1028,2026-08-03 13:20:54.876,28.256,-0.02,-0.06,0.84,-38.51,-29.91,-16.36
1029,2026-08-03 13:20:54.932,28.312,-0.01,-0.13,0.84,-29.3,-20.02,-12.27
1030,2026-08-03 13:20:54.932,28.312,-0.03,-0.18,0.88,-26.67,-8.36,-7.87
1031,2026-08-03 13:20:55.052,28.432,-0.03,-0.18,0.88,-26.67,-8.36,-7.87
1032,2026-08-03 13:20:55.053,28.433,-0.06,-0.22,0.93,-29.54,-0.85,-5.25
1033,2026-08-03 13:20:55.057,28.437,-0.06,-0.22,0.93,-31.43,-1.53,-3.54
1034,2026-08-03 13:20:55.057,28.437,-0.05,-0.25,0.94,-31.43,-1.53,-3.54
1035,2026-08-03 13:20:55.058,28.438,-0.01,-0.28,0.91,-27.16,-8.61,-2.93
1036,2026-08-03 13:20:55.113,28.493,0.03,-0.31,0.87,-18.13,-13.67,-2.01
1037,2026-08-03 13:20:55.114,28.494,0.03,-0.31,0.87,-18.13,-13.67,-2.01
1038,2026-08-03 13:20:55.292,28.672,0.07,-0.32,0.87,-9.95,-13.12,0.49
1039,2026-08-03 13:20:55.293,28.673,0.07,-0.32,0.87,-9.95,-13.12,0.49
1040,2026-08-03 13:20:55.298,28.678,0.08,-0.31,0.9,-6.16,-7.81,4.64
1041,2026-08-03 13:20:55.298,28.678,0.08,-0.31,0.9,-5.92,-0.61,9.46
1042,2026-08-03 13:20:55.298,28.678,0.05,-0.29,0.95,-5.92,-0.61,9.46
1043,2026-08-03 13:20:55.299,28.679,0.0,-0.26,0.99,-6.23,3.42,11.78
1044,2026-08-03 13:20:55.299,28.679,-0.02,-0.25,0.99,-4.88,0.67,9.95
1045,2026-08-03 13:20:55.354,28.734,-0.02,-0.25,0.99,-4.88,0.67,9.95
1046,2026-08-03 13:20:55.354,28.734,-0.02,-0.25,0.96,-2.87,-5.49,6.53
1047,2026-08-03 13:20:55.355,28.735,-0.02,-0.25,0.96,-2.87,-5.49,6.53
1048,2026-08-03 13:20:55.411,28.791,-0.02,-0.27,0.89,-1.4,-10.13,4.21
1049,2026-08-03 13:20:55.412,28.792,-0.02,-0.27,0.89,-1.4,-10.13,4.21
1050,2026-08-03 13:20:55.413,28.793,-0.02,-0.28,0.84,1.65,-10.13,1.83
1051,2026-08-03 13:20:55.474,28.854,-0.03,-0.25,0.87,6.96,-2.69,-2.69
1052,2026-08-03 13:20:55.475,28.855,-0.03,-0.25,0.87,6.96,-2.69,-2.69
1053,2026-08-03 13:20:55.599,28.979,-0.05,-0.23,0.96,11.41,8.24,-8.12
1054,2026-08-03 13:20:55.601,28.981,-0.05,-0.23,0.96,11.41,8.24,-8.12
1055,2026-08-03 13:20:55.601,28.981,-0.04,-0.21,1.01,14.59,11.96,-12.57
1056,2026-08-03 13:20:55.602,28.982,-0.0,-0.21,0.97,17.09,6.41,-15.08
1057,2026-08-03 13:20:55.711,29.091,0.04,-0.19,0.92,19.65,0.85,-15.69
1058,2026-08-03 13:20:55.712,29.092,0.07,-0.15,0.9,24.17,0.73,-15.81
1059,2026-08-03 13:20:55.713,29.093,0.08,-0.08,0.91,28.81,3.85,-14.22
1060,2026-08-03 13:20:56.073,29.453,0.05,-0.05,0.92,30.33,7.08,-8.54
1061,2026-08-03 13:20:56.073,29.453,-0.01,-0.07,0.96,31.98,9.46,-1.77
1062,2026-08-03 13:20:56.087,29.467,-0.01,-0.07,0.96,31.98,9.46,-1.77
1063,2026-08-03 13:20:56.087,29.467,-0.05,-0.09,1.01,36.8,9.4,1.4
1064,2026-08-03 13:20:56.087,29.467,-0.05,-0.1,1.04,42.24,5.98,0.73
1065,2026-08-03 13:20:56.088,29.468,-0.05,-0.1,1.04,42.24,5.98,0.73
1066,2026-08-03 13:20:56.089,29.469,-0.05,-0.09,1.04,43.21,2.81,-2.5
1067,2026-08-03 13:20:56.092,29.472,-0.04,-0.08,1.03,38.27,1.16,-6.41
1068,2026-08-03 13:20:56.092,29.472,-0.03,-0.06,1.01,30.88,0.55,-10.13
1069,2026-08-03 13:20:56.093,29.473,-0.03,-0.06,1.01,30.88,0.55,-10.13
1070,2026-08-03 13:20:56.097,29.477,-0.02,-0.03,1.01,22.89,2.01,-14.59
1071,2026-08-03 13:20:56.097,29.477,-0.02,-0.03,1.01,17.15,3.11,-18.25
1072,2026-08-03 13:20:56.097,29.477,-0.02,0.01,1.01,17.15,3.11,-18.25
1073,2026-08-03 13:20:56.255,29.635,-0.03,0.03,0.99,15.44,1.59,-19.53
1074,2026-08-03 13:20:56.433,29.813,-0.03,0.03,0.99,15.44,1.59,-19.53
1075,2026-08-03 13:20:56.434,29.814,-0.03,0.04,0.98,16.48,-0.85,-19.04
1076,2026-08-03 13:20:56.434,29.814,-0.03,0.06,0.99,17.94,-2.32,-18.07
1077,2026-08-03 13:20:56.435,29.815,-0.03,0.06,0.99,17.94,-2.32,-18.07
1078,2026-08-03 13:20:56.435,29.815,-0.03,0.07,0.98,18.49,-2.69,-17.27
1079,2026-08-03 13:20:56.435,29.815,-0.04,0.08,0.97,18.62,-1.95,-16.91
1080,2026-08-03 13:20:56.614,29.994,-0.04,0.08,0.97,18.62,-1.95,-16.91
1081,2026-08-03 13:20:56.614,29.994,-0.06,0.09,0.97,19.29,0.06,-16.85
1082,2026-08-03 13:20:56.615,29.995,-0.06,0.09,0.97,19.29,0.06,-16.85
1083,2026-08-03 13:20:56.615,29.995,-0.09,0.11,0.97,22.03,0.31,-16.91
1084,2026-08-03 13:20:56.615,29.995,-0.12,0.14,0.95,27.77,-3.3,-17.46
1085,2026-08-03 13:20:56.616,29.996,-0.16,0.19,0.95,35.03,-7.81,-19.84
1086,2026-08-03 13:20:56.616,29.996,-0.19,0.28,0.98,43.4,-13.06,-25.02
1087,2026-08-03 13:20:56.617,29.997,-0.19,0.28,0.98,43.4,-13.06,-25.02
1088,2026-08-03 13:20:56.618,29.998,-0.21,0.4,1.05,51.76,-21.42,-32.65
1089,2026-08-03 13:20:56.671,30.051,-0.21,0.4,1.05,51.76,-21.42,-32.65
1090,2026-08-03 13:20:56.671,30.051,-0.23,0.51,1.13,57.37,-31.56,-41.87
1091,2026-08-03 13:20:56.672,30.052,-0.23,0.51,1.13,57.37,-31.56,-41.87
1092,2026-08-03 13:20:56.672,30.052,-0.23,0.59,1.13,57.5,-43.09,-51.82
1093,2026-08-03 13:20:56.673,30.053,-0.23,0.59,1.13,57.5,-43.09,-51.82
1094,2026-08-03 13:20:56.673,30.053,-0.18,0.6,1.05,53.47,-55.79,-57.5
1095,2026-08-03 13:20:56.673,30.053,-0.14,0.59,1.01,48.22,-60.18,-55.66
1096,2026-08-03 13:20:56.731,30.111,-0.15,0.57,1.05,43.82,-53.65,-51.51
1097,2026-08-03 13:20:56.732,30.112,-0.15,0.57,1.05,43.82,-53.65,-51.51
1098,2026-08-03 13:20:56.794,30.174,-0.15,0.56,1.06,40.47,-47.3,-50.9
1099,2026-08-03 13:20:56.794,30.174,-0.12,0.55,0.99,32.78,-42.85,-55.36
1100,2026-08-03 13:20:56.912,30.292,-0.08,0.52,0.88,20.08,-34.0,-62.74
1101,2026-08-03 13:20:56.913,30.293,-0.08,0.52,0.88,20.08,-34.0,-62.74
1102,2026-08-03 13:20:56.914,30.294,-0.03,0.48,0.75,8.12,-19.23,-73.49
1103,2026-08-03 13:20:56.915,30.295,0.01,0.5,0.72,-0.12,2.08,-91.49
1104,2026-08-03 13:20:56.972,30.352,0.02,0.56,0.82,-6.35,22.64,-113.34
1105,2026-08-03 13:20:56.974,30.354,0.02,0.56,0.82,-6.35,22.64,-113.34
1106,2026-08-03 13:20:56.974,30.354,0.03,0.6,0.89,-8.61,19.65,-126.1
1107,2026-08-03 13:20:57.091,30.471,0.03,0.6,0.89,-8.61,19.65,-126.1
1108,2026-08-03 13:20:57.092,30.472,0.09,0.62,0.87,-5.92,-9.58,-127.99
1109,2026-08-03 13:20:57.093,30.473,0.09,0.62,0.87,-5.92,-9.58,-127.99
1110,2026-08-03 13:20:57.094,30.474,0.13,0.62,0.83,-6.9,-39.37,-124.27
1111,2026-08-03 13:20:57.405,30.785,0.12,0.52,0.75,-15.32,-59.57,-111.51
1112,2026-08-03 13:20:57.406,30.786,0.1,0.39,0.66,-23.44,-70.8,-93.57
1113,2026-08-03 13:20:57.571,30.951,0.1,0.39,0.66,-23.44,-70.8,-93.57
1114,2026-08-03 13:20:57.572,30.952,0.09,0.29,0.67,-24.9,-67.14,-81.67
1115,2026-08-03 13:20:57.810,31.19,0.09,0.29,0.79,-16.66,-53.71,-75.01
1116,2026-08-03 13:20:57.811,31.191,0.09,0.29,0.79,-16.66,-53.71,-75.01
1117,2026-08-03 13:20:57.812,31.192,0.06,0.37,0.95,-6.47,-37.9,-66.89
1118,2026-08-03 13:20:57.812,31.192,0.01,0.4,1.01,-9.34,-23.62,-51.39
1119,2026-08-03 13:20:58.055,31.435,-0.06,0.32,0.9,-24.9,-17.09,-25.63
1120,2026-08-03 13:20:58.056,31.436,-0.14,0.18,0.73,-43.09,-9.28,-1.1
1121,2026-08-03 13:20:58.057,31.437,-0.27,0.04,0.66,-55.36,12.45,3.66
1122,2026-08-03 13:20:58.058,31.438,-0.44,0.01,0.8,-45.84,41.14,-16.66
1123,2026-08-03 13:20:58.058,31.438,-0.57,0.22,1.1,-7.45,62.68,-57.25
1124,2026-08-03 13:20:58.059,31.439,-0.57,0.22,1.1,-7.45,62.68,-57.25
1125,2026-08-03 13:20:58.059,31.439,-0.62,0.61,1.38,36.68,61.52,-102.23
1126,2026-08-03 13:20:58.059,31.439,-0.52,0.79,1.25,48.4,21.73,-115.54
1127,2026-08-03 13:20:58.060,31.44,-0.52,0.79,1.25,48.4,21.73,-115.54
1128,2026-08-03 13:20:58.060,31.44,-0.35,0.52,0.73,15.5,-36.99,-81.79
1129,2026-08-03 13:20:58.061,31.441,-0.35,0.52,0.73,15.5,-36.99,-81.79
1130,2026-08-03 13:20:58.061,31.441,-0.27,0.08,0.4,-28.69,-61.28,-47.12
1131,2026-08-03 13:20:58.061,31.441,-0.23,-0.04,0.53,-41.08,-41.14,-60.49
1132,2026-08-03 13:20:58.062,31.442,-0.23,-0.04,0.53,-41.08,-41.14,-60.49
1133,2026-08-03 13:20:58.064,31.444,-0.08,0.13,0.79,-19.23,-21.97,-99.43
1134,2026-08-03 13:20:58.471,31.851,0.14,0.23,0.88,5.8,-25.39,-109.8
1135,2026-08-03 13:20:58.472,31.852,0.14,0.23,0.88,5.8,-25.39,-109.8
1136,2026-08-03 13:20:58.473,31.853,0.29,0.18,0.86,9.22,-24.66,-80.81
1137,2026-08-03 13:20:58.474,31.854,0.29,0.18,0.86,9.22,-24.66,-80.81
1138,2026-08-03 13:20:58.474,31.854,0.32,0.13,0.92,-0.55,-4.82,-36.68
1139,2026-08-03 13:20:58.474,31.854,0.28,0.19,1.08,-8.36,17.94,4.52
1140,2026-08-03 13:20:58.475,31.855,0.28,0.19,1.08,-8.36,17.94,4.52
1141,2026-08-03 13:20:58.476,31.856,0.21,0.27,1.16,-16.17,28.69,42.36
1142,2026-08-03 13:20:58.477,31.857,0.13,0.3,1.14,-24.23,25.02,81.54
1143,2026-08-03 13:20:58.531,31.911,0.13,0.3,1.14,-24.23,25.02,81.54
1144,2026-08-03 13:20:58.532,31.912,0.02,0.34,1.14,-30.7,16.05,114.56
1145,2026-08-03 13:20:58.533,31.913,0.02,0.34,1.14,-30.7,16.05,114.56
1146,2026-08-03 13:20:58.533,31.913,-0.07,0.39,1.15,-28.81,9.09,136.84
1147,2026-08-03 13:20:58.534,31.914,-0.09,0.47,1.08,-14.89,3.17,154.79
1148,2026-08-03 13:20:58.535,31.915,-0.08,0.52,0.91,-2.26,-2.14,172.79
1149,2026-08-03 13:20:58.536,31.916,-0.08,0.5,0.74,-1.28,-3.36,191.22
1150,2026-08-03 13:20:58.653,32.033,-0.12,0.43,0.74,-10.44,4.82,206.3
1151,2026-08-03 13:20:58.654,32.034,-0.12,0.43,0.74,-10.44,4.82,206.3
1152,2026-08-03 13:20:58.655,32.035,-0.2,0.37,0.93,-18.8,16.97,213.68
1153,2026-08-03 13:20:58.655,32.035,-0.23,0.32,1.11,-14.47,20.75,220.58
1154,2026-08-03 13:20:58.656,32.036,-0.14,0.26,1.06,-0.06,4.15,235.84
1155,2026-08-03 13:20:58.656,32.036,0.0,0.21,0.87,14.53,-30.82,241.21
1156,2026-08-03 13:20:58.657,32.037,0.0,0.21,0.87,14.53,-30.82,241.21
1157,2026-08-03 13:20:58.657,32.037,0.11,0.19,0.77,13.37,-51.27,215.82
1158,2026-08-03 13:20:58.658,32.038,0.11,0.19,0.77,13.37,-51.27,215.82
1159,2026-08-03 13:20:58.658,32.038,0.13,0.16,0.84,-8.06,-33.75,170.29
1160,2026-08-03 13:20:58.658,32.038,0.07,0.15,0.98,-29.17,3.23,119.26
1161,2026-08-03 13:20:58.659,32.039,0.07,0.15,0.98,-29.17,3.23,119.26
1162,2026-08-03 13:20:58.660,32.04,-0.05,0.16,1.08,-37.96,28.44,70.86
1163,2026-08-03 13:20:58.663,32.043,-0.05,0.16,1.08,-37.96,28.44,70.86
1164,2026-08-03 13:20:58.663,32.043,-0.11,0.16,1.08,-30.94,23.8,30.94
1165,2026-08-03 13:20:58.664,32.044,-0.11,0.16,1.08,-30.94,23.8,30.94
1166,2026-08-03 13:20:58.664,32.044,-0.08,0.26,1.03,-10.38,1.1,-5.74
1167,2026-08-03 13:20:58.665,32.045,-0.08,0.26,1.03,-10.38,1.1,-5.74
1168,2026-08-03 13:20:58.832,32.212,-0.08,0.26,1.03,-10.38,1.1,-5.74
1169,2026-08-03 13:20:58.833,32.213,-0.16,0.42,1.06,-6.23,4.39,-64.21
1170,2026-08-03 13:20:58.834,32.214,-0.2,0.33,0.96,-9.28,-3.05,-70.62
1171,2026-08-03 13:20:58.834,32.214,-0.14,0.24,0.89,-0.73,-28.69,-67.5
1172,2026-08-03 13:20:58.835,32.215,-0.14,0.24,0.89,-0.73,-28.69,-67.5
1173,2026-08-03 13:20:58.835,32.215,-0.03,0.17,0.92,13.12,-50.84,-68.91
1174,2026-08-03 13:20:59.132,32.512,-0.03,0.17,0.92,13.12,-50.84,-68.91
1175,2026-08-03 13:20:59.133,32.513,0.1,0.16,0.95,27.59,-62.01,-84.78
1176,2026-08-03 13:20:59.262,32.642,0.23,0.18,0.91,32.17,-66.71,-103.33
1177,2026-08-03 13:20:59.263,32.643,0.23,0.18,0.91,32.17,-66.71,-103.33
1178,2026-08-03 13:20:59.263,32.643,0.33,0.15,0.8,25.39,-67.75,-105.96
1179,2026-08-03 13:20:59.263,32.643,0.42,0.15,0.72,14.89,-61.16,-92.59
1180,2026-08-03 13:20:59.264,32.644,0.52,0.21,0.74,2.81,-46.26,-72.2
1181,2026-08-03 13:20:59.264,32.644,0.52,0.21,0.74,-11.54,-28.08,-48.16
1182,2026-08-03 13:20:59.264,32.644,0.58,0.29,0.82,-11.54,-28.08,-48.16
1183,2026-08-03 13:20:59.264,32.644,0.59,0.37,0.92,-29.97,-12.02,-21.85
1184,2026-08-03 13:20:59.265,32.645,0.59,0.37,0.92,-29.97,-12.02,-21.85
1185,2026-08-03 13:20:59.265,32.645,0.52,0.42,1.02,-53.71,-2.26,3.6
1186,2026-08-03 13:20:59.266,32.646,0.4,0.37,1.09,-74.77,-1.46,24.29
1187,2026-08-03 13:20:59.267,32.647,0.4,0.37,1.09,-74.77,-1.46,24.29
1188,2026-08-03 13:20:59.268,32.648,0.28,0.25,1.11,-81.18,-7.08,33.45
1189,2026-08-03 13:20:59.268,32.648,0.28,0.25,1.11,-74.16,-9.22,28.5
1190,2026-08-03 13:20:59.436,32.816,0.24,0.12,1.11,-74.16,-9.22,28.5
1191,2026-08-03 13:20:59.436,32.816,0.29,0.01,1.03,-51.64,-10.07,18.25
1192,2026-08-03 13:20:59.437,32.817,0.37,-0.03,0.87,-19.35,-12.88,10.8
1193,2026-08-03 13:20:59.437,32.817,0.45,-0.02,0.83,-5.86,-3.78,7.45
1194,2026-08-03 13:20:59.438,32.818,0.45,-0.02,0.83,-5.86,-3.78,7.45
1195,2026-08-03 13:20:59.491,32.871,0.48,0.01,0.95,-22.71,17.52,5.74
1196,2026-08-03 13:20:59.492,32.872,0.43,0.03,1.06,-47.3,29.36,5.55
1197,2026-08-03 13:20:59.551,32.931,0.34,-0.02,0.99,-52.92,18.13,11.47
1198,2026-08-03 13:20:59.552,32.932,0.27,-0.06,0.83,-38.82,-4.09,22.77
1199,2026-08-03 13:20:59.735,33.115,0.27,-0.06,0.83,-38.82,-4.09,22.77
1200,2026-08-03 13:20:59.736,33.116,0.24,-0.09,0.72,-21.48,-15.32,34.42
1201,2026-08-03 13:20:59.736,33.116,0.24,-0.09,0.72,-15.01,-7.26,42.66
1202,2026-08-03 13:20:59.737,33.117,0.21,-0.16,0.71,-15.01,-7.26,42.66
1203,2026-08-03 13:20:59.737,33.117,0.17,-0.21,0.77,-20.94,11.84,40.22
1204,2026-08-03 13:20:59.737,33.117,0.1,-0.23,0.85,-29.42,24.84,21.79
1205,2026-08-03 13:20:59.738,33.118,0.1,-0.23,0.85,-29.42,24.84,21.79
1206,2026-08-03 13:20:59.791,33.171,0.09,-0.23,0.88,-30.64,3.17,-18.25
1207,2026-08-03 13:20:59.792,33.172,0.09,-0.23,0.88,-30.64,3.17,-18.25
1208,2026-08-03 13:20:59.913,33.293,0.16,-0.23,0.89,-21.12,-26.61,-48.89
1209,2026-08-03 13:20:59.913,33.293,0.28,-0.16,0.96,-4.03,-19.9,-48.4
1210,2026-08-03 13:20:59.914,33.294,0.39,-0.03,1.17,1.04,16.78,-32.71
1211,2026-08-03 13:20:59.972,33.352,0.37,0.01,1.27,1.1,54.32,-6.59
1212,2026-08-03 13:20:59.973,33.353,0.23,-0.07,1.04,17.27,57.13,14.1
1213,2026-08-03 13:21:00.212,33.592,0.23,-0.07,1.04,17.27,57.13,14.1
1214,2026-08-03 13:21:00.212,33.592,0.08,-0.17,0.79,31.07,31.19,10.8
1215,2026-08-03 13:21:00.212,33.592,0.08,-0.17,0.72,33.63,5.19,-17.33
1216,2026-08-03 13:21:00.213,33.593,0.08,-0.17,0.72,33.63,5.19,-17.33
1217,2026-08-03 13:21:00.213,33.593,0.21,-0.05,0.73,42.11,-11.47,-47.18
1218,2026-08-03 13:21:00.214,33.594,0.21,-0.05,0.73,42.11,-11.47,-47.18
1219,2026-08-03 13:21:00.214,33.594,0.37,0.06,0.69,61.28,-15.56,-50.17
1220,2026-08-03 13:21:00.215,33.595,0.45,0.08,0.7,72.88,-0.85,-21.3
1221,2026-08-03 13:21:00.215,33.595,0.45,0.08,0.7,66.65,25.39,25.15
1222,2026-08-03 13:21:00.217,33.597,0.48,0.07,0.84,66.65,25.39,25.15
1223,2026-08-03 13:21:00.454,33.834,0.48,0.1,1.0,60.12,43.27,71.35
1224,2026-08-03 13:21:00.472,33.852,0.48,0.1,1.0,60.12,43.27,71.35
1225,2026-08-03 13:21:00.473,33.853,0.46,0.22,1.12,57.19,49.56,109.86
1226,2026-08-03 13:21:00.693,34.073,0.36,0.34,1.12,50.48,50.96,144.29
1227,2026-08-03 13:21:00.693,34.073,0.22,0.35,0.96,57.19,48.16,170.9
1228,2026-08-03 13:21:00.693,34.073,0.17,0.37,0.79,77.76,53.96,179.93
1229,2026-08-03 13:21:00.694,34.074,0.17,0.37,0.79,77.76,53.96,179.93
1230,2026-08-03 13:21:00.694,34.074,0.23,0.52,0.91,74.04,81.67,177.43
1231,2026-08-03 13:21:00.695,34.075,0.23,0.52,0.91,74.04,81.67,177.43
1232,2026-08-03 13:21:00.695,34.075,0.27,0.66,1.31,34.24,118.84,175.6
1233,2026-08-03 13:21:00.696,34.076,0.25,0.64,1.58,-5.0,124.27,170.59
1234,2026-08-03 13:21:00.696,34.076,0.25,0.52,1.38,-11.29,69.34,156.01
1235,2026-08-03 13:21:00.697,34.077,0.28,0.38,0.84,10.56,-16.48,138.37
1236,2026-08-03 13:21:00.698,34.078,0.28,0.38,0.84,10.56,-16.48,138.37
1237,2026-08-03 13:21:00.698,34.078,0.31,0.31,0.43,27.16,-64.94,126.46
1238,2026-08-03 13:21:00.700,34.08,0.31,0.31,0.43,27.16,-64.94,126.46
1239,2026-08-03 13:21:00.700,34.08,0.33,0.31,0.41,12.33,-44.92,119.81
1240,2026-08-03 13:21:00.811,34.191,0.32,0.34,0.62,-14.83,1.95,112.73
1241,2026-08-03 13:21:00.812,34.192,0.32,0.34,0.62,-14.83,1.95,112.73
1242,2026-08-03 13:21:00.813,34.193,0.31,0.38,0.84,-23.8,29.48,101.75
1243,2026-08-03 13:21:00.814,34.194,0.3,0.39,0.98,-13.24,31.68,88.75
1244,2026-08-03 13:21:01.112,34.492,0.3,0.38,1.0,10.13,14.53,79.22
1245,2026-08-03 13:21:01.114,34.494,0.3,0.38,1.0,10.13,14.53,79.22
1246,2026-08-03 13:21:01.115,34.495,0.34,0.41,0.92,37.17,-8.67,77.15
1247,2026-08-03 13:21:01.115,34.495,0.35,0.47,0.83,50.9,-15.75,89.23
1248,2026-08-03 13:21:01.123,34.503,0.35,0.47,0.83,50.9,-15.75,89.23
1249,2026-08-03 13:21:01.124,34.504,0.28,0.46,0.81,50.23,-0.98,116.52
1250,2026-08-03 13:21:01.129,34.509,0.28,0.46,0.81,50.23,-0.98,116.52
1251,2026-08-03 13:21:01.130,34.51,0.22,0.42,0.86,52.86,21.42,140.75
1252,2026-08-03 13:21:01.131,34.511,0.2,0.52,1.01,55.97,48.22,146.12
1253,2026-08-03 13:21:01.131,34.511,0.12,0.6,1.17,33.63,83.07,145.94
1254,2026-08-03 13:21:01.292,34.672,-0.03,0.46,1.1,3.78,97.96,156.07
1255,2026-08-03 13:21:01.293,34.673,-0.03,0.46,1.1,3.78,97.96,156.07
1256,2026-08-03 13:21:01.293,34.673,-0.11,0.24,0.88,0.24,80.38,164.67
1257,2026-08-03 13:21:01.293,34.673,-0.11,0.24,0.88,6.16,66.77,158.14
1258,2026-08-03 13:21:01.294,34.674,-0.09,0.12,0.72,6.16,66.77,158.14
1259,2026-08-03 13:21:01.294,34.674,-0.03,0.1,0.71,3.91,74.71,140.38
1260,2026-08-03 13:21:01.295,34.675,-0.03,0.1,0.71,3.91,74.71,140.38
1261,2026-08-03 13:21:01.295,34.675,0.01,0.15,0.78,-1.04,89.84,118.84
1262,2026-08-03 13:21:01.367,34.747,0.01,0.15,0.78,-1.04,89.84,118.84
1263,2026-08-03 13:21:01.374,34.754,0.03,0.23,0.92,-9.4,103.39,98.94
1264,2026-08-03 13:21:01.375,34.755,0.03,0.23,0.92,-9.4,103.39,98.94
1265,2026-08-03 13:21:01.773,35.153,0.06,0.27,1.06,-21.85,106.38,85.45
1266,2026-08-03 13:21:01.774,35.154,0.1,0.28,1.11,-28.69,86.0,77.33
1267,2026-08-03 13:21:01.775,35.155,0.1,0.28,1.11,-28.69,86.0,77.33
1268,2026-08-03 13:21:01.892,35.272,0.14,0.28,1.06,-26.12,45.9,71.53
1269,2026-08-03 13:21:01.893,35.273,0.19,0.28,0.97,-12.94,1.53,68.18
1270,2026-08-03 13:21:01.894,35.274,0.19,0.28,0.97,-12.94,1.53,68.18
1271,2026-08-03 13:21:01.894,35.274,0.28,0.42,1.0,7.81,-21.91,64.7
1272,2026-08-03 13:21:01.895,35.275,0.3,0.68,1.24,7.57,-6.1,67.32
1273,2026-08-03 13:21:01.896,35.276,0.16,0.81,1.46,-20.69,20.14,87.83
1274,2026-08-03 13:21:01.896,35.276,-0.03,0.81,1.43,-44.92,20.14,112.61
1275,2026-08-03 13:21:01.897,35.277,-0.03,0.81,1.43,-44.92,20.14,112.61
1276,2026-08-03 13:21:01.897,35.277,-0.16,0.75,1.16,-49.62,-3.23,126.83
1277,2026-08-03 13:21:01.897,35.277,-0.21,0.61,0.8,-39.43,-27.28,139.89
1278,2026-08-03 13:21:01.898,35.278,-0.21,0.61,0.8,-39.43,-27.28,139.89
1279,2026-08-03 13:21:01.899,35.279,-0.22,0.41,0.53,-14.04,-44.01,156.74
1280,2026-08-03 13:21:02.791,36.171,-0.18,0.24,0.36,26.49,-58.59,167.85
1281,2026-08-03 13:21:03.158,36.538,-0.18,0.24,0.36,26.49,-58.59,167.85
1282,2026-08-03 13:21:03.160,36.54,-0.15,0.17,0.35,45.47,-44.8,161.8
1283,2026-08-03 13:21:03.161,36.541,-0.15,0.17,0.35,45.47,-44.8,161.8
1284,2026-08-03 13:21:03.165,36.545,-0.21,0.14,0.54,11.54,11.05,135.25
1285,2026-08-03 13:21:03.331,36.711,-0.21,0.14,0.54,11.54,11.05,135.25
1286,2026-08-03 13:21:03.332,36.712,-0.3,0.12,0.72,-29.72,54.99,93.69
1287,2026-08-03 13:21:03.334,36.714,-0.36,0.18,0.86,-26.18,57.92,43.09
1288,2026-08-03 13:21:03.335,36.715,-0.36,0.18,0.86,-26.18,57.92,43.09
1289,2026-08-03 13:21:03.336,36.716,-0.38,0.33,1.11,4.09,55.6,-11.9
1290,2026-08-03 13:21:03.337,36.717,-0.43,0.45,1.41,26.79,63.66,-60.73
1291,2026-08-03 13:21:03.337,36.717,-0.49,0.46,1.47,39.79,55.66,-88.44
1292,2026-08-03 13:21:03.338,36.718,-0.49,0.46,1.47,39.79,55.66,-88.44
1293,2026-08-03 13:21:03.338,36.718,-0.53,0.33,1.19,41.69,21.42,-90.88
1294,2026-08-03 13:21:03.339,36.719,-0.53,0.14,0.83,35.16,-14.34,-82.82
1295,2026-08-03 13:21:03.341,36.721,-0.53,0.14,0.83,35.16,-14.34,-82.82
1296,2026-08-03 13:21:03.342,36.722,-0.48,0.05,0.73,33.45,-21.79,-92.16
1297,2026-08-03 13:21:03.343,36.723,-0.36,0.15,0.84,36.68,-7.26,-131.77
1298,2026-08-03 13:21:03.343,36.723,-0.19,0.33,0.89,40.71,-6.29,-177.37
1299,2026-08-03 13:21:03.344,36.724,-0.19,0.33,0.89,40.65,-26.43,-195.74
1300,2026-08-03 13:21:03.345,36.725,-0.03,0.41,0.8,40.65,-26.43,-195.74
1301,2026-08-03 13:21:03.346,36.726,0.09,0.38,0.7,36.93,-44.25,-188.6
1302,2026-08-03 13:21:03.347,36.727,0.09,0.38,0.7,36.93,-44.25,-188.6
1303,2026-08-03 13:21:03.348,36.728,0.21,0.39,0.69,37.78,-49.07,-177.25
1304,2026-08-03 13:21:03.349,36.729,0.35,0.44,0.74,44.68,-45.41,-164.55
1305,2026-08-03 13:21:03.350,36.73,0.35,0.44,0.74,44.68,-45.41,-164.55
1306,2026-08-03 13:21:03.350,36.73,0.46,0.47,0.8,53.71,-34.06,-140.62
1307,2026-08-03 13:21:03.351,36.731,0.52,0.52,0.86,63.23,-15.99,-103.39
1308,2026-08-03 13:21:03.352,36.732,0.51,0.57,0.91,65.0,12.02,-58.47
1309,2026-08-03 13:21:03.353,36.733,0.4,0.61,1.0,61.83,45.17,-11.41
1310,2026-08-03 13:21:03.353,36.733,0.23,0.82,1.17,53.47,69.76,26.37
1311,2026-08-03 13:21:03.354,36.734,0.23,0.82,1.17,53.47,69.76,26.37
1312,2026-08-03 13:21:03.354,36.734,-0.01,1.14,1.39,6.65,84.96,57.07
1313,2026-08-03 13:21:03.355,36.735,-0.33,1.23,1.46,-75.93,83.62,108.22
1314,2026-08-03 13:21:03.355,36.735,-0.6,1.0,1.3,-143.13,59.39,172.67
1315,2026-08-03 13:21:03.392,36.772,-0.6,1.0,1.3,-143.13,59.39,172.67
1316,2026-08-03 13:21:03.393,36.773,-0.71,0.7,1.03,-172.67,28.81,204.16
1317,2026-08-03 13:21:03.512,36.892,-0.71,0.7,1.03,-172.67,28.81,204.16
1318,2026-08-03 13:21:03.513,36.893,-0.65,0.47,0.8,-171.33,5.68,189.58
1319,2026-08-03 13:21:03.514,36.894,-0.52,0.33,0.55,-149.9,-18.31,156.92
1320,2026-08-03 13:21:03.515,36.895,-0.42,0.23,0.31,-122.99,-44.07,132.87
1321,2026-08-03 13:21:03.516,36.896,-0.42,0.23,0.31,-122.99,-44.07,132.87
1322,2026-08-03 13:21:03.517,36.897,-0.39,0.11,0.2,-98.75,-51.64,117.43
1323,2026-08-03 13:21:03.532,36.912,-0.42,0.04,0.23,-68.24,-36.01,90.45
1324,2026-08-03 13:21:03.764,37.144,-0.42,0.04,0.23,-68.24,-36.01,90.45
1325,2026-08-03 13:21:03.767,37.147,-0.44,0.08,0.39,-25.33,-7.87,41.93
1326,2026-08-03 13:21:03.768,37.148,-0.46,0.18,0.65,16.17,22.89,-16.17
1327,2026-08-03 13:21:03.769,37.149,-0.48,0.25,0.91,49.8,39.67,-65.25
1328,2026-08-03 13:21:03.771,37.151,-0.48,0.25,0.91,49.8,39.67,-65.25
1329,2026-08-03 13:21:03.771,37.151,-0.47,0.31,1.12,87.65,33.75,-99.43
1330,2026-08-03 13:21:03.772,37.152,-0.47,0.31,1.12,87.65,33.75,-99.43
1331,2026-08-03 13:21:03.772,37.152,-0.39,0.44,1.32,122.13,20.87,-129.21
1332,2026-08-03 13:21:03.773,37.153,-0.39,0.44,1.32,122.13,20.87,-129.21
1333,2026-08-03 13:21:03.774,37.154,-0.27,0.57,1.42,129.15,12.94,-149.72
1334,2026-08-03 13:21:03.774,37.154,-0.21,0.35,1.06,60.42,-22.28,-82.58
1335,2026-08-03 13:21:03.776,37.156,-0.21,0.35,1.06,60.42,-22.28,-82.58
1336,2026-08-03 13:21:03.776,37.156,-0.29,0.12,0.94,8.67,-21.42,-30.82
1337,2026-08-03 13:21:03.777,37.157,-0.31,-0.03,0.89,-18.25,-5.55,-15.75
1338,2026-08-03 13:21:03.778,37.158,-0.31,-0.03,0.89,-18.25,-5.55,-15.75
1339,2026-08-03 13:21:03.778,37.158,-0.21,-0.01,0.77,0.92,-1.28,-37.9
1340,2026-08-03 13:21:03.780,37.16,-0.21,-0.01,0.77,0.92,-1.28,-37.9
1341,2026-08-03 13:21:03.780,37.16,-0.06,0.12,0.64,36.56,-8.42,-67.32
1342,2026-08-03 13:21:03.781,37.161,-0.06,0.12,0.64,36.56,-8.42,-67.32
1343,2026-08-03 13:21:03.781,37.161,0.06,0.23,0.62,48.52,-9.28,-79.83
1344,2026-08-03 13:21:03.811,37.191,0.06,0.23,0.62,48.52,-9.28,-79.83
1345,2026-08-03 13:21:03.812,37.192,0.14,0.31,0.73,36.56,-0.18,-76.29
1346,2026-08-03 13:21:03.812,37.192,0.17,0.44,0.96,21.06,11.23,-62.13
1347,2026-08-03 13:21:03.813,37.193,0.17,0.44,0.96,21.06,11.23,-62.13
1348,2026-08-03 13:21:03.814,37.194,0.15,0.59,1.22,6.65,17.33,-36.8
1349,2026-08-03 13:21:03.816,37.196,0.09,0.67,1.34,-10.31,16.3,-1.77
1350,2026-08-03 13:21:03.817,37.197,-0.0,0.61,1.27,-22.16,10.5,38.33
1351,2026-08-03 13:21:04.053,37.433,-0.0,0.61,1.27,-22.16,10.5,38.33
1352,2026-08-03 13:21:04.054,37.434,-0.08,0.48,1.13,-24.9,7.63,74.04
1353,2026-08-03 13:21:04.055,37.435,-0.12,0.44,1.05,-34.12,16.6,95.58
1354,2026-08-03 13:21:04.055,37.435,-0.15,0.48,1.03,-56.27,29.11,108.52
1355,2026-08-03 13:21:04.056,37.436,-0.15,0.48,1.03,-56.27,29.11,108.52
1356,2026-08-03 13:21:04.059,37.439,-0.23,0.53,1.11,-86.85,35.34,121.64
1357,2026-08-03 13:21:04.060,37.44,-0.23,0.53,1.11,-86.85,35.34,121.64
1358,2026-08-03 13:21:04.060,37.44,-0.37,0.53,1.28,-128.97,38.64,129.58
1359,2026-08-03 13:21:04.060,37.44,-0.47,0.47,1.35,-158.33,25.15,125.24
1360,2026-08-03 13:21:04.061,37.441,-0.46,0.39,1.1,-137.82,-22.09,110.47
1361,2026-08-03 13:21:04.231,37.611,-0.34,0.31,0.68,-80.02,-82.21,94.85
1362,2026-08-03 13:21:04.232,37.612,-0.34,0.31,0.68,-80.02,-82.21,94.85
1363,2026-08-03 13:21:04.232,37.612,-0.23,0.25,0.38,-35.95,-110.84,85.57
1364,2026-08-03 13:21:04.413,37.793,-0.2,0.2,0.34,-32.35,-89.72,78.92
1365,2026-08-03 13:21:04.414,37.794,-0.2,0.2,0.34,-32.35,-89.72,78.92
1366,2026-08-03 13:21:04.415,37.795,-0.24,0.18,0.49,-44.8,-46.02,69.7
1367,2026-08-03 13:21:04.416,37.796,-0.24,0.18,0.49,-44.8,-46.02,69.7
1368,2026-08-03 13:21:04.418,37.798,-0.35,0.16,0.7,-47.67,-12.21,58.35
1369,2026-08-03 13:21:04.531,37.911,-0.35,0.16,0.7,-47.67,-12.21,58.35
1370,2026-08-03 13:21:04.532,37.912,-0.45,0.07,0.81,-38.39,1.28,46.33
1371,2026-08-03 13:21:04.534,37.914,-0.45,0.07,0.81,-38.39,1.28,46.33
1372,2026-08-03 13:21:04.534,37.914,-0.44,-0.05,0.72,-1.59,-6.71,29.85
1373,2026-08-03 13:21:04.535,37.915,-0.37,-0.07,0.65,62.13,-13.49,3.05
1374,2026-08-03 13:21:04.535,37.915,-0.34,0.03,0.97,107.54,16.17,-30.27
1375,2026-08-03 13:21:04.536,37.916,-0.34,0.03,0.97,107.54,16.17,-30.27
1376,2026-08-03 13:21:04.536,37.916,-0.32,0.15,1.42,111.82,60.18,-59.08
1377,2026-08-03 13:21:04.537,37.917,-0.32,0.15,1.42,111.82,60.18,-59.08
1378,2026-08-03 13:21:04.539,37.919,-0.22,0.21,1.44,100.16,62.01,-70.13
1379,2026-08-03 13:21:04.539,37.919,-0.22,0.21,1.44,81.12,28.14,-56.64
1380,2026-08-03 13:21:04.540,37.92,-0.12,0.19,1.15,81.12,28.14,-56.64
1381,2026-08-03 13:21:04.726,38.106,-0.11,0.13,0.99,43.46,10.93,-32.47
1382,2026-08-03 13:21:04.728,38.108,-0.11,0.13,0.99,43.46,10.93,-32.47
1383,2026-08-03 13:21:04.729,38.109,-0.14,0.12,1.03,6.59,20.02,-18.25
1384,2026-08-03 13:21:04.730,38.11,-0.12,0.16,1.04,-4.52,25.88,-17.4
1385,2026-08-03 13:21:04.731,38.111,-0.08,0.18,0.93,-0.12,17.21,-17.58
1386,2026-08-03 13:21:05.271,38.651,-0.08,0.18,0.93,-0.92,6.29,-10.19
1387,2026-08-03 13:21:05.272,38.652,-0.07,0.17,0.81,-0.92,6.29,-10.19
1388,2026-08-03 13:21:05.273,38.653,-0.09,0.15,0.79,-9.7,5.74,0.12
1389,2026-08-03 13:21:05.276,38.656,-0.09,0.15,0.79,-9.7,5.74,0.12
1390,2026-08-03 13:21:05.280,38.66,-0.12,0.16,0.85,-17.46,13.55,6.65
1391,2026-08-03 13:21:05.281,38.661,-0.12,0.16,0.85,-17.46,13.55,6.65
1392,2026-08-03 13:21:05.281,38.661,-0.13,0.17,0.9,-13.49,17.03,9.95
1393,2026-08-03 13:21:05.672,39.052,-0.13,0.17,0.9,-13.49,17.03,9.95
1394,2026-08-03 13:21:05.673,39.053,-0.11,0.21,0.91,4.39,11.84,13.73
1395,2026-08-03 13:21:05.674,39.054,-0.1,0.28,0.92,20.51,9.83,23.13
1396,2026-08-03 13:21:05.675,39.055,-0.12,0.33,0.95,25.27,17.7,41.2
1397,2026-08-03 13:21:05.676,39.056,-0.18,0.39,1.06,22.58,33.94,62.32
1398,2026-08-03 13:21:05.679,39.059,-0.18,0.39,1.06,22.58,33.94,62.32
1399,2026-08-03 13:21:05.680,39.06,-0.25,0.47,1.21,7.87,58.29,79.77
1400,2026-08-03 13:21:05.680,39.06,-0.25,0.47,1.21,-3.3,68.24,93.26
1401,2026-08-03 13:21:05.681,39.061,-0.27,0.49,1.16,-3.3,68.24,93.26
1402,2026-08-03 13:21:05.681,39.061,-0.25,0.45,0.9,3.42,49.5,104.68
1403,2026-08-03 13:21:05.682,39.062,-0.25,0.45,0.9,3.42,49.5,104.68
1404,2026-08-03 13:21:05.682,39.062,-0.21,0.42,0.66,4.52,31.49,111.21
1405,2026-08-03 13:21:05.683,39.063,-0.21,0.42,0.66,4.52,31.49,111.21
1406,2026-08-03 13:21:05.683,39.063,-0.2,0.47,0.63,-12.7,37.05,108.22
1407,2026-08-03 13:21:05.684,39.064,-0.2,0.47,0.63,-12.7,37.05,108.22
1408,2026-08-03 13:21:05.684,39.064,-0.22,0.58,0.8,-37.54,54.44,99.0
1409,2026-08-03 13:21:05.684,39.064,-0.22,0.58,0.8,-57.43,60.42,88.07
1410,2026-08-03 13:21:05.684,39.064,-0.24,0.66,0.98,-57.43,60.42,88.07
1411,2026-08-03 13:21:05.684,39.064,-0.24,0.67,1.01,-59.75,40.41,76.66
1412,2026-08-03 13:21:05.685,39.065,-0.21,0.63,0.85,-44.37,2.81,68.73
1413,2026-08-03 13:21:05.686,39.066,-0.21,0.57,0.68,-28.5,-26.06,66.41
1414,2026-08-03 13:21:05.686,39.066,-0.21,0.52,0.63,-21.36,-30.82,66.16
1415,2026-08-03 13:21:05.688,39.068,-0.21,0.51,0.72,-19.65,-17.4,64.45
1416,2026-08-03 13:21:05.689,39.069,-0.24,0.54,0.9,-24.23,2.93,63.84
1417,2026-08-03 13:21:06.152,39.532,-0.24,0.54,0.9,-24.23,2.93,63.84
1418,2026-08-03 13:21:06.153,39.533,-0.26,0.51,1.04,-36.87,19.17,67.26
1419,2026-08-03 13:21:06.156,39.536,-0.26,0.51,1.04,-36.87,19.17,67.26
1420,2026-08-03 13:21:06.157,39.537,-0.25,0.46,0.94,-40.53,12.7,71.47
1421,2026-08-03 13:21:06.158,39.538,-0.22,0.47,0.68,-27.71,-12.21,75.68
1422,2026-08-03 13:21:06.159,39.539,-0.26,0.5,0.59,-28.99,-12.51,85.21
1423,2026-08-03 13:21:06.160,39.54,-0.37,0.45,0.76,-51.09,21.06,96.31
1424,2026-08-03 13:21:06.163,39.543,-0.37,0.45,0.76,-51.09,21.06,96.31
1425,2026-08-03 13:21:06.163,39.543,-0.44,0.34,0.99,-59.14,49.56,92.96
1426,2026-08-03 13:21:06.274,39.654,-0.44,0.34,0.99,-59.14,49.56,92.96
1427,2026-08-03 13:21:06.275,39.655,-0.36,0.28,1.1,-38.21,51.21,67.69
1428,2026-08-03 13:21:06.277,39.657,-0.36,0.28,1.1,-1.46,29.85,36.56
1429,2026-08-03 13:21:06.279,39.659,-0.22,0.29,1.02,-1.46,29.85,36.56
1430,2026-08-03 13:21:06.279,39.659,-0.16,0.31,0.91,20.63,8.67,23.01
1431,2026-08-03 13:21:06.280,39.66,-0.16,0.31,0.91,20.63,8.67,23.01
1432,2026-08-03 13:21:06.280,39.66,-0.19,0.29,0.88,11.66,5.0,27.22
1433,2026-08-03 13:21:06.282,39.662,-0.19,0.29,0.88,11.66,5.0,27.22
1434,2026-08-03 13:21:06.282,39.662,-0.26,0.29,0.87,-6.96,5.74,32.23
1435,2026-08-03 13:21:06.282,39.662,-0.3,0.28,0.88,-17.88,3.48,31.01
1436,2026-08-03 13:21:06.283,39.663,-0.3,0.28,0.88,-18.8,0.98,22.28
1437,2026-08-03 13:21:06.283,39.663,-0.3,0.26,0.9,-18.8,0.98,22.28
1438,2026-08-03 13:21:06.283,39.663,-0.28,0.31,0.91,-12.15,-4.46,7.32
1439,2026-08-03 13:21:06.284,39.664,-0.27,0.37,0.88,-10.8,-9.7,-1.89
1440,2026-08-03 13:21:06.285,39.665,-0.33,0.36,0.82,-19.41,-8.73,0.31
1441,2026-08-03 13:21:06.455,39.835,-0.33,0.36,0.82,-19.41,-8.73,0.31
1442,2026-08-03 13:21:06.455,39.835,-0.39,0.3,0.81,-26.61,0.31,1.77
1443,2026-08-03 13:21:06.456,39.836,-0.39,0.3,0.81,-26.61,0.31,1.77
1444,2026-08-03 13:21:06.457,39.837,-0.36,0.24,0.81,-23.44,7.57,-7.2
1445,2026-08-03 13:21:06.457,39.837,-0.26,0.2,0.75,-10.01,2.62,-19.96
1446,2026-08-03 13:21:06.460,39.84,-0.26,0.2,0.75,-10.01,2.62,-19.96
1447,2026-08-03 13:21:06.460,39.84,-0.16,0.18,0.71,5.55,-1.83,-26.43
1448,2026-08-03 13:21:06.462,39.842,-0.13,0.22,0.83,11.54,12.33,-23.5
1449,2026-08-03 13:21:06.463,39.843,-0.13,0.22,0.83,11.54,12.33,-23.5
1450,2026-08-03 13:21:06.464,39.844,-0.22,0.23,1.09,0.43,43.09,-12.76
1451,2026-08-03 13:21:06.464,39.844,-0.33,0.17,1.24,-13.31,59.88,-3.85
1452,2026-08-03 13:21:06.512,39.892,-0.35,0.13,1.18,-9.34,42.54,-7.39
1453,2026-08-03 13:21:06.513,39.893,-0.35,0.13,1.18,-9.34,42.54,-7.39
1454,2026-08-03 13:21:06.571,39.951,-0.31,0.12,1.06,2.14,15.44,-18.31
1455,2026-08-03 13:21:06.572,39.952,-0.31,0.12,1.06,2.14,15.44,-18.31
1456,2026-08-03 13:21:06.573,39.953,-0.26,0.08,0.95,9.7,-3.36,-26.06
1457,2026-08-03 13:21:06.754,40.134,-0.26,0.08,0.95,9.7,-3.36,-26.06
1458,2026-08-03 13:21:06.754,40.134,-0.22,0.04,0.83,21.85,-18.86,-30.52
1459,2026-08-03 13:21:06.755,40.135,-0.22,0.04,0.83,21.85,-18.86,-30.52
1460,2026-08-03 13:21:06.755,40.135,-0.18,0.03,0.81,35.83,-23.07,-34.0
1461,2026-08-03 13:21:06.756,40.136,-0.18,0.05,0.94,40.28,-11.96,-35.95
1462,2026-08-03 13:21:06.757,40.137,-0.18,0.05,0.94,40.28,-11.96,-35.95
1463,2026-08-03 13:21:06.757,40.137,-0.18,0.07,1.06,42.36,-7.45,-36.13
1464,2026-08-03 13:21:06.758,40.138,-0.18,0.07,1.06,42.36,-7.45,-36.13
1465,2026-08-03 13:21:06.813,40.193,-0.14,0.11,1.04,49.56,-20.75,-35.52
1466,2026-08-03 13:21:06.813,40.193,-0.08,0.16,0.96,48.83,-29.91,-32.29
1467,2026-08-03 13:21:06.814,40.194,-0.08,0.16,0.96,48.83,-29.91,-32.29
1468,2026-08-03 13:21:06.872,40.252,-0.07,0.21,0.96,29.66,-16.24,-21.97
1469,2026-08-03 13:21:06.934,40.314,-0.14,0.24,1.04,-2.2,13.12,-4.33
1470,2026-08-03 13:21:06.935,40.315,-0.14,0.24,1.04,-2.2,13.12,-4.33
1471,2026-08-03 13:21:06.935,40.315,-0.24,0.23,1.11,-32.29,37.9,15.75
1472,2026-08-03 13:21:06.993,40.373,-0.24,0.23,1.11,-32.29,37.9,15.75
1473,2026-08-03 13:21:06.994,40.374,-0.3,0.2,1.07,-43.03,39.0,30.64
1474,2026-08-03 13:21:07.064,40.444,-0.33,0.2,0.96,-35.16,21.0,37.6
1475,2026-08-03 13:21:07.065,40.445,-0.33,0.2,0.96,-35.16,21.0,37.6
1476,2026-08-03 13:21:07.065,40.445,-0.38,0.2,0.9,-30.94,10.25,39.12
1477,2026-08-03 13:21:07.353,40.733,-0.38,0.2,0.9,-30.94,10.25,39.12
1478,2026-08-03 13:21:07.354,40.734,-0.45,0.19,0.94,-36.99,14.4,33.63
1479,2026-08-03 13:21:07.355,40.735,-0.45,0.19,0.94,-36.99,14.4,33.63
1480,2026-08-03 13:21:07.355,40.735,-0.45,0.22,0.92,-36.99,12.94,18.13
1481,2026-08-03 13:21:07.355,40.735,-0.4,0.29,0.83,-23.8,-2.38,0.85
1482,2026-08-03 13:21:07.356,40.736,-0.4,0.29,0.83,-23.8,-2.38,0.85
1483,2026-08-03 13:21:07.356,40.736,-0.36,0.34,0.77,-14.16,-13.92,-5.8
1484,2026-08-03 13:21:07.412,40.792,-0.36,0.34,0.77,-14.16,-13.92,-5.8
1485,2026-08-03 13:21:07.413,40.793,-0.35,0.35,0.73,-15.2,-15.32,-1.95
1486,2026-08-03 13:21:07.413,40.793,-0.34,0.35,0.69,-17.09,-15.01,5.43
1487,2026-08-03 13:21:07.414,40.794,-0.36,0.33,0.71,-18.13,-11.23,15.38
1488,2026-08-03 13:21:07.713,41.093,-0.38,0.28,0.81,-19.47,-1.65,25.02
1489,2026-08-03 13:21:07.714,41.094,-0.38,0.28,0.81,-19.47,-1.65,25.02
1490,2026-08-03 13:21:07.714,41.094,-0.38,0.25,0.92,-19.96,6.47,29.54
1491,2026-08-03 13:21:07.715,41.095,-0.38,0.25,0.92,-19.96,6.47,29.54
1492,2026-08-03 13:21:07.738,41.118,-0.35,0.25,1.0,-18.68,3.54,33.39
1493,2026-08-03 13:21:07.742,41.122,-0.35,0.25,1.0,-18.68,3.54,33.39
1494,2026-08-03 13:21:07.742,41.122,-0.33,0.25,1.05,-15.5,-7.81,42.6
1495,2026-08-03 13:21:07.743,41.123,-0.33,0.25,1.05,-10.86,-21.3,53.53
1496,2026-08-03 13:21:07.743,41.123,-0.31,0.2,1.11,-10.86,-21.3,53.53
1497,2026-08-03 13:21:07.743,41.123,-0.23,0.14,1.13,1.34,-41.14,59.69
1498,2026-08-03 13:21:07.744,41.124,-0.23,0.14,1.13,1.34,-41.14,59.69
1499,2026-08-03 13:21:07.744,41.124,-0.1,0.11,1.11,19.41,-63.35,61.4
1500,2026-08-03 13:21:07.744,41.124,0.01,0.1,1.16,25.02,-68.42,63.9
1501,2026-08-03 13:21:07.745,41.125,0.01,0.1,1.16,25.02,-68.42,63.9
1502,2026-08-03 13:21:07.745,41.125,0.07,0.06,1.25,8.54,-54.14,67.87
1503,2026-08-03 13:21:07.784,41.164,0.12,0.03,1.23,-9.16,-46.51,67.63
1504,2026-08-03 13:21:07.784,41.164,0.19,0.04,1.1,-15.75,-52.61,62.19
1505,2026-08-03 13:21:08.193,41.573,0.19,0.04,1.1,-15.75,-52.61,62.19
1506,2026-08-03 13:21:08.195,41.575,0.24,0.05,0.96,-21.55,-54.69,57.31
1507,2026-08-03 13:21:08.196,41.576,0.28,0.08,0.86,-25.7,-47.49,54.63
1508,2026-08-03 13:21:08.197,41.577,0.28,0.08,0.86,-25.7,-47.49,54.63
1509,2026-08-03 13:21:08.197,41.577,0.28,0.1,0.77,-26.98,-36.87,55.85
1510,2026-08-03 13:21:08.375,41.755,0.24,0.08,0.67,-30.64,-25.94,62.87
1511,2026-08-03 13:21:08.376,41.756,0.24,0.08,0.67,-30.64,-25.94,62.87
1512,2026-08-03 13:21:08.378,41.758,0.17,0.02,0.59,-38.64,-10.8,66.65
1513,2026-08-03 13:21:08.379,41.759,0.17,0.02,0.59,-38.64,-10.8,66.65
1514,2026-08-03 13:21:08.380,41.76,0.07,-0.04,0.52,-49.5,10.56,57.74
1515,2026-08-03 13:21:08.381,41.761,0.07,-0.04,0.52,-49.5,10.56,57.74
1516,2026-08-03 13:21:08.382,41.762,-0.08,-0.17,0.48,-60.97,42.3,38.64
1517,2026-08-03 13:21:08.382,41.762,-0.08,-0.17,0.48,-74.83,96.5,10.99
1518,2026-08-03 13:21:08.382,41.762,-0.33,-0.38,0.49,-74.83,96.5,10.99
1519,2026-08-03 13:21:08.446,41.826,-0.7,-0.46,0.53,-74.46,165.04,-36.68
1520,2026-08-03 13:21:08.447,41.827,-1.09,-0.4,0.7,-49.8,232.3,-98.08
1521,2026-08-03 13:21:08.447,41.827,-1.36,-0.37,0.73,-3.36,272.34,-155.94
1522,2026-08-03 13:21:08.448,41.828,-1.36,-0.37,0.73,-3.36,272.34,-155.94
1523,2026-08-03 13:21:08.449,41.829,-1.36,-0.37,0.73,-3.36,272.34,-155.94
1524,2026-08-03 13:21:08.449,41.829,-1.25,-0.18,0.55,98.63,238.65,-235.96
1525,2026-08-03 13:21:08.449,41.829,-1.02,-0.16,0.56,141.3,173.65,-195.62
1526,2026-08-03 13:21:08.450,41.83,-1.02,-0.16,0.56,141.3,173.65,-195.62
1527,2026-08-03 13:21:08.450,41.83,-0.92,-0.24,0.57,172.73,102.17,-136.17
1528,2026-08-03 13:21:08.451,41.831,-0.92,-0.24,0.57,172.73,102.17,-136.17
1529,2026-08-03 13:21:08.451,41.831,-0.88,-0.18,0.57,167.42,65.67,-118.23
1530,2026-08-03 13:21:08.491,41.871,-0.77,0.37,0.95,128.54,57.74,-131.47
1531,2026-08-03 13:21:08.492,41.872,-0.67,0.59,0.99,62.44,51.39,-121.03
1532,2026-08-03 13:21:08.912,42.292,-0.67,0.59,0.99,62.44,51.39,-121.03
1533,2026-08-03 13:21:08.915,42.295,-0.71,0.21,0.55,29.17,73.97,-70.5
1534,2026-08-03 13:21:08.916,42.296,-0.84,-0.29,0.69,34.24,107.85,-23.56
1535,2026-08-03 13:21:08.917,42.297,-0.87,-0.8,0.88,-1.89,101.32,-29.54
1536,2026-08-03 13:21:08.918,42.298,-0.71,-0.65,0.57,-31.31,47.67,-76.05
1537,2026-08-03 13:21:08.919,42.299,-0.62,-0.26,0.31,-15.93,-0.49,-93.75
1538,2026-08-03 13:21:08.921,42.301,-0.67,-0.31,0.36,-8.12,14.47,-60.91
1539,2026-08-03 13:21:08.922,42.302,-0.73,-0.51,0.44,7.75,45.53,-21.73
1540,2026-08-03 13:21:08.924,42.304,-0.71,-0.51,0.47,53.77,52.61,0.92
1541,2026-08-03 13:21:08.926,42.306,-0.71,-0.51,0.47,53.77,52.61,0.92
1542,2026-08-03 13:21:09.032,42.412,-0.61,-0.26,0.45,92.71,42.79,3.97
1543,2026-08-03 13:21:09.039,42.419,-0.61,-0.26,0.45,92.71,42.79,3.97
1544,2026-08-03 13:21:09.039,42.419,-0.56,-0.09,0.42,71.35,43.33,-5.0
1545,2026-08-03 13:21:09.040,42.42,-0.56,-0.09,0.42,71.35,43.33,-5.0
1546,2026-08-03 13:21:09.692,43.072,-0.55,-0.14,0.42,9.22,60.18,-6.47
1547,2026-08-03 13:21:09.692,43.072,-0.55,-0.28,0.54,-4.58,66.41,16.97
1548,2026-08-03 13:21:09.693,43.073,-0.55,-0.28,0.54,-4.58,66.41,16.97
1549,2026-08-03 13:21:09.706,43.086,-0.68,-0.55,0.56,36.07,45.96,53.71
1550,2026-08-03 13:21:09.707,43.087,-0.68,-0.55,0.56,36.07,45.96,53.71
1551,2026-08-03 13:21:09.707,43.087,-0.79,-0.69,0.49,117.0,14.71,62.38
1552,2026-08-03 13:21:09.708,43.088,-0.79,-0.69,0.49,117.0,14.71,62.38
1553,2026-08-03 13:21:09.709,43.089,-0.77,-0.52,0.75,164.98,8.42,30.03
1554,2026-08-03 13:21:09.709,43.089,-0.77,-0.52,0.75,129.58,15.38,-5.07
1555,2026-08-03 13:21:09.709,43.089,-0.68,-0.28,1.02,129.58,15.38,-5.07
1556,2026-08-03 13:21:09.709,43.089,-0.61,-0.13,1.09,93.32,-0.49,-8.3
1557,2026-08-03 13:21:09.710,43.09,-0.61,-0.13,1.09,93.32,-0.49,-8.3
1558,2026-08-03 13:21:09.710,43.09,-0.63,-0.11,1.05,66.77,-30.4,14.71
1559,2026-08-03 13:21:09.710,43.09,-0.69,-0.15,0.96,26.49,-59.08,43.09
1560,2026-08-03 13:21:09.710,43.09,-0.71,-0.21,0.87,-1.83,-83.07,63.17
1561,2026-08-03 13:21:09.992,43.372,-0.71,-0.21,0.87,-1.83,-83.07,63.17
1562,2026-08-03 13:21:09.994,43.374,-0.71,-0.21,0.87,-1.83,-83.07,63.17
1563,2026-08-03 13:21:09.995,43.375,-0.67,-0.0,0.8,-11.9,-105.65,75.99
1564,2026-08-03 13:21:09.998,43.378,-0.67,-0.0,0.8,-11.9,-105.65,75.99
1565,2026-08-03 13:21:09.998,43.378,-0.75,0.07,1.02,-47.49,-80.99,78.0
1566,2026-08-03 13:21:10.414,43.794,-0.74,0.12,1.1,-64.88,-60.18,65.55
1567,2026-08-03 13:21:10.414,43.794,-0.61,0.25,0.92,-50.66,-65.31,47.36
1568,2026-08-03 13:21:10.421,43.801,-0.61,0.25,0.92,-50.66,-65.31,47.36
1569,2026-08-03 13:21:10.436,43.816,-0.52,0.3,0.78,-47.12,-70.86,52.25
1570,2026-08-03 13:21:10.442,43.822,-0.52,0.3,0.78,-47.12,-70.86,52.25
1571,2026-08-03 13:21:10.446,43.826,-0.49,0.21,0.75,-58.59,-63.23,74.95
1572,2026-08-03 13:21:10.447,43.827,-0.44,0.16,0.67,-56.52,-56.64,87.89
1573,2026-08-03 13:21:10.447,43.827,-0.4,0.13,0.58,-53.28,-46.87,88.2
1574,2026-08-03 13:21:10.449,43.829,-0.41,0.06,0.56,-65.0,-26.49,83.19
1575,2026-08-03 13:21:10.449,43.829,-0.44,-0.0,0.54,-67.38,-12.63,70.56
1576,2026-08-03 13:21:10.450,43.83,-0.48,-0.0,0.56,-45.35,-6.59,47.55
1577,2026-08-03 13:21:10.450,43.83,-0.55,0.06,0.71,-22.95,10.01,17.82
1578,2026-08-03 13:21:10.450,43.83,-0.64,0.12,0.88,-12.33,31.43,-11.17
1579,2026-08-03 13:21:10.451,43.831,-0.66,0.18,0.94,4.82,37.96,-34.85
1580,2026-08-03 13:21:10.452,43.832,-0.66,0.18,0.94,4.82,37.96,-34.85
1581,2026-08-03 13:21:10.452,43.832,-0.64,0.23,0.91,30.46,31.68,-47.36
1582,2026-08-03 13:21:10.455,43.835,-0.64,0.23,0.91,30.46,31.68,-47.36
1583,2026-08-03 13:21:10.456,43.836,-0.64,0.24,0.94,45.84,32.59,-42.79
1584,2026-08-03 13:21:10.456,43.836,-0.63,0.19,1.05,43.76,44.49,-23.19
1585,2026-08-03 13:21:10.471,43.851,-0.59,0.1,1.03,29.72,44.74,7.81
1586,2026-08-03 13:21:10.472,43.852,-0.59,0.1,1.03,29.72,44.74,7.81
1587,2026-08-03 13:21:11.071,44.451,-0.57,-0.02,0.81,4.52,29.79,45.78
1588,2026-08-03 13:21:11.072,44.452,-0.57,-0.02,0.81,4.52,29.79,45.78
1589,2026-08-03 13:21:11.072,44.452,-0.58,-0.15,0.63,-27.1,24.84,78.0
1590,2026-08-03 13:21:11.072,44.452,-0.57,-0.25,0.64,-41.69,39.98,82.28
1591,2026-08-03 13:21:11.075,44.455,-0.49,-0.21,0.83,-27.89,53.16,48.71
1592,2026-08-03 13:21:11.075,44.455,-0.38,-0.03,1.05,16.17,29.79,0.79
1593,2026-08-03 13:21:11.075,44.455,-0.25,0.23,1.14,84.41,-35.83,-27.22
1594,2026-08-03 13:21:11.077,44.457,-0.14,0.5,1.11,121.89,-95.46,-18.86
1595,2026-08-03 13:21:11.077,44.457,-0.09,0.61,1.04,73.67,-98.94,17.4
1596,2026-08-03 13:21:11.079,44.459,-0.09,0.61,1.04,73.67,-98.94,17.4
1597,2026-08-03 13:21:11.079,44.459,-0.09,0.56,0.91,-16.05,-68.48,58.53
1598,2026-08-03 13:21:11.079,44.459,-0.1,0.52,0.79,-73.55,-49.93,91.25
1599,2026-08-03 13:21:11.081,44.461,-0.16,0.49,0.8,-94.12,-38.88,108.22
1600,2026-08-03 13:21:11.081,44.461,-0.22,0.49,0.88,-80.99,-24.9,102.36
1601,2026-08-03 13:21:11.082,44.462,-0.22,0.49,0.88,-80.99,-24.9,102.36
1602,2026-08-03 13:21:11.082,44.462,-0.19,0.6,0.99,-39.92,-13.92,89.17
1603,2026-08-03 13:21:11.085,44.465,-0.15,0.75,1.09,-8.85,-5.19,91.98
1604,2026-08-03 13:21:11.086,44.466,-0.17,0.83,1.12,-5.25,0.18,118.47
1605,2026-08-03 13:21:11.086,44.466,-0.24,0.85,1.18,-18.62,10.19,152.59
1606,2026-08-03 13:21:11.087,44.467,-0.39,0.78,1.26,-46.94,28.38,167.42
1607,2026-08-03 13:21:11.088,44.468,-0.39,0.78,1.26,-46.94,28.38,167.42
1608,2026-08-03 13:21:11.088,44.468,-0.44,0.4,0.79,-63.29,-0.37,139.4
1609,2026-08-03 13:21:11.089,44.469,-0.44,0.4,0.79,-51.76,-29.97,122.92
1610,2026-08-03 13:21:11.090,44.47,-0.34,0.32,0.48,-51.76,-29.97,122.92
1611,2026-08-03 13:21:11.091,44.471,-0.29,0.27,0.35,-57.92,-39.0,115.72
1612,2026-08-03 13:21:11.091,44.471,-0.32,0.23,0.37,-75.5,-28.44,110.47
1613,2026-08-03 13:21:11.092,44.472,-0.32,0.23,0.37,-75.5,-28.44,110.47
1614,2026-08-03 13:21:11.101,44.481,-0.41,0.19,0.5,-95.15,-2.93,96.56
1615,2026-08-03 13:21:11.101,44.481,-0.48,0.13,0.66,-97.72,26.49,67.63
1616,2026-08-03 13:21:11.101,44.481,-0.48,0.13,0.66,-57.19,43.33,26.06
1617,2026-08-03 13:21:11.102,44.482,-0.47,0.13,0.75,-57.19,43.33,26.06
1618,2026-08-03 13:21:11.192,44.572,-0.42,0.19,0.83,14.89,49.87,-12.33
1619,2026-08-03 13:21:11.850,45.23,-0.42,0.19,0.83,14.89,49.87,-12.33
1620,2026-08-03 13:21:11.851,45.231,-0.39,0.24,0.96,74.52,55.85,-33.75
1621,2026-08-03 13:21:11.852,45.232,-0.39,0.24,0.96,74.52,55.85,-33.75
1622,2026-08-03 13:21:11.852,45.232,-0.36,0.3,1.12,100.16,58.59,-40.95
1623,2026-08-03 13:21:11.853,45.233,-0.36,0.31,1.23,88.38,57.25,-36.13
1624,2026-08-03 13:21:11.854,45.234,-0.36,0.31,1.23,88.38,57.25,-36.13
1625,2026-08-03 13:21:11.855,45.235,-0.33,0.26,1.25,62.01,49.19,-20.39
1626,2026-08-03 13:21:11.857,45.237,-0.33,0.26,1.25,62.01,49.19,-20.39
1627,2026-08-03 13:21:11.857,45.237,-0.24,0.26,1.2,52.31,31.92,-3.48
1628,2026-08-03 13:21:12.030,45.41,-0.24,0.26,1.2,52.31,31.92,-3.48
1629,2026-08-03 13:21:12.150,45.53,-0.16,0.27,1.07,46.02,15.99,11.78
1630,2026-08-03 13:21:12.543,45.923,-0.16,0.27,1.07,46.02,15.99,11.78
1631,2026-08-03 13:21:12.544,45.924,-0.12,0.18,0.88,26.37,8.0,29.24
1632,2026-08-03 13:21:12.544,45.924,-0.13,0.04,0.68,-3.66,8.42,44.19
1633,2026-08-03 13:21:12.544,45.924,-0.14,-0.08,0.54,-32.04,12.45,48.46
1634,2026-08-03 13:21:12.545,45.925,-0.14,-0.08,0.54,-32.04,12.45,48.46
1635,2026-08-03 13:21:12.545,45.925,-0.11,-0.1,0.45,-46.08,11.29,43.4
1636,2026-08-03 13:21:12.546,45.926,-0.11,-0.1,0.45,-46.08,11.29,43.4
1637,2026-08-03 13:21:12.546,45.926,-0.06,-0.08,0.48,-54.44,9.7,36.74
1638,2026-08-03 13:21:12.547,45.927,-0.06,-0.05,0.65,-61.77,18.31,33.26
1639,2026-08-03 13:21:12.547,45.927,-0.07,0.08,1.03,-48.71,33.26,33.2
1640,2026-08-03 13:21:12.547,45.927,-0.08,0.25,1.49,-24.41,40.04,41.14
1641,2026-08-03 13:21:12.548,45.928,-0.08,0.25,1.49,-24.41,40.04,41.14
1642,2026-08-03 13:21:12.548,45.928,-0.01,0.33,1.65,-3.72,18.31,58.78
1643,2026-08-03 13:21:12.549,45.929,-0.01,0.33,1.65,-3.72,18.31,58.78
1644,2026-08-03 13:21:12.550,45.93,0.08,0.49,1.61,2.14,-25.09,83.62
1645,2026-08-03 13:21:12.550,45.93,-0.08,0.66,1.85,-53.04,-43.52,117.61
1646,2026-08-03 13:21:12.551,45.931,-0.08,0.66,1.85,-133.42,-42.54,148.68
1647,2026-08-03 13:21:12.552,45.932,-0.5,0.67,2.2,-133.42,-42.54,148.68
1648,2026-08-03 13:21:12.552,45.932,-0.76,0.57,2.06,-139.53,-67.44,153.99
1649,2026-08-03 13:21:12.554,45.934,-0.76,0.57,2.06,-139.53,-67.44,153.99
1650,2026-08-03 13:21:12.555,45.935,-0.67,0.48,1.46,-73.61,-93.81,128.36
1651,2026-08-03 13:21:12.556,45.936,-0.43,0.35,0.83,-12.33,-71.59,89.42
1652,2026-08-03 13:21:12.631,46.011,-0.43,0.35,0.83,-12.33,-71.59,89.42
1653,2026-08-03 13:21:12.632,46.012,-0.27,0.15,0.3,13.98,-16.97,58.23
1654,2026-08-03 13:21:12.633,46.013,-0.26,-0.02,-0.12,28.08,18.49,42.36
1655,2026-08-03 13:21:12.634,46.014,-0.26,-0.02,-0.12,28.08,18.49,42.36
1656,2026-08-03 13:21:12.635,46.015,-0.37,-0.07,-0.35,38.21,21.0,32.1
1657,2026-08-03 13:21:12.642,46.022,-0.37,-0.07,-0.35,38.21,21.0,32.1
1658,2026-08-03 13:21:12.642,46.022,-0.53,-0.06,-0.45,36.99,7.81,14.4
1659,2026-08-03 13:21:12.643,46.023,-0.53,-0.06,-0.45,36.99,7.81,14.4
1660,2026-08-03 13:21:12.699,46.079,-0.72,-0.03,-0.35,23.13,-7.81,-16.6
1661,2026-08-03 13:21:12.700,46.08,-0.99,0.14,0.27,-8.73,-9.4,-60.55
1662,2026-08-03 13:21:12.700,46.08,-1.17,0.57,1.78,-34.24,14.4,-109.25
1663,2026-08-03 13:21:12.701,46.081,-1.17,0.57,1.78,-34.24,14.4,-109.25
1664,2026-08-03 13:21:12.702,46.082,-0.81,0.87,3.2,-5.68,34.48,-151.86
1665,2026-08-03 13:21:12.704,46.084,-0.81,0.87,3.2,-5.68,34.48,-151.86
1666,2026-08-03 13:21:12.705,46.085,0.03,0.59,3.02,57.43,16.72,-166.44
1667,2026-08-03 13:21:12.706,46.086,0.79,0.11,1.57,89.36,-19.29,-146.91
1668,2026-08-03 13:21:12.710,46.09,0.79,0.11,1.57,89.36,-19.29,-146.91
1669,2026-08-03 13:21:12.710,46.09,1.01,-0.13,0.23,73.24,-32.9,-102.48
1670,2026-08-03 13:21:12.711,46.091,1.01,-0.13,0.23,31.01,-6.84,-42.05
1671,2026-08-03 13:21:12.711,46.091,0.74,-0.27,-0.31,31.01,-6.84,-42.05
1672,2026-08-03 13:21:12.712,46.092,0.43,-0.35,-0.27,-19.1,27.28,2.08
1673,2026-08-03 13:21:12.712,46.092,0.34,-0.35,-0.08,-46.75,23.32,17.03
1674,2026-08-03 13:21:12.713,46.093,0.34,-0.35,-0.08,-46.75,23.32,17.03
1675,2026-08-03 13:21:12.713,46.093,0.43,-0.21,0.32,-39.31,-14.95,21.3
1676,2026-08-03 13:21:12.714,46.094,0.43,-0.21,0.32,-39.31,-14.95,21.3
1677,2026-08-03 13:21:12.752,46.132,0.43,-0.21,0.32,-39.31,-14.95,21.3
1678,2026-08-03 13:21:12.753,46.133,0.81,0.57,2.68,-48.89,-94.48,53.96
1679,2026-08-03 13:21:12.754,46.134,0.81,0.57,2.68,-48.89,-94.48,53.96
1680,2026-08-03 13:21:12.754,46.134,0.46,1.12,3.69,-60.73,-125.49,113.95
1681,2026-08-03 13:21:12.755,46.135,-0.31,1.07,3.17,-80.81,-140.75,192.81
1682,2026-08-03 13:21:12.811,46.191,-0.72,0.59,1.5,-75.93,-121.46,220.09
1683,2026-08-03 13:21:13.051,46.431,-0.72,0.59,1.5,-48.1,-54.38,170.53
1684,2026-08-03 13:21:13.052,46.432,-0.7,0.2,0.06,-48.1,-54.38,170.53
1685,2026-08-03 13:21:13.052,46.432,-0.61,-0.03,-0.5,-38.57,28.14,98.82
1686,2026-08-03 13:21:13.053,46.433,-0.61,-0.03,-0.5,-38.57,28.14,98.82
1687,2026-08-03 13:21:13.053,46.433,-0.54,-0.12,-0.5,-47.73,71.23,39.61
1688,2026-08-03 13:21:13.054,46.434,-0.54,-0.12,-0.5,-47.73,71.23,39.61
1689,2026-08-03 13:21:13.054,46.434,-0.5,-0.08,-0.33,-55.73,63.96,-5.31
1690,2026-08-03 13:21:13.055,46.435,-0.52,-0.0,0.01,-58.47,50.72,-43.64
1691,2026-08-03 13:21:13.056,46.436,-0.57,0.13,0.79,-42.97,63.48,-82.89
1692,2026-08-03 13:21:13.057,46.437,-0.51,0.16,1.58,-17.58,75.44,-112.73
1693,2026-08-03 13:21:13.112,46.492,-0.51,0.16,1.58,-17.58,75.44,-112.73
1694,2026-08-03 13:21:13.113,46.493,-0.31,-0.13,1.96,-1.16,65.98,-120.42
1695,2026-08-03 13:21:13.364,46.744,-0.02,-0.16,2.05,35.77,53.83,-126.1
1696,2026-08-03 13:21:13.365,46.745,0.26,-0.15,1.62,72.63,47.06,-119.63
1697,2026-08-03 13:21:13.366,46.746,0.36,-0.48,0.99,84.29,49.5,-83.8
1698,2026-08-03 13:21:13.471,46.851,0.36,-0.48,0.99,84.29,49.5,-83.8
1699,2026-08-03 13:21:13.471,46.851,0.35,-0.52,0.73,86.85,59.81,-58.35
1700,2026-08-03 13:21:13.472,46.852,0.35,-0.52,0.73,86.85,59.81,-58.35
1701,2026-08-03 13:21:13.473,46.853,0.4,-0.28,0.66,60.97,59.57,-48.52
1702,2026-08-03 13:21:13.473,46.853,0.47,-0.13,0.58,4.09,33.14,-23.68
1703,2026-08-03 13:21:13.474,46.854,0.47,-0.13,0.58,4.09,33.14,-23.68
1704,2026-08-03 13:21:13.475,46.855,0.41,-0.13,0.51,-64.15,-22.16,13.98
1705,2026-08-03 13:21:13.476,46.856,0.35,-0.11,0.5,-112.79,-90.09,38.57
1706,2026-08-03 13:21:13.477,46.857,0.35,-0.11,0.5,-112.79,-90.09,38.57
1707,2026-08-03 13:21:13.478,46.858,0.48,-0.06,0.68,-127.01,-140.56,53.41
1708,2026-08-03 13:21:13.479,46.859,0.48,-0.06,0.68,-127.01,-140.56,53.41
1709,2026-08-03 13:21:13.712,47.092,0.65,-0.18,1.31,-124.82,-149.78,82.95
1710,2026-08-03 13:21:13.712,47.092,0.59,-0.19,2.21,-95.09,-117.07,106.02
1711,2026-08-03 13:21:13.713,47.093,0.59,-0.19,2.21,-95.09,-117.07,106.02
1712,2026-08-03 13:21:13.714,47.094,0.32,-0.14,2.38,-28.99,-100.71,112.18
1713,2026-08-03 13:21:13.836,47.216,-0.09,-0.26,1.67,25.09,-105.59,123.41
1714,2026-08-03 13:21:13.840,47.22,-0.09,-0.26,1.67,25.09,-105.59,123.41
1715,2026-08-03 13:21:13.841,47.221,-0.46,-0.38,0.82,41.5,-87.71,124.76
1716,2026-08-03 13:21:13.841,47.221,-0.59,-0.34,0.25,36.07,-55.48,100.04
1717,2026-08-03 13:21:13.842,47.222,-0.58,-0.17,0.09,10.56,-16.54,63.72
1718,2026-08-03 13:21:13.894,47.274,-0.58,-0.17,0.09,10.56,-16.54,63.72
1719,2026-08-03 13:21:13.894,47.274,-0.53,-0.02,0.16,-19.17,13.79,33.69
