Timestamp,AccX,AccY,AccZ,GyroX,GyroY,GyroZ
2026-07-27 13:49:00.699,0.01,-0.03,0.99,0.06,-0.06,0.12
2026-07-27 13:49:00.727,0.01,-0.03,0.99,0.06,-0.06,0.12
2026-07-27 13:49:00.754,0.0,-0.03,0.99,0.06,0.0,0.12
2026-07-27 13:49:00.767,0.0,-0.03,0.99,0.06,0.0,0.12
2026-07-27 13:49:00.794,0.01,-0.03,0.99,0.12,0.0,0.12
2026-07-27 13:49:00.822,0.01,-0.02,0.99,0.12,-0.06,0.18
2026-07-27 13:49:00.835,0.01,-0.02,0.99,0.12,-0.06,0.18
2026-07-27 13:49:00.871,0.01,-0.02,0.99,0.12,-0.06,0.12
2026-07-27 13:49:00.890,0.01,-0.02,0.99,0.12,-0.06,0.12
2026-07-27 13:49:00.918,0.01,-0.02,0.99,0.12,-0.06,0.12
2026-07-27 13:49:00.946,0.01,-0.03,0.99,0.12,-0.06,0.12
2026-07-27 13:49:00.959,0.01,-0.03,0.99,0.12,-0.06,0.12
2026-07-27 13:49:00.988,0.0,-0.03,0.99,0.12,-0.06,0.12
2026-07-27 13:49:01.002,0.0,-0.03,0.99,0.12,-0.06,0.12
2026-07-27 13:49:01.028,0.0,-0.03,0.99,0.12,-0.06,0.12
2026-07-27 13:49:01.056,0.0,-0.03,0.99,0.12,-0.06,0.18
2026-07-27 13:49:01.084,0.01,-0.02,0.99,0.12,-0.06,0.18
2026-07-27 13:49:01.111,0.01,-0.02,0.99,0.12,-0.06,0.12
2026-07-27 13:49:01.125,0.01,-0.02,0.99,0.12,-0.06,0.12
2026-07-27 13:49:01.152,0.01,-0.03,0.99,0.12,-0.06,0.12
2026-07-27 13:49:01.189,0.0,-0.02,0.99,0.12,-0.06,0.12
2026-07-27 13:49:01.194,0.0,-0.02,0.99,0.12,-0.06,0.12
2026-07-27 13:49:01.222,0.0,-0.02,0.99,0.18,-0.06,0.12
2026-07-27 13:49:01.249,0.0,-0.02,0.99,0.18,-0.06,0.12
2026-07-27 13:49:01.276,0.0,-0.03,0.99,0.12,-0.06,0.18
2026-07-27 13:49:01.290,0.01,-0.02,0.99,0.12,-0.06,0.18
2026-07-27 13:49:01.318,0.01,-0.02,0.99,0.12,-0.06,0.18
2026-07-27 13:49:01.345,0.01,-0.03,0.99,0.12,-0.06,0.18
2026-07-27 13:49:01.358,0.01,-0.03,0.99,0.12,-0.06,0.18
2026-07-27 13:49:01.386,0.0,-0.03,0.99,0.18,-0.06,0.12
2026-07-27 13:49:01.414,0.01,-0.03,0.99,0.18,-0.12,0.18
2026-07-27 13:49:01.456,0.01,-0.03,0.99,0.18,-0.12,0.18
2026-07-27 13:49:01.459,0.01,-0.02,0.99,0.18,-0.12,0.18
2026-07-27 13:49:01.485,0.01,-0.02,0.99,0.18,-0.12,0.18
2026-07-27 13:49:01.510,0.0,-0.03,0.99,0.18,-0.12,0.18
2026-07-27 13:49:01.541,0.01,-0.03,0.99,0.18,-0.06,0.18
2026-07-27 13:49:01.564,0.01,-0.03,0.99,0.18,-0.06,0.18
2026-07-27 13:49:01.578,0.01,-0.03,0.99,0.24,-0.12,0.18
2026-07-27 13:49:01.624,0.01,-0.03,0.99,0.24,-0.12,0.18
2026-07-27 13:49:01.624,0.0,-0.02,0.99,0.31,-0.12,0.18
2026-07-27 13:49:01.648,0.0,-0.03,0.99,0.37,-0.18,0.24
2026-07-27 13:49:01.716,0.0,-0.03,0.99,0.37,-0.18,0.24
2026-07-27 13:49:01.717,0.01,-0.02,0.99,0.49,-0.24,0.31
2026-07-27 13:49:01.717,0.01,-0.02,0.99,0.49,-0.24,0.31
2026-07-27 13:49:01.744,0.0,-0.02,0.99,0.61,-0.24,0.31
2026-07-27 13:49:01.771,0.0,-0.03,0.99,0.67,-0.31,0.37
2026-07-27 13:49:01.798,0.0,-0.03,0.99,0.67,-0.31,0.37
2026-07-27 13:49:01.828,0.01,-0.02,0.99,0.85,-0.43,0.37
2026-07-27 13:49:01.840,0.01,-0.02,0.99,0.85,-0.43,0.37
2026-07-27 13:49:01.867,0.01,-0.02,0.99,0.98,-0.49,0.37
2026-07-27 13:49:01.896,0.01,-0.02,0.99,0.92,-0.49,0.37
2026-07-27 13:49:01.909,0.01,-0.02,0.99,0.92,-0.49,0.37
2026-07-27 13:49:02.080,0.01,-0.02,0.99,0.73,-0.37,0.37
2026-07-27 13:49:02.080,0.01,-0.02,0.99,0.73,-0.37,0.37
2026-07-27 13:49:02.080,0.02,-0.0,0.99,0.49,-0.24,0.31
2026-07-27 13:49:02.081,0.08,0.04,0.99,0.12,-0.06,-9.58
2026-07-27 13:49:02.083,0.08,0.04,0.99,0.12,-0.06,-9.58
2026-07-27 13:49:02.083,0.11,0.07,0.99,-0.37,0.43,-57.19
2026-07-27 13:49:02.084,0.11,0.07,0.99,-0.37,0.43,-57.19
2026-07-27 13:49:02.272,0.02,0.04,1.01,-0.37,2.81,-145.69
2026-07-27 13:49:02.274,0.02,0.04,1.01,0.73,20.32,-207.09
2026-07-27 13:49:02.275,-0.02,-0.03,1.03,0.73,20.32,-207.09
2026-07-27 13:49:02.275,0.01,-0.06,1.04,2.69,55.79,-179.63
2026-07-27 13:49:02.275,0.01,-0.06,1.04,2.69,55.79,-179.63
2026-07-27 13:49:02.275,-0.14,0.05,1.04,7.69,106.69,-121.7
2026-07-27 13:49:02.276,-0.14,0.05,1.04,-10.8,184.14,-79.47
2026-07-27 13:49:02.276,-0.47,0.25,0.95,-10.8,184.14,-79.47
2026-07-27 13:49:02.345,-0.85,0.35,0.89,-116.09,274.78,25.82
2026-07-27 13:49:02.345,-0.85,0.35,0.89,-116.09,274.78,25.82
2026-07-27 13:49:02.346,-1.14,0.22,1.06,-195.86,309.51,218.63
2026-07-27 13:49:02.474,-1.21,-0.04,1.22,-143.86,182.25,372.5
2026-07-27 13:49:02.474,-1.21,-0.04,1.22,-143.86,182.25,372.5
2026-07-27 13:49:02.474,-1.09,-0.23,1.04,-76.84,-84.11,371.15
2026-07-27 13:49:02.477,-1.09,-0.23,1.04,-76.84,-84.11,371.15
2026-07-27 13:49:02.477,-0.78,-0.39,0.47,-82.95,-298.28,243.65
2026-07-27 13:49:02.477,-0.48,-0.46,0.08,-128.97,-287.17,58.23
2026-07-27 13:49:02.605,-0.48,-0.46,0.08,-128.97,-287.17,58.23
2026-07-27 13:49:02.605,-0.35,-0.05,0.46,-113.22,-74.46,-127.62
2026-07-27 13:49:02.607,-0.35,-0.05,0.46,-113.22,-74.46,-127.62
2026-07-27 13:49:02.608,-0.26,0.24,1.06,-70.25,83.74,-189.33
2026-07-27 13:49:02.608,-0.12,0.12,1.15,-23.25,29.54,-109.56
2026-07-27 13:49:02.649,-0.12,0.12,1.15,-23.25,29.54,-109.56
2026-07-27 13:49:02.649,-0.02,0.07,0.89,49.01,-90.88,-21.3
2026-07-27 13:49:02.912,-0.05,0.05,0.79,101.14,-120.48,32.53
2026-07-27 13:49:02.912,-0.05,0.05,0.79,101.14,-120.48,32.53
2026-07-27 13:49:02.913,-0.07,0.01,0.83,136.35,-80.63,74.46
2026-07-27 13:49:02.913,-0.07,0.01,0.83,136.35,-80.63,74.46
2026-07-27 13:49:02.913,-0.01,0.03,0.87,141.11,-38.51,93.93
2026-07-27 13:49:02.915,0.07,0.1,0.85,100.65,-15.38,80.44
2026-07-27 13:49:02.915,0.07,0.1,0.85,100.65,-15.38,80.44
2026-07-27 13:49:02.916,0.06,0.19,0.83,30.27,-11.84,39.18
2026-07-27 13:49:02.917,0.06,0.19,0.83,30.27,-11.84,39.18
2026-07-27 13:49:02.918,-0.04,0.25,0.93,-33.2,-21.24,-9.7
2026-07-27 13:49:02.918,-0.14,0.23,1.1,-54.87,-35.46,-34.12
2026-07-27 13:49:02.955,-0.14,0.23,1.1,-54.87,-35.46,-34.12
2026-07-27 13:49:02.957,-0.11,0.14,1.17,-35.28,-48.28,-16.91
2026-07-27 13:49:03.000,-0.11,0.14,1.17,-7.45,-47.42,15.81
2026-07-27 13:49:03.000,0.01,0.05,1.13,-7.45,-47.42,15.81
2026-07-27 13:49:03.096,0.08,0.04,1.05,-0.55,-27.22,28.93
2026-07-27 13:49:03.096,0.08,0.04,1.05,-0.55,-27.22,28.93
2026-07-27 13:49:03.096,0.06,0.09,0.97,-13.98,-0.92,20.39
2026-07-27 13:49:03.174,0.06,0.09,0.97,-13.98,-0.92,20.39
2026-07-27 13:49:03.174,0.04,0.13,0.92,-25.63,12.76,9.83
2026-07-27 13:49:03.175,0.04,0.15,0.92,-24.05,10.25,7.14
2026-07-27 13:49:03.175,0.04,0.15,0.92,-24.05,10.25,7.14
2026-07-27 13:49:03.305,0.05,0.16,0.95,-16.36,1.71,7.02
2026-07-27 13:49:03.306,0.05,0.16,0.95,-16.36,1.71,7.02
2026-07-27 13:49:03.306,0.05,0.15,0.98,-11.05,-4.58,5.68
2026-07-27 13:49:03.307,0.05,0.15,0.98,-9.22,-7.2,5.55
2026-07-27 13:49:03.307,0.05,0.15,0.98,-9.22,-7.2,5.55
2026-07-27 13:49:03.308,0.05,0.13,0.97,-7.51,-8.0,8.36
2026-07-27 13:49:03.348,0.05,0.13,0.97,-7.51,-8.0,8.36
2026-07-27 13:49:03.394,0.04,0.09,0.98,-3.91,-7.14,11.72
2026-07-27 13:49:03.397,0.04,0.07,1.0,-3.78,-4.94,11.47
2026-07-27 13:49:03.437,0.04,0.07,1.0,-3.78,-4.94,11.47
2026-07-27 13:49:03.437,0.03,0.06,1.02,-9.4,-3.85,8.48
2026-07-27 13:49:03.481,0.03,0.06,1.02,-9.4,-3.85,8.48
2026-07-27 13:49:03.481,0.04,0.05,1.01,-13.61,-3.78,8.67
2026-07-27 13:49:03.524,0.04,0.05,1.01,-13.31,-4.21,13.31
2026-07-27 13:49:03.524,0.07,0.03,1.0,-13.31,-4.21,13.31
2026-07-27 13:49:03.570,0.08,0.01,0.98,-15.62,-6.04,16.42
2026-07-27 13:49:03.571,0.08,0.01,0.98,-15.62,-6.04,16.42
2026-07-27 13:49:03.613,0.1,0.01,0.97,-22.89,-9.64,14.16
2026-07-27 13:49:03.614,0.1,0.01,0.97,-22.89,-9.64,14.16
2026-07-27 13:49:03.655,0.11,-0.0,0.98,-28.2,-13.49,9.77
2026-07-27 13:49:03.743,0.12,-0.01,0.99,-28.56,-17.03,7.2
2026-07-27 13:49:03.743,0.12,-0.01,0.99,-28.56,-17.03,7.2
2026-07-27 13:49:03.743,0.14,-0.01,1.0,-25.63,-19.9,6.29
2026-07-27 13:49:03.744,0.14,-0.01,1.0,-25.63,-19.9,6.29
2026-07-27 13:49:03.787,0.14,-0.0,1.0,-19.84,-19.71,6.53
2026-07-27 13:49:03.787,0.14,-0.01,1.0,-15.87,-17.64,7.02
2026-07-27 13:49:03.830,0.14,-0.01,1.0,-15.87,-17.64,7.02
2026-07-27 13:49:03.830,0.14,-0.03,0.98,-17.88,-15.38,6.23
2026-07-27 13:49:03.874,0.14,-0.03,0.98,-17.88,-15.38,6.23
2026-07-27 13:49:03.875,0.15,-0.09,0.95,-19.9,-10.31,6.96
2026-07-27 13:49:03.922,0.13,-0.13,0.94,-15.93,-1.04,13.06
2026-07-27 13:49:03.923,0.13,-0.13,0.94,-15.93,-1.04,13.06
2026-07-27 13:49:04.005,0.11,-0.11,0.95,-5.92,6.47,21.67
2026-07-27 13:49:04.005,0.11,-0.11,0.95,-5.92,6.47,21.67
2026-07-27 13:49:04.006,0.11,-0.09,0.95,1.83,6.47,23.93
2026-07-27 13:49:04.006,0.14,-0.06,0.95,0.85,3.72,17.09
2026-07-27 13:49:04.049,0.14,-0.06,0.95,0.85,3.72,17.09
2026-07-27 13:49:04.154,0.18,-0.06,0.97,-2.08,5.19,6.1
2026-07-27 13:49:04.155,0.18,-0.06,0.97,-2.08,5.19,6.1
2026-07-27 13:49:04.155,0.2,-0.07,1.0,-2.81,10.13,-4.46
2026-07-27 13:49:04.155,0.2,-0.07,1.0,-3.72,14.16,-12.88
2026-07-27 13:49:04.183,0.19,-0.08,1.03,-3.72,14.16,-12.88
2026-07-27 13:49:04.184,0.14,-0.07,1.02,-4.21,15.75,-19.17
2026-07-27 13:49:04.231,0.14,-0.07,1.02,-4.21,15.75,-19.17
2026-07-27 13:49:04.231,0.11,-0.09,0.99,-3.3,15.08,-22.71
2026-07-27 13:49:04.267,0.11,-0.09,0.99,-3.3,15.08,-22.71
2026-07-27 13:49:04.268,0.09,-0.12,0.98,-4.46,15.08,-23.99
2026-07-27 13:49:04.313,0.06,-0.14,1.01,-5.0,19.53,-22.71
2026-07-27 13:49:04.313,0.06,-0.14,1.01,-5.0,19.53,-22.71
2026-07-27 13:49:04.399,0.03,-0.13,1.07,-1.04,25.02,-17.46
2026-07-27 13:49:04.399,0.03,-0.13,1.07,-1.04,25.02,-17.46
2026-07-27 13:49:04.400,0.01,-0.11,1.1,1.83,21.3,-12.57
2026-07-27 13:49:04.492,0.16,-0.09,1.04,-1.77,4.76,-13.55
2026-07-27 13:49:04.493,0.16,-0.09,1.04,-1.77,4.76,-13.55
2026-07-27 13:49:04.493,0.52,-0.34,0.61,-13.61,-9.16,-17.03
2026-07-27 13:49:04.493,0.52,-0.34,0.61,-13.61,-9.16,-17.03
2026-07-27 13:49:04.530,1.0,-0.69,0.17,-12.21,-30.03,3.78
2026-07-27 13:49:04.573,1.01,-0.43,0.6,39.79,-74.89,75.74
2026-07-27 13:49:04.574,1.01,-0.43,0.6,39.79,-74.89,75.74
2026-07-27 13:49:04.574,0.2,0.21,1.68,107.54,-105.96,146.36
2026-07-27 13:49:04.618,-0.62,0.61,2.16,112.85,-77.09,148.01
2026-07-27 13:49:04.618,-0.62,0.61,2.16,112.85,-77.09,148.01
2026-07-27 13:49:04.664,-0.8,0.66,1.72,69.82,-6.16,94.3
2026-07-27 13:49:04.705,-0.8,0.66,1.72,69.82,-6.16,94.3
2026-07-27 13:49:04.705,-0.52,0.49,1.1,31.8,47.24,23.8
2026-07-27 13:49:04.794,-0.16,0.22,0.79,6.47,60.91,-33.69
2026-07-27 13:49:04.795,-0.16,0.22,0.79,6.47,60.91,-33.69
2026-07-27 13:49:04.795,0.05,0.04,0.73,-1.71,55.79,-54.14
2026-07-27 13:49:04.795,0.05,0.04,0.73,-1.71,55.79,-54.14
2026-07-27 13:49:04.837,0.11,0.03,0.77,0.85,46.08,-43.21
2026-07-27 13:49:04.838,0.11,0.13,0.87,-6.9,34.42,-32.23
2026-07-27 13:49:04.927,0.11,0.13,0.87,-6.9,34.42,-32.23
2026-07-27 13:49:04.927,0.09,0.18,1.01,-33.33,25.7,-40.34
2026-07-27 13:49:04.928,0.09,0.18,1.01,-33.33,25.7,-40.34
2026-07-27 13:49:04.928,0.06,0.1,1.07,-57.07,18.31,-53.34
2026-07-27 13:49:04.967,0.02,0.04,1.05,-58.41,12.15,-54.44
2026-07-27 13:49:05.012,0.02,0.04,1.05,-58.41,12.15,-54.44
2026-07-27 13:49:05.013,0.02,0.05,1.06,-51.39,10.56,-50.48
2026-07-27 13:49:05.056,0.02,0.05,1.06,-51.39,10.56,-50.48
2026-07-27 13:49:05.056,0.0,0.02,1.03,-36.68,19.29,-50.23
2026-07-27 13:49:05.102,-0.03,-0.01,0.94,-18.55,37.54,-52.92
2026-07-27 13:49:05.102,-0.03,-0.01,0.94,-18.55,37.54,-52.92
2026-07-27 13:49:05.143,-0.07,-0.02,0.9,-16.24,46.45,-56.58
2026-07-27 13:49:05.143,-0.07,-0.02,0.9,-16.24,46.45,-56.58
2026-07-27 13:49:05.187,-0.12,-0.01,0.92,-18.8,40.34,-62.68
2026-07-27 13:49:05.230,-0.15,-0.0,0.96,-18.19,33.14,-71.53
2026-07-27 13:49:05.230,-0.15,-0.0,0.96,-18.19,33.14,-71.53
2026-07-27 13:49:05.273,-0.18,0.02,0.97,-15.2,33.2,-83.01
2026-07-27 13:49:05.274,-0.18,0.02,0.97,-15.2,33.2,-83.01
2026-07-27 13:49:05.322,-0.19,0.03,0.93,-3.48,34.55,-96.8
2026-07-27 13:49:05.323,-0.16,0.02,0.91,12.33,16.05,-108.09
2026-07-27 13:49:05.361,-0.16,0.02,0.91,12.33,16.05,-108.09
2026-07-27 13:49:05.361,-0.1,-0.01,0.93,20.81,-14.59,-113.34
2026-07-27 13:49:05.406,-0.1,-0.01,0.93,20.81,-14.59,-113.34
2026-07-27 13:49:05.406,-0.04,-0.02,0.96,21.24,-30.4,-112.67
2026-07-27 13:49:05.536,0.03,-0.02,1.03,14.34,-34.55,-111.02
2026-07-27 13:49:05.537,0.03,-0.02,1.03,14.34,-34.55,-111.02
2026-07-27 13:49:05.537,0.05,-0.07,1.07,-12.08,-31.74,-110.84
2026-07-27 13:49:05.538,0.05,-0.07,1.07,-12.08,-31.74,-110.84
2026-07-27 13:49:05.538,0.01,-0.13,1.04,-51.15,-13.79,-100.77
2026-07-27 13:49:05.580,-0.02,-0.18,1.04,-81.97,19.1,-78.25
2026-07-27 13:49:05.580,-0.02,-0.18,1.04,-81.97,19.1,-78.25
2026-07-27 13:49:05.624,-0.09,-0.21,1.02,-85.75,78.86,-53.65
2026-07-27 13:49:05.625,-0.09,-0.21,1.02,-56.4,113.4,-44.01
2026-07-27 13:49:05.711,-0.19,-0.22,0.9,-56.4,113.4,-44.01
2026-07-27 13:49:05.712,-0.19,-0.23,0.81,-16.11,55.18,-50.54
2026-07-27 13:49:05.712,-0.19,-0.23,0.81,-16.11,55.18,-50.54
2026-07-27 13:49:05.713,-0.1,-0.19,0.78,22.71,-38.57,-49.38
2026-07-27 13:49:05.760,0.03,-0.14,0.78,52.31,-84.11,-37.84
2026-07-27 13:49:05.799,0.03,-0.14,0.78,52.31,-84.11,-37.84
2026-07-27 13:49:05.799,0.15,-0.15,0.86,57.5,-68.91,-34.55
2026-07-27 13:49:05.842,0.15,-0.15,0.86,57.5,-68.91,-34.55
2026-07-27 13:49:05.843,0.18,-0.14,0.89,50.17,-25.45,-58.35
2026-07-27 13:49:05.974,0.08,-0.12,0.78,37.72,13.37,-99.73
2026-07-27 13:49:05.975,0.08,-0.12,0.78,37.72,13.37,-99.73
2026-07-27 13:49:05.975,-0.06,-0.12,0.64,43.76,40.04,-131.04
2026-07-27 13:49:05.976,-0.06,-0.12,0.64,43.76,40.04,-131.04
2026-07-27 13:49:05.976,-0.11,-0.06,0.46,92.83,29.91,-145.51
2026-07-27 13:49:05.977,-0.12,0.1,0.31,139.04,-2.32,-148.25
2026-07-27 13:49:06.028,-0.12,0.1,0.31,139.04,-2.32,-148.25
2026-07-27 13:49:06.062,-0.1,0.34,0.49,113.04,1.77,-162.66
2026-07-27 13:49:06.062,-0.1,0.34,0.49,113.04,1.77,-162.66
2026-07-27 13:49:06.105,-0.02,0.52,0.94,20.39,13.55,-209.84
2026-07-27 13:49:06.106,0.1,0.5,1.26,-65.06,-10.31,-256.96
2026-07-27 13:49:06.149,0.1,0.5,1.26,-65.06,-10.31,-256.96
2026-07-27 13:49:06.149,0.24,0.39,1.37,-109.25,-38.27,-254.52
2026-07-27 13:49:06.197,0.24,0.39,1.37,-109.25,-38.27,-254.52
2026-07-27 13:49:06.197,0.24,0.39,1.37,-109.25,-38.27,-254.52
2026-07-27 13:49:06.242,0.24,0.39,1.37,-109.25,-38.27,-254.52
2026-07-27 13:49:06.242,0.41,0.08,1.19,-149.84,-6.1,-157.41
2026-07-27 13:49:06.280,0.36,-0.07,1.1,-104.31,41.38,-95.89
2026-07-27 13:49:06.280,0.36,-0.07,1.1,-104.31,41.38,-95.89
2026-07-27 13:49:06.367,0.26,-0.11,1.07,-21.61,88.99,-44.56
2026-07-27 13:49:06.368,0.26,-0.11,1.07,43.52,112.49,-16.91
2026-07-27 13:49:06.368,0.14,-0.09,1.09,43.52,112.49,-16.91
2026-07-27 13:49:06.543,0.06,-0.03,1.2,69.76,113.89,-1.95
2026-07-27 13:49:06.543,0.06,-0.03,1.2,69.76,113.89,-1.95
2026-07-27 13:49:06.543,0.04,0.06,1.27,84.23,88.62,-6.84
2026-07-27 13:49:06.543,0.04,0.06,1.27,84.23,88.62,-6.84
2026-07-27 13:49:06.544,0.04,0.06,1.27,84.23,88.62,-6.84
2026-07-27 13:49:06.545,0.04,0.06,1.27,84.23,88.62,-6.84
2026-07-27 13:49:06.546,0.01,0.15,1.14,93.87,52.43,-21.0
2026-07-27 13:49:06.547,-0.02,0.13,1.09,58.23,61.52,0.73
2026-07-27 13:49:06.677,-0.02,0.13,1.09,58.23,61.52,0.73
2026-07-27 13:49:06.677,-0.11,0.06,1.13,9.89,74.89,49.5
2026-07-27 13:49:06.678,-0.17,0.0,1.19,-35.4,80.57,89.36
2026-07-27 13:49:06.678,-0.17,0.0,1.19,-35.4,80.57,89.36
2026-07-27 13:49:06.678,-0.27,-0.03,1.16,-55.3,74.77,95.28
2026-07-27 13:49:06.678,-0.27,-0.03,1.16,-55.3,74.77,95.28
2026-07-27 13:49:06.848,-0.4,-0.0,1.1,-53.53,62.62,79.53
2026-07-27 13:49:06.849,-0.46,0.05,1.06,-42.11,49.19,57.37
2026-07-27 13:49:06.849,-0.46,0.05,1.06,-42.11,49.19,57.37
2026-07-27 13:49:06.850,-0.37,0.12,1.02,-25.63,39.86,36.38
2026-07-27 13:49:06.851,-0.37,0.12,1.02,-25.63,39.86,36.38
2026-07-27 13:49:06.852,-0.24,0.17,0.97,-21.0,32.71,31.37
2026-07-27 13:49:06.852,-0.21,0.19,0.92,-36.19,15.75,50.23
2026-07-27 13:49:06.893,-0.21,0.19,0.92,-36.19,15.75,50.23
2026-07-27 13:49:06.893,-0.3,0.21,0.9,-54.02,-15.99,78.12
2026-07-27 13:49:06.936,-0.3,0.21,0.9,-54.02,-15.99,78.12
2026-07-27 13:49:06.936,-0.42,0.25,0.92,-56.76,-52.06,92.96
2026-07-27 13:49:07.111,-0.49,0.28,0.97,-46.57,-73.36,91.31
2026-07-27 13:49:07.111,-0.49,0.28,0.97,-46.57,-73.36,91.31
2026-07-27 13:49:07.112,-0.5,0.26,1.04,-32.53,-74.95,79.1
2026-07-27 13:49:07.112,-0.5,0.26,1.04,-32.53,-74.95,79.1
2026-07-27 13:49:07.114,-0.51,0.22,1.04,-15.26,-82.52,57.92
2026-07-27 13:49:07.115,-0.55,0.22,0.91,6.9,-108.89,33.51
2026-07-27 13:49:07.115,-0.55,0.22,0.91,6.9,-108.89,33.51
2026-07-27 13:49:07.242,-0.61,0.2,0.72,22.95,-126.22,18.19
2026-07-27 13:49:07.242,-0.61,0.2,0.72,22.95,-126.22,18.19
2026-07-27 13:49:07.243,-0.63,0.12,0.6,25.45,-117.55,16.11
2026-07-27 13:49:07.244,-0.6,0.01,0.59,25.88,-91.98,19.59
2026-07-27 13:49:07.244,-0.6,0.01,0.59,25.88,-91.98,19.59
2026-07-27 13:49:07.331,-0.57,-0.09,0.65,24.96,-55.05,21.24
2026-07-27 13:49:07.331,-0.57,-0.09,0.65,14.34,-12.76,15.93
2026-07-27 13:49:07.331,-0.53,-0.13,0.77,14.34,-12.76,15.93
2026-07-27 13:49:07.331,-0.47,-0.15,0.93,0.73,17.27,-1.95
2026-07-27 13:49:07.462,-0.47,-0.15,0.93,0.73,17.27,-1.95
2026-07-27 13:49:07.462,-0.4,-0.13,1.03,-5.25,29.17,-39.43
2026-07-27 13:49:07.462,-0.4,-0.13,1.03,-4.76,33.87,-88.87
2026-07-27 13:49:07.464,-0.34,-0.04,1.04,-4.76,33.87,-88.87
2026-07-27 13:49:07.464,-0.26,0.03,1.03,-3.36,36.74,-124.69
2026-07-27 13:49:07.464,-0.26,0.03,1.03,-3.36,36.74,-124.69
2026-07-27 13:49:07.636,-0.21,0.05,1.02,0.31,35.16,-136.6
2026-07-27 13:49:07.636,-0.21,0.05,1.02,8.12,27.47,-137.08
2026-07-27 13:49:07.637,-0.19,0.06,1.02,8.12,27.47,-137.08
2026-07-27 13:49:07.638,-0.2,0.11,0.99,16.3,14.28,-135.8
2026-07-27 13:49:07.639,-0.2,0.11,0.99,16.3,14.28,-135.8
2026-07-27 13:49:07.640,-0.21,0.15,0.95,22.09,0.0,-130.62
2026-07-27 13:49:07.640,-0.21,0.15,0.95,30.15,-9.7,-121.77
2026-07-27 13:49:07.680,-0.2,0.15,0.91,30.15,-9.7,-121.77
2026-07-27 13:49:07.680,-0.23,0.13,0.89,48.77,-17.76,-111.39
2026-07-27 13:49:07.723,-0.23,0.13,0.89,48.77,-17.76,-111.39
2026-07-27 13:49:07.724,-0.34,0.17,0.92,83.19,-26.31,-99.43
2026-07-27 13:49:07.767,-0.42,0.28,1.03,120.67,-29.91,-89.78
2026-07-27 13:49:07.767,-0.42,0.28,1.03,120.67,-29.91,-89.78
2026-07-27 13:49:07.855,-0.3,0.35,1.13,122.13,-27.71,-86.73
2026-07-27 13:49:07.942,-0.3,0.35,1.13,122.13,-27.71,-86.73
2026-07-27 13:49:07.942,-0.11,0.36,1.05,87.52,-27.59,-81.97
2026-07-27 13:49:07.942,-0.11,0.35,0.83,61.22,-34.85,-63.96
2026-07-27 13:49:07.943,-0.11,0.35,0.83,61.22,-34.85,-63.96
2026-07-27 13:49:07.944,-0.26,0.33,0.68,47.18,-44.86,-42.79
2026-07-27 13:49:07.945,-0.26,0.33,0.68,47.18,-44.86,-42.79
2026-07-27 13:49:07.986,-0.35,0.4,0.67,24.78,-38.76,-30.76
2026-07-27 13:49:08.074,-0.33,0.51,0.8,-9.95,-10.19,-28.93
2026-07-27 13:49:08.074,-0.33,0.51,0.8,-9.95,-10.19,-28.93
2026-07-27 13:49:08.074,-0.28,0.58,0.98,-48.4,17.58,-39.31
2026-07-27 13:49:08.075,-0.28,0.58,0.98,-48.4,17.58,-39.31
2026-07-27 13:49:08.118,-0.25,0.58,1.09,-63.96,18.74,-62.81
2026-07-27 13:49:08.118,-0.21,0.56,1.07,-44.98,-12.94,-90.52
2026-07-27 13:49:08.249,-0.21,0.56,1.07,-44.98,-12.94,-90.52
2026-07-27 13:49:08.249,-0.15,0.55,0.99,-7.14,-62.38,-110.23
2026-07-27 13:49:08.249,-0.15,0.55,0.99,-7.14,-62.38,-110.23
2026-07-27 13:49:08.250,-0.05,0.53,1.0,16.48,-106.2,-112.0
2026-07-27 13:49:08.252,0.11,0.5,1.13,13.67,-125.49,-100.89
2026-07-27 13:49:08.252,0.11,0.5,1.13,13.67,-125.49,-100.89
2026-07-27 13:49:08.294,0.3,0.46,1.29,-18.43,-112.3,-83.68
2026-07-27 13:49:08.336,0.3,0.46,1.29,-82.58,-77.76,-62.68
2026-07-27 13:49:08.336,0.43,0.34,1.3,-82.58,-77.76,-62.68
2026-07-27 13:49:08.385,0.47,0.16,1.13,-126.89,-46.81,-51.15
2026-07-27 13:49:08.385,0.47,0.16,1.13,-126.89,-46.81,-51.15
2026-07-27 13:49:08.467,0.47,0.01,0.96,-108.64,-29.6,-48.83
2026-07-27 13:49:08.467,0.43,-0.02,0.89,-24.84,-28.14,-51.57
2026-07-27 13:49:08.468,0.43,-0.02,0.89,-24.84,-28.14,-51.57
2026-07-27 13:49:08.469,0.33,0.04,0.84,84.41,-43.88,-48.16
2026-07-27 13:49:08.523,0.33,0.04,0.84,84.41,-43.88,-48.16
2026-07-27 13:49:08.523,0.22,0.09,0.87,138.31,-58.72,-19.71
2026-07-27 13:49:08.598,0.21,0.1,1.06,90.76,-39.0,16.42
2026-07-27 13:49:08.599,0.21,0.1,1.06,90.76,-39.0,16.42
2026-07-27 13:49:08.599,0.2,0.16,1.15,-4.76,8.42,14.59
2026-07-27 13:49:08.650,0.05,0.24,0.92,-41.08,16.24,-16.42
2026-07-27 13:49:08.652,0.05,0.24,0.92,-41.08,16.24,-16.42
2026-07-27 13:49:08.686,-0.17,0.24,0.6,0.85,-36.93,-20.14
2026-07-27 13:49:08.686,-0.17,0.24,0.6,0.85,-36.93,-20.14
2026-07-27 13:49:08.729,-0.28,0.11,0.49,59.57,-74.71,-23.56
2026-07-27 13:49:08.773,-0.18,-0.0,0.62,84.66,-65.49,-67.32
2026-07-27 13:49:08.774,-0.18,-0.0,0.62,84.66,-65.49,-67.32
2026-07-27 13:49:08.820,0.08,0.09,0.77,64.82,-34.97,-112.73
2026-07-27 13:49:08.820,0.08,0.09,0.77,64.82,-34.97,-112.73
2026-07-27 13:49:08.867,0.32,0.27,0.76,40.65,-1.46,-125.0
2026-07-27 13:49:08.868,0.4,0.38,0.71,37.6,25.21,-97.66
2026-07-27 13:49:08.904,0.4,0.38,0.71,37.6,25.21,-97.66
2026-07-27 13:49:08.905,0.39,0.38,0.77,19.17,37.29,-50.17
2026-07-27 13:49:08.993,0.39,0.38,0.77,19.17,37.29,-50.17
2026-07-27 13:49:08.993,0.37,0.36,0.88,-13.98,28.5,-13.85
2026-07-27 13:49:08.994,0.39,0.37,0.9,-31.43,13.18,3.97
2026-07-27 13:49:08.994,0.39,0.37,0.9,-31.43,13.18,3.97
2026-07-27 13:49:09.126,0.4,0.37,0.91,-41.99,9.22,17.46
2026-07-27 13:49:09.127,0.4,0.37,0.91,-41.99,9.22,17.46
2026-07-27 13:49:09.127,0.4,0.36,0.96,-43.4,17.15,38.82
2026-07-27 13:49:09.127,0.37,0.38,1.06,-30.33,25.21,62.99
2026-07-27 13:49:09.127,0.37,0.38,1.06,-30.33,25.21,62.99
2026-07-27 13:49:09.217,0.33,0.44,1.25,-27.1,40.59,85.51
2026-07-27 13:49:09.220,0.33,0.44,1.25,-27.1,40.59,85.51
2026-07-27 13:49:09.220,0.24,0.51,1.46,-51.33,71.47,109.56
2026-07-27 13:49:09.220,0.12,0.47,1.42,-95.46,97.23,128.78
2026-07-27 13:49:09.256,0.12,0.47,1.42,-95.46,97.23,128.78
2026-07-27 13:49:09.256,0.02,0.35,1.08,-145.69,94.6,135.5
2026-07-27 13:49:09.342,0.02,0.35,1.08,-145.69,94.6,135.5
2026-07-27 13:49:09.342,-0.05,0.23,0.83,-191.47,79.28,135.31
2026-07-27 13:49:09.343,-0.14,0.05,0.83,-220.7,75.74,127.01
2026-07-27 13:49:09.517,-0.14,0.05,0.83,-220.7,75.74,127.01
2026-07-27 13:49:09.517,-0.24,-0.17,0.95,-213.56,65.55,106.08
2026-07-27 13:49:09.518,-0.24,-0.17,0.95,-213.56,65.55,106.08
2026-07-27 13:49:09.520,-0.24,-0.17,0.95,-213.56,65.55,106.08
2026-07-27 13:49:09.520,-0.24,-0.17,0.95,-213.56,65.55,106.08
2026-07-27 13:49:09.524,-0.24,-0.27,0.87,-109.5,-31.62,73.73
2026-07-27 13:49:09.524,-0.24,-0.27,0.67,-35.95,-47.3,64.64
2026-07-27 13:49:09.525,-0.24,-0.27,0.67,-35.95,-47.3,64.64
2026-07-27 13:49:09.604,-0.29,-0.3,0.48,58.53,18.92,58.84
2026-07-27 13:49:09.605,-0.29,-0.3,0.48,58.53,18.92,58.84
2026-07-27 13:49:09.605,-0.29,-0.3,0.48,58.53,18.92,58.84
2026-07-27 13:49:09.606,-0.29,-0.3,0.48,58.53,18.92,58.84
2026-07-27 13:49:09.780,-0.36,-0.17,0.51,150.63,51.82,72.02
2026-07-27 13:49:09.780,-0.36,-0.06,0.73,138.92,-26.67,55.24
2026-07-27 13:49:09.780,-0.36,-0.06,0.73,138.92,-26.67,55.24
2026-07-27 13:49:09.781,-0.35,0.07,0.93,133.91,-56.09,25.51
2026-07-27 13:49:09.782,-0.35,0.07,0.93,130.68,-38.82,4.58
2026-07-27 13:49:09.797,-0.31,0.17,1.07,130.68,-38.82,4.58
2026-07-27 13:49:09.799,-0.3,0.22,1.18,114.99,-8.48,-8.24
2026-07-27 13:49:09.799,-0.3,0.22,1.18,114.99,-8.48,-8.24
2026-07-27 13:49:09.956,-0.43,0.26,1.26,94.73,20.57,-28.14
2026-07-27 13:49:09.956,-0.61,0.28,1.18,72.39,37.29,-61.22
2026-07-27 13:49:09.956,-0.61,0.28,1.18,72.39,37.29,-61.22
2026-07-27 13:49:09.956,-0.66,0.21,0.88,41.14,31.19,-84.47
2026-07-27 13:49:09.957,-0.66,0.21,0.88,41.14,31.19,-84.47
2026-07-27 13:49:09.958,-0.6,0.12,0.56,24.54,8.91,-74.22
2026-07-27 13:49:09.959,-0.6,0.12,0.56,24.54,8.91,-74.22
2026-07-27 13:49:10.088,-0.6,0.12,0.56,24.54,8.91,-74.22
2026-07-27 13:49:10.088,-0.6,0.12,0.56,24.54,8.91,-74.22
2026-07-27 13:49:10.089,-0.51,0.15,0.34,84.66,-32.1,-58.96
2026-07-27 13:49:10.089,-0.46,0.29,0.35,120.67,-67.93,-101.07
2026-07-27 13:49:10.089,-0.46,0.29,0.35,120.67,-67.93,-101.07
2026-07-27 13:49:10.090,-0.32,0.4,0.38,120.48,-163.39,-133.67
2026-07-27 13:49:10.130,-0.32,0.4,0.38,76.35,-239.07,-138.92
2026-07-27 13:49:10.130,-0.17,0.4,0.44,76.35,-239.07,-138.92
2026-07-27 13:49:10.173,-0.09,0.38,0.51,35.4,-205.57,-141.54
2026-07-27 13:49:10.219,-0.09,0.38,0.51,35.4,-205.57,-141.54
2026-07-27 13:49:10.220,-0.07,0.42,0.58,31.68,-115.05,-157.71
2026-07-27 13:49:10.392,-0.07,0.5,0.6,51.03,-43.33,-177.31
2026-07-27 13:49:10.394,-0.07,0.5,0.6,51.03,-43.33,-177.31
2026-07-27 13:49:10.395,-0.04,0.6,0.65,62.26,-24.35,-176.45
2026-07-27 13:49:10.395,-0.04,0.6,0.65,62.26,-24.35,-176.45
2026-07-27 13:49:10.395,0.1,0.74,0.81,60.73,-58.47,-145.51
2026-07-27 13:49:10.397,0.28,0.81,0.94,58.9,-94.42,-101.62
2026-07-27 13:49:10.479,0.28,0.81,0.94,58.9,-94.42,-101.62
2026-07-27 13:49:10.480,0.22,0.84,1.0,33.26,-48.52,-76.84
2026-07-27 13:49:10.480,0.22,0.84,1.0,33.26,-48.52,-76.84
2026-07-27 13:49:10.481,-0.05,0.83,1.08,-29.97,68.42,-62.62
2026-07-27 13:49:10.481,-0.28,0.76,1.18,-90.64,169.98,-29.66
2026-07-27 13:49:10.523,-0.28,0.76,1.18,-90.64,169.98,-29.66
2026-07-27 13:49:10.524,-0.36,0.67,1.26,-106.63,206.54,18.8
2026-07-27 13:49:10.567,-0.36,0.67,1.26,-83.44,193.66,65.25
2026-07-27 13:49:10.567,-0.39,0.61,1.29,-83.44,193.66,65.25
2026-07-27 13:49:10.611,-0.47,0.57,1.34,-65.0,171.2,101.81
2026-07-27 13:49:10.655,-0.47,0.57,1.34,-80.81,146.42,121.83
2026-07-27 13:49:10.656,-0.58,0.52,1.4,-80.81,146.42,121.83
2026-07-27 13:49:10.699,-0.63,0.47,1.41,-118.96,96.92,114.38
2026-07-27 13:49:10.699,-0.63,0.47,1.41,-118.96,96.92,114.38
2026-07-27 13:49:10.742,-0.62,0.49,1.27,-155.27,16.48,81.73
2026-07-27 13:49:10.742,-0.63,0.57,0.99,-175.23,-70.5,46.69
2026-07-27 13:49:10.788,-0.63,0.57,0.99,-175.23,-70.5,46.69
2026-07-27 13:49:10.832,-0.64,0.63,0.68,-177.98,-129.03,30.09
2026-07-27 13:49:10.832,-0.64,0.63,0.68,-177.98,-129.03,30.09
2026-07-27 13:49:11.048,-0.62,0.61,0.42,-166.2,-140.56,35.58
2026-07-27 13:49:11.064,-0.58,0.54,0.26,-145.26,-112.37,50.78
2026-07-27 13:49:11.095,-0.58,0.54,0.26,-145.26,-112.37,50.78
2026-07-27 13:49:11.095,-0.54,0.45,0.22,-116.21,-68.85,60.36
2026-07-27 13:49:11.095,-0.54,0.45,0.22,-116.21,-68.85,60.36
2026-07-27 13:49:11.095,-0.55,0.38,0.23,-70.68,-30.94,57.8
2026-07-27 13:49:11.095,-0.64,0.37,0.26,-10.8,-0.92,41.69
2026-07-27 13:49:11.096,-0.64,0.37,0.26,-10.8,-0.92,41.69
2026-07-27 13:49:11.096,-0.82,0.45,0.35,51.21,31.86,9.89
2026-07-27 13:49:11.097,-0.82,0.45,0.35,51.21,31.86,9.89
2026-07-27 13:49:11.098,-1.04,0.63,0.54,121.09,78.06,-41.26
2026-07-27 13:49:11.135,-1.1,0.78,0.82,209.9,126.77,-105.04
2026-07-27 13:49:11.136,-1.1,0.78,0.82,209.9,126.77,-105.04
2026-07-27 13:49:11.266,-0.87,0.86,1.01,295.23,145.75,-164.12
2026-07-27 13:49:11.267,-0.54,0.95,1.04,333.07,132.69,-202.58
2026-07-27 13:49:11.268,-0.54,0.95,1.04,333.07,132.69,-202.58
2026-07-27 13:49:11.272,-0.44,1.05,1.01,291.93,122.13,-197.51
2026-07-27 13:49:11.272,-0.44,1.05,1.01,291.93,122.13,-197.51
2026-07-27 13:49:11.272,-0.57,1.0,1.01,193.24,119.87,-130.13
2026-07-27 13:49:11.310,-0.64,0.76,0.97,118.65,104.31,-33.94
2026-07-27 13:49:11.355,-0.64,0.76,0.97,118.65,104.31,-33.94
2026-07-27 13:49:11.356,-0.57,0.53,0.87,95.15,87.59,29.79
2026-07-27 13:49:11.442,-0.57,0.53,0.87,74.52,93.81,48.77
2026-07-27 13:49:11.442,-0.5,0.43,0.81,74.52,93.81,48.77
2026-07-27 13:49:11.443,-0.5,0.37,0.83,40.16,110.78,47.97
2026-07-27 13:49:11.444,-0.5,0.37,0.83,40.16,110.78,47.97
2026-07-27 13:49:11.530,-0.54,0.32,0.86,7.32,108.7,43.76
2026-07-27 13:49:11.531,-0.55,0.28,0.85,-19.1,81.05,38.33
2026-07-27 13:49:11.531,-0.55,0.28,0.85,-19.1,81.05,38.33
2026-07-27 13:49:11.574,-0.55,0.29,0.82,-43.15,46.57,30.33
2026-07-27 13:49:11.574,-0.55,0.29,0.82,-43.15,46.57,30.33
2026-07-27 13:49:11.621,-0.55,0.39,0.83,-67.44,21.67,19.53
2026-07-27 13:49:11.622,-0.57,0.55,0.85,-91.37,4.27,8.85
2026-07-27 13:49:11.705,-0.57,0.55,0.85,-91.37,4.27,8.85
2026-07-27 13:49:11.705,-0.67,0.73,0.88,-111.63,-16.24,1.65
2026-07-27 13:49:11.705,-0.67,0.73,0.88,-111.63,-16.24,1.65
2026-07-27 13:49:11.706,-0.9,0.93,0.93,-126.95,-42.05,-7.51
2026-07-27 13:49:11.748,-1.06,1.02,0.97,-139.34,-69.52,-11.23
2026-07-27 13:49:11.748,-1.06,1.02,0.97,-139.34,-69.52,-11.23
2026-07-27 13:49:11.792,-1.03,0.93,0.99,-143.07,-95.76,4.27
2026-07-27 13:49:11.792,-1.03,0.93,0.99,-143.07,-95.76,4.27
2026-07-27 13:49:11.883,-0.98,0.91,0.97,-151.0,-112.67,17.27
2026-07-27 13:49:11.883,-1.02,1.02,0.92,-181.76,-119.2,12.51
2026-07-27 13:49:11.883,-1.02,1.02,0.92,-181.76,-119.2,12.51
2026-07-27 13:49:12.011,-1.11,1.07,0.82,-213.5,-125.85,6.71
2026-07-27 13:49:12.012,-1.11,1.07,0.82,-213.5,-125.85,6.71
2026-07-27 13:49:12.098,-1.12,0.96,0.69,-211.67,-136.11,9.16
2026-07-27 13:49:12.098,-1.0,0.78,0.55,-178.53,-142.76,14.83
2026-07-27 13:49:12.099,-1.0,0.78,0.55,-178.53,-142.76,14.83
2026-07-27 13:49:12.099,-0.82,0.64,0.43,-144.59,-136.9,19.84
2026-07-27 13:49:12.101,-0.82,0.64,0.43,-144.59,-136.9,19.84
2026-07-27 13:49:12.101,-0.66,0.54,0.32,-126.4,-117.98,25.02
2026-07-27 13:49:12.103,-0.58,0.46,0.22,-119.87,-93.32,29.42
2026-07-27 13:49:12.186,-0.58,0.46,0.22,-119.87,-93.32,29.42
2026-07-27 13:49:12.186,-0.57,0.41,0.12,-112.37,-72.33,32.04
2026-07-27 13:49:12.187,-0.58,0.38,0.02,-92.59,-57.37,37.23
2026-07-27 13:49:12.187,-0.58,0.38,0.02,-92.59,-57.37,37.23
2026-07-27 13:49:12.230,-0.63,0.37,-0.06,-49.93,-37.84,43.76
2026-07-27 13:49:12.230,-0.63,0.37,-0.06,-49.93,-37.84,43.76
2026-07-27 13:49:12.317,-0.72,0.41,-0.01,26.73,-0.67,43.4
2026-07-27 13:49:12.365,-0.92,0.56,0.16,118.23,56.76,31.98
2026-07-27 13:49:12.365,-0.92,0.56,0.16,118.23,56.76,31.98
2026-07-27 13:49:12.366,-1.24,0.81,0.44,187.93,126.95,8.42
2026-07-27 13:49:12.405,-1.24,0.81,0.44,187.93,126.95,8.42
2026-07-27 13:49:12.405,-1.47,1.01,0.81,234.25,187.56,-18.43
2026-07-27 13:49:12.405,-1.38,1.04,1.2,275.51,207.7,-40.95
2026-07-27 13:49:12.499,-1.38,1.04,1.2,275.51,207.7,-40.95
2026-07-27 13:49:12.500,-1.07,0.96,1.47,307.01,187.44,-68.24
2026-07-27 13:49:12.500,-1.07,0.96,1.47,307.01,187.44,-68.24
2026-07-27 13:49:12.500,-0.83,0.86,1.57,314.21,150.27,-105.04
2026-07-27 13:49:12.580,-0.7,0.84,1.47,294.37,97.72,-135.07
2026-07-27 13:49:12.580,-0.7,0.84,1.47,294.37,97.72,-135.07
2026-07-27 13:49:12.581,-0.55,0.8,1.19,254.27,29.72,-133.24
2026-07-27 13:49:12.623,-0.55,0.8,1.19,254.27,29.72,-133.24
2026-07-27 13:49:12.623,-0.55,0.8,1.19,254.27,29.72,-133.24
2026-07-27 13:49:12.802,-0.37,0.54,0.59,138.85,-30.15,-40.65
2026-07-27 13:49:12.802,-0.37,0.54,0.59,138.85,-30.15,-40.65
2026-07-27 13:49:12.802,-0.41,0.46,0.5,90.7,-10.86,-5.0
2026-07-27 13:49:12.803,-0.41,0.46,0.5,90.7,-10.86,-5.0
2026-07-27 13:49:12.803,-0.41,0.46,0.5,90.7,-10.86,-5.0
2026-07-27 13:49:12.803,-0.41,0.46,0.5,90.7,-10.86,-5.0
2026-07-27 13:49:12.803,-0.53,0.39,0.73,72.57,9.03,14.77
2026-07-27 13:49:12.804,-0.61,0.37,0.95,80.87,7.14,13.31
2026-07-27 13:49:12.846,-0.61,0.37,0.95,80.87,7.14,13.31
2026-07-27 13:49:12.846,-0.7,0.36,1.09,66.41,-2.2,15.87
2026-07-27 13:49:12.886,-0.7,0.36,1.09,66.41,-2.2,15.87
2026-07-27 13:49:12.886,-0.8,0.38,1.06,21.36,-19.29,27.53
2026-07-27 13:49:12.929,-0.94,0.46,0.94,-41.69,-33.39,40.89
2026-07-27 13:49:12.929,-0.94,0.46,0.94,-41.69,-33.39,40.89
2026-07-27 13:49:13.017,-1.07,0.53,0.86,-98.82,-39.0,51.39
2026-07-27 13:49:13.017,-1.07,0.53,0.86,-98.82,-39.0,51.39
2026-07-27 13:49:13.018,-1.02,0.51,0.82,-127.5,-45.47,62.5
2026-07-27 13:49:13.073,-0.87,0.54,0.81,-132.57,-54.26,63.78
2026-07-27 13:49:13.074,-0.87,0.54,0.81,-132.57,-54.26,63.78
2026-07-27 13:49:13.148,-0.85,0.68,0.85,-145.45,-57.68,46.02
2026-07-27 13:49:13.148,-0.85,0.68,0.85,-145.45,-57.68,46.02
2026-07-27 13:49:13.150,-0.97,0.81,0.91,-175.96,-67.93,23.25
2026-07-27 13:49:13.205,-1.07,0.87,0.9,-192.99,-99.43,3.05
2026-07-27 13:49:13.205,-1.07,0.87,0.9,-192.99,-99.43,3.05
2026-07-27 13:49:13.280,-1.04,0.9,0.79,-176.51,-137.57,-15.56
2026-07-27 13:49:13.280,-1.04,0.9,0.79,-145.39,-158.33,-22.52
2026-07-27 13:49:13.282,-0.92,0.88,0.63,-145.39,-158.33,-22.52
2026-07-27 13:49:13.282,-0.75,0.81,0.49,-124.15,-153.63,-10.31
2026-07-27 13:49:13.323,-0.75,0.81,0.49,-124.15,-153.63,-10.31
2026-07-27 13:49:13.372,-0.61,0.69,0.36,-117.0,-129.94,14.77
2026-07-27 13:49:13.373,-0.51,0.57,0.25,-115.48,-97.47,42.66
2026-07-27 13:49:13.373,-0.51,0.57,0.25,-115.48,-97.47,42.66
2026-07-27 13:49:13.418,-0.47,0.45,0.15,-108.89,-64.27,64.94
2026-07-27 13:49:13.418,-0.47,0.45,0.15,-108.89,-64.27,64.94
2026-07-27 13:49:13.455,-0.5,0.36,0.08,-89.11,-35.34,75.13
2026-07-27 13:49:13.499,-0.58,0.31,0.06,-53.96,-12.94,71.78
2026-07-27 13:49:13.500,-0.58,0.31,0.06,-53.96,-12.94,71.78
2026-07-27 13:49:13.543,-0.69,0.31,0.07,-6.35,6.59,56.03
2026-07-27 13:49:13.543,-0.69,0.31,0.07,-6.35,6.59,56.03
2026-07-27 13:49:13.630,-0.79,0.37,0.12,49.19,28.93,32.35
2026-07-27 13:49:13.630,-0.94,0.53,0.21,104.37,60.55,6.23
2026-07-27 13:49:13.630,-0.94,0.53,0.21,104.37,60.55,6.23
2026-07-27 13:49:13.631,-1.22,0.8,0.36,150.57,108.58,-23.01
2026-07-27 13:49:13.763,-1.22,0.8,0.36,150.57,108.58,-23.01
2026-07-27 13:49:13.763,-1.54,1.07,0.66,194.09,172.0,-57.92
2026-07-27 13:49:13.764,-1.59,1.19,1.1,249.39,217.96,-87.46
2026-07-27 13:49:13.764,-1.59,1.19,1.1,249.39,217.96,-87.46
2026-07-27 13:49:13.764,-1.21,1.16,1.44,313.84,211.06,-105.77
2026-07-27 13:49:13.765,-1.21,1.16,1.44,313.84,211.06,-105.77
2026-07-27 13:49:13.805,-0.72,1.07,1.6,349.67,170.9,-120.91
2026-07-27 13:49:13.936,-0.47,0.93,1.59,314.51,122.44,-121.03
2026-07-27 13:49:13.938,-0.47,0.93,1.59,314.51,122.44,-121.03
2026-07-27 13:49:13.938,-0.49,0.73,1.28,212.34,48.22,-84.96
2026-07-27 13:49:13.938,-0.56,0.52,0.79,103.21,-42.97,-26.86
2026-07-27 13:49:13.939,-0.56,0.52,0.79,103.21,-42.97,-26.86
2026-07-27 13:49:13.939,-0.55,0.37,0.43,38.94,-99.85,13.67
2026-07-27 13:49:14.025,-0.55,0.37,0.43,38.94,-99.85,13.67
2026-07-27 13:49:14.025,-0.5,0.35,0.33,16.42,-103.64,18.92
2026-07-27 13:49:14.025,-0.49,0.39,0.4,30.64,-80.44,3.11
2026-07-27 13:49:14.111,-0.49,0.39,0.4,30.64,-80.44,3.11
2026-07-27 13:49:14.111,-0.51,0.42,0.47,82.28,-57.07,-12.39
2026-07-27 13:49:14.112,-0.51,0.42,0.47,82.28,-57.07,-12.39
2026-07-27 13:49:14.113,-0.53,0.5,0.54,135.5,-35.16,-18.62
2026-07-27 13:49:14.373,-0.59,0.57,0.65,122.38,-14.71,-2.14
2026-07-27 13:49:14.374,-0.59,0.57,0.65,122.38,-14.71,-2.14
2026-07-27 13:49:14.374,-0.71,0.54,0.68,54.02,-4.09,38.64
2026-07-27 13:49:14.375,-0.71,0.54,0.68,54.02,-4.09,38.64
2026-07-27 13:49:14.376,-0.83,0.51,0.61,0.43,2.75,69.15
2026-07-27 13:49:14.465,-0.87,0.54,0.52,-31.31,14.4,73.06
2026-07-27 13:49:14.466,-0.87,0.54,0.52,-31.31,14.4,73.06
2026-07-27 13:49:14.466,-0.89,0.59,0.45,-55.36,29.72,68.18
2026-07-27 13:49:14.466,-0.89,0.59,0.45,-55.36,29.72,68.18
2026-07-27 13:49:14.467,-0.94,0.63,0.49,-71.47,52.55,64.39
2026-07-27 13:49:14.467,-0.94,0.56,0.72,-78.25,77.45,63.05
2026-07-27 13:49:14.467,-0.94,0.56,0.72,-78.25,77.45,63.05
2026-07-27 13:49:14.467,-0.85,0.52,0.95,-80.87,78.06,53.65
2026-07-27 13:49:14.468,-0.85,0.52,0.95,-80.87,78.06,53.65
2026-07-27 13:49:14.468,-0.82,0.73,1.04,-107.73,43.58,19.47
2026-07-27 13:49:14.595,-0.98,1.06,0.99,-176.7,-10.56,-21.79
2026-07-27 13:49:14.595,-0.98,1.06,0.99,-176.7,-10.56,-21.79
2026-07-27 13:49:14.595,-1.16,1.23,0.85,-243.04,-68.48,-38.39
2026-07-27 13:49:14.595,-1.16,1.23,0.85,-243.04,-68.48,-38.39
2026-07-27 13:49:14.596,-1.21,1.17,0.66,-256.84,-118.96,-30.58
2026-07-27 13:49:14.636,-1.1,1.02,0.47,-226.5,-152.1,-20.14
2026-07-27 13:49:14.636,-1.1,1.02,0.47,-226.5,-152.1,-20.14
2026-07-27 13:49:14.680,-0.92,0.88,0.34,-186.04,-160.77,-16.66
2026-07-27 13:49:14.767,-0.77,0.75,0.26,-158.08,-145.02,-13.31
2026-07-27 13:49:14.768,-0.77,0.75,0.26,-158.08,-145.02,-13.31
2026-07-27 13:49:14.768,-0.65,0.59,0.2,-136.47,-121.77,-6.04
2026-07-27 13:49:14.769,-0.65,0.59,0.2,-136.47,-121.77,-6.04
2026-07-27 13:49:14.769,-0.65,0.59,0.2,-136.47,-121.77,-6.04
2026-07-27 13:49:14.811,-0.65,0.59,0.2,-136.47,-121.77,-6.04
2026-07-27 13:49:14.855,-0.44,0.33,-0.07,-56.27,-90.82,12.27
2026-07-27 13:49:14.856,-0.41,0.26,-0.2,-17.27,-56.15,18.92
2026-07-27 13:49:14.909,-0.41,0.26,-0.2,-17.27,-56.15,18.92
2026-07-27 13:49:14.910,-0.47,0.26,-0.22,14.34,-1.71,15.2
2026-07-27 13:49:14.942,-0.47,0.26,-0.22,14.34,-1.71,15.2
2026-07-27 13:49:14.985,-0.63,0.34,-0.16,47.61,55.11,5.55
2026-07-27 13:49:14.986,-0.89,0.53,-0.11,87.46,100.77,-3.6
2026-07-27 13:49:14.986,-0.89,0.53,-0.11,87.46,100.77,-3.6
2026-07-27 13:49:15.043,-1.28,0.89,-0.0,138.92,140.56,-15.44
2026-07-27 13:49:15.044,-1.28,0.89,-0.0,138.92,140.56,-15.44
2026-07-27 13:49:15.168,-1.67,1.34,0.29,209.41,182.31,-36.87
2026-07-27 13:49:15.170,-1.78,1.66,0.8,293.64,212.71,-60.67
2026-07-27 13:49:15.170,-1.78,1.66,0.8,293.64,212.71,-60.67
2026-07-27 13:49:15.170,-1.52,1.63,1.38,366.88,209.47,-72.88
2026-07-27 13:49:15.170,-1.05,1.29,1.82,371.09,178.71,-67.69
2026-07-27 13:49:15.336,-1.05,1.29,1.82,371.09,178.71,-67.69
2026-07-27 13:49:15.336,-0.65,0.88,1.88,268.37,124.69,-47.36
2026-07-27 13:49:15.337,-0.65,0.88,1.88,268.37,124.69,-47.36
2026-07-27 13:49:15.339,-0.51,0.62,1.42,131.96,19.65,-26.92
2026-07-27 13:49:15.339,-0.56,0.53,0.7,56.76,-107.36,-18.55
2026-07-27 13:49:15.343,-0.56,0.53,0.7,56.76,-107.36,-18.55
2026-07-27 13:49:15.343,-0.63,0.45,0.24,37.05,-171.39,-20.02
2026-07-27 13:49:15.343,-0.63,0.45,0.24,37.05,-171.39,-20.02
2026-07-27 13:49:15.468,-0.61,0.39,0.13,36.8,-155.7,-28.63
2026-07-27 13:49:15.468,-0.49,0.44,0.2,51.82,-111.15,-44.25
2026-07-27 13:49:15.468,-0.49,0.44,0.2,51.82,-111.15,-44.25
2026-07-27 13:49:15.469,-0.37,0.55,0.29,77.76,-80.63,-51.21
2026-07-27 13:49:15.469,-0.37,0.55,0.29,77.76,-80.63,-51.21
2026-07-27 13:49:15.510,-0.33,0.6,0.38,105.41,-67.69,-34.91
2026-07-27 13:49:15.557,-0.41,0.64,0.47,121.52,-47.55,-6.65
2026-07-27 13:49:15.557,-0.41,0.64,0.47,121.52,-47.55,-6.65
2026-07-27 13:49:15.693,-0.6,0.64,0.6,104.92,-5.8,25.51
2026-07-27 13:49:15.693,-0.6,0.64,0.6,58.72,44.49,59.02
2026-07-27 13:49:15.693,-0.81,0.54,0.74,58.72,44.49,59.02
2026-07-27 13:49:15.693,-0.96,0.44,0.84,10.8,76.17,79.53
2026-07-27 13:49:15.694,-0.96,0.44,0.84,10.8,76.17,79.53
2026-07-27 13:49:15.694,-1.0,0.44,0.84,-20.87,73.67,77.88
2026-07-27 13:49:15.732,-0.95,0.52,0.83,-36.19,53.53,62.62
2026-07-27 13:49:15.733,-0.95,0.52,0.83,-36.19,53.53,62.62
2026-07-27 13:49:15.831,-0.82,0.56,0.9,-49.26,44.68,48.89
2026-07-27 13:49:15.838,-0.82,0.56,0.9,-49.26,44.68,48.89
2026-07-27 13:49:15.838,-0.72,0.59,0.98,-81.6,46.94,38.82
2026-07-27 13:49:15.948,-0.76,0.73,0.98,-137.08,37.9,24.66
2026-07-27 13:49:15.949,-0.76,0.73,0.98,-137.08,37.9,24.66
2026-07-27 13:49:15.949,-0.93,0.94,0.93,-203.19,12.82,6.29
2026-07-27 13:49:15.950,-0.93,0.94,0.93,-203.19,12.82,6.29
2026-07-27 13:49:15.951,-1.12,1.11,0.89,-259.16,-19.59,-11.9
2026-07-27 13:49:15.951,-1.24,1.17,0.85,-275.51,-56.34,-27.47
2026-07-27 13:49:16.036,-1.24,1.17,0.85,-275.51,-56.34,-27.47
2026-07-27 13:49:16.036,-1.24,1.11,0.78,-249.88,-97.23,-41.2
2026-07-27 13:49:16.037,-1.24,1.11,0.78,-249.88,-97.23,-41.2
2026-07-27 13:49:16.038,-1.12,1.0,0.67,-202.27,-142.7,-54.38
2026-07-27 13:49:16.168,-0.93,0.92,0.51,-156.31,-178.41,-60.67
2026-07-27 13:49:16.168,-0.93,0.92,0.51,-156.31,-178.41,-60.67
2026-07-27 13:49:16.168,-0.75,0.82,0.32,-135.99,-180.6,-51.76
2026-07-27 13:49:16.169,-0.75,0.82,0.32,-139.34,-149.9,-30.33
2026-07-27 13:49:16.177,-0.61,0.66,0.15,-139.34,-149.9,-30.33
2026-07-27 13:49:16.254,-0.52,0.5,0.01,-140.56,-108.83,-10.19
2026-07-27 13:49:16.255,-0.52,0.5,0.01,-140.56,-108.83,-10.19
2026-07-27 13:49:16.255,-0.47,0.36,-0.1,-117.98,-74.77,0.31
2026-07-27 13:49:16.256,-0.45,0.27,-0.19,-67.08,-49.01,3.78
2026-07-27 13:49:16.298,-0.45,0.27,-0.19,-67.08,-49.01,3.78
2026-07-27 13:49:16.350,-0.46,0.27,-0.24,-0.98,-20.94,3.85
2026-07-27 13:49:16.350,-0.46,0.27,-0.24,-0.98,-20.94,3.85
2026-07-27 13:49:16.429,-0.57,0.41,-0.18,62.38,23.13,0.92
2026-07-27 13:49:16.606,-0.86,0.68,0.06,115.11,82.82,-7.57
2026-07-27 13:49:16.606,-0.86,0.68,0.06,115.11,82.82,-7.57
2026-07-27 13:49:16.607,-1.3,1.03,0.46,170.96,144.29,-24.29
2026-07-27 13:49:16.607,-1.3,1.03,0.46,170.96,144.29,-24.29
2026-07-27 13:49:16.607,-1.63,1.26,1.0,246.95,190.43,-49.87
2026-07-27 13:49:16.607,-1.6,1.33,1.47,328.8,199.83,-88.32
2026-07-27 13:49:16.608,-1.6,1.33,1.47,328.8,199.83,-88.32
2026-07-27 13:49:16.609,-1.24,1.31,1.68,383.12,171.14,-140.62
2026-07-27 13:49:16.610,-1.24,1.31,1.68,383.12,171.14,-140.62
2026-07-27 13:49:16.610,-0.82,1.23,1.68,385.01,135.25,-186.16
2026-07-27 13:49:16.648,-0.58,1.09,1.55,334.35,108.22,-199.58
2026-07-27 13:49:16.822,-0.58,1.09,1.55,334.35,108.22,-199.58
2026-07-27 13:49:16.866,-0.49,0.91,1.25,243.65,71.04,-165.41
2026-07-27 13:49:16.911,-0.47,0.69,0.82,139.4,17.82,-91.86
2026-07-27 13:49:16.911,-0.47,0.69,0.82,139.4,17.82,-91.86
2026-07-27 13:49:16.911,-0.45,0.51,0.48,63.48,-22.09,-24.78
2026-07-27 13:49:16.912,-0.45,0.51,0.48,63.48,-22.09,-24.78
2026-07-27 13:49:16.914,-0.4,0.46,0.34,38.64,-31.49,0.49
2026-07-27 13:49:16.914,-0.36,0.49,0.37,56.27,-24.35,-3.85
2026-07-27 13:49:16.914,-0.36,0.49,0.37,56.27,-24.35,-3.85
2026-07-27 13:49:16.915,-0.37,0.54,0.51,87.04,-14.95,-6.9
2026-07-27 13:49:16.916,-0.37,0.54,0.51,87.04,-14.95,-6.9
2026-07-27 13:49:16.917,-0.46,0.55,0.69,92.16,-1.83,9.95
2026-07-27 13:49:17.011,-0.66,0.48,0.86,54.57,15.69,43.82
2026-07-27 13:49:17.011,-0.66,0.48,0.86,54.57,15.69,43.82
2026-07-27 13:49:17.011,-0.9,0.37,0.96,-4.15,22.34,75.81
2026-07-27 13:49:17.011,-0.9,0.37,0.96,-4.15,22.34,75.81
2026-07-27 13:49:17.045,-1.08,0.32,0.97,-49.19,9.52,86.18
2026-07-27 13:49:17.174,-1.18,0.35,0.95,-61.04,-12.39,68.79
2026-07-27 13:49:17.174,-1.18,0.35,0.95,-61.04,-12.39,68.79
2026-07-27 13:49:17.174,-1.18,0.39,0.96,-52.37,-37.41,36.62
2026-07-27 13:49:17.175,-1.18,0.39,0.96,-48.89,-71.17,11.17
2026-07-27 13:49:17.177,-1.04,0.46,0.94,-48.89,-71.17,11.17
2026-07-27 13:49:17.177,-0.79,0.59,0.85,-62.99,-110.66,8.0
2026-07-27 13:49:17.217,-0.79,0.59,0.85,-62.99,-110.66,8.0
2026-07-27 13:49:17.217,-0.64,0.75,0.78,-104.37,-129.39,28.26
2026-07-27 13:49:17.261,-0.76,0.89,0.74,-174.38,-107.91,67.02
2026-07-27 13:49:17.261,-0.76,0.89,0.74,-174.38,-107.91,67.02
2026-07-27 13:49:17.305,-0.96,0.95,0.69,-244.14,-67.75,109.74
2026-07-27 13:49:17.435,-0.96,0.95,0.69,-244.14,-67.75,109.74
2026-07-27 13:49:17.436,-1.04,0.9,0.7,-268.55,-44.01,129.94
2026-07-27 13:49:17.437,-1.04,0.75,0.81,-237.12,-51.76,112.98
2026-07-27 13:49:17.438,-1.04,0.75,0.81,-237.12,-51.76,112.98
2026-07-27 13:49:17.439,-0.97,0.56,0.82,-199.04,-80.57,73.97
2026-07-27 13:49:17.443,-0.97,0.56,0.82,-199.04,-80.57,73.97
2026-07-27 13:49:17.482,-0.8,0.46,0.68,-176.94,-100.83,27.16
2026-07-27 13:49:17.523,-0.58,0.51,0.48,-148.5,-95.64,-21.12
2026-07-27 13:49:17.523,-0.58,0.51,0.48,-148.5,-95.64,-21.12
2026-07-27 13:49:17.618,-0.42,0.58,0.29,-114.5,-77.94,-47.79
2026-07-27 13:49:17.619,-0.42,0.58,0.29,-78.67,-57.62,-42.05
2026-07-27 13:49:17.619,-0.36,0.54,0.12,-78.67,-57.62,-42.05
2026-07-27 13:49:17.619,-0.38,0.45,0.02,-35.64,-30.4,-24.9
2026-07-27 13:49:17.654,-0.38,0.45,0.02,-35.64,-30.4,-24.9
2026-07-27 13:49:17.655,-0.45,0.44,-0.02,10.62,2.87,-18.68
2026-07-27 13:49:17.741,-0.45,0.44,-0.02,45.59,34.97,-17.33
2026-07-27 13:49:17.743,-0.53,0.51,-0.0,45.59,34.97,-17.33
2026-07-27 13:49:17.743,-0.64,0.63,0.05,74.22,65.19,-7.14
2026-07-27 13:49:17.744,-0.64,0.63,0.05,74.22,65.19,-7.14
2026-07-27 13:49:17.917,-0.9,0.83,0.16,117.19,104.98,-2.62
2026-07-27 13:49:17.917,-1.33,1.13,0.41,175.23,162.11,-18.31
2026-07-27 13:49:17.918,-1.33,1.13,0.41,175.23,162.11,-18.31
2026-07-27 13:49:17.919,-1.63,1.37,0.76,246.03,214.54,-32.59
2026-07-27 13:49:17.919,-1.63,1.37,0.76,246.03,214.54,-32.59
2026-07-27 13:49:17.920,-1.5,1.47,1.07,320.8,236.57,-27.65
2026-07-27 13:49:17.921,-1.17,1.42,1.34,353.15,243.16,-11.96
2026-07-27 13:49:17.960,-1.17,1.42,1.34,353.15,243.16,-11.96
2026-07-27 13:49:17.961,-1.03,1.11,1.61,295.84,248.17,21.06
2026-07-27 13:49:18.004,-1.03,1.11,1.61,295.84,248.17,21.06
2026-07-27 13:49:18.048,-1.01,0.7,1.62,170.9,213.99,62.74
2026-07-27 13:49:18.048,-0.89,0.46,1.23,52.49,117.86,81.67
2026-07-27 13:49:18.092,-0.89,0.46,1.23,52.49,117.86,81.67
2026-07-27 13:49:18.093,-0.71,0.36,0.73,-5.49,15.62,81.91
2026-07-27 13:49:18.136,-0.71,0.36,0.73,-5.49,15.62,81.91
2026-07-27 13:49:18.136,-0.64,0.29,0.47,-12.45,-24.6,79.1
2026-07-27 13:49:18.223,-0.7,0.22,0.48,-11.54,-4.09,70.37
2026-07-27 13:49:18.223,-0.7,0.22,0.48,-11.54,-4.09,70.37
2026-07-27 13:49:18.224,-0.74,0.21,0.61,-22.58,33.26,49.74
2026-07-27 13:49:18.225,-0.74,0.21,0.61,-22.58,33.26,49.74
2026-07-27 13:49:18.267,-0.76,0.32,0.75,-47.0,62.13,16.72
2026-07-27 13:49:18.319,-0.79,0.5,0.86,-88.56,73.67,-18.25
2026-07-27 13:49:18.319,-0.79,0.5,0.86,-88.56,73.67,-18.25
2026-07-27 13:49:18.354,-0.85,0.65,0.89,-142.03,59.33,-41.26
2026-07-27 13:49:18.355,-0.85,0.65,0.89,-185.06,23.32,-54.81
2026-07-27 13:49:18.748,-0.92,0.75,0.82,-185.06,23.32,-54.81
2026-07-27 13:49:18.749,-0.96,0.86,0.74,-195.56,-17.94,-72.81
2026-07-27 13:49:18.749,-0.96,0.86,0.74,-195.56,-17.94,-72.81
2026-07-27 13:49:18.750,-0.98,0.99,0.66,-171.57,-55.97,-96.01
2026-07-27 13:49:18.751,-0.98,1.12,0.55,-130.92,-89.78,-110.35
2026-07-27 13:49:18.751,-0.98,1.12,0.55,-130.92,-89.78,-110.35
2026-07-27 13:49:18.752,-0.92,1.19,0.46,-87.65,-107.36,-101.01
2026-07-27 13:49:18.754,-0.92,1.19,0.46,-87.65,-107.36,-101.01
2026-07-27 13:49:18.754,-0.73,1.14,0.51,-53.65,-96.13,-61.89
2026-07-27 13:49:18.755,-0.58,1.06,0.68,-53.04,-66.28,-10.99
2026-07-27 13:49:18.755,-0.58,1.06,0.68,-53.04,-66.28,-10.99
2026-07-27 13:49:18.756,-0.64,1.04,0.83,-94.48,-43.64,23.8
2026-07-27 13:49:18.757,-0.81,1.06,0.88,-150.51,-53.04,36.56
2026-07-27 13:49:18.758,-0.81,1.06,0.88,-150.51,-53.04,36.56
2026-07-27 13:49:18.759,-0.95,1.07,0.8,-176.51,-98.39,34.24
2026-07-27 13:49:18.759,-0.95,1.07,0.8,-176.51,-98.39,34.24
2026-07-27 13:49:18.760,-0.93,1.03,0.61,-156.13,-156.37,29.97
2026-07-27 13:49:18.836,-0.78,0.9,0.34,-117.92,-193.05,42.42
2026-07-27 13:49:18.836,-0.78,0.9,0.34,-117.92,-193.05,42.42
2026-07-27 13:49:18.837,-0.59,0.7,0.06,-93.44,-185.91,75.32
2026-07-27 13:49:18.879,-0.59,0.7,0.06,-93.44,-185.91,75.32
2026-07-27 13:49:18.880,-0.44,0.52,-0.13,-86.91,-139.04,113.65
2026-07-27 13:49:18.926,-0.37,0.38,-0.2,-85.75,-77.27,142.7
2026-07-27 13:49:18.926,-0.37,0.38,-0.2,-85.75,-77.27,142.7
2026-07-27 13:49:18.967,-0.42,0.31,-0.15,-72.02,-24.84,158.33
2026-07-27 13:49:19.011,-0.42,0.31,-0.15,-36.32,10.44,156.37
2026-07-27 13:49:19.060,-0.58,0.3,-0.01,-36.32,10.44,156.37
2026-07-27 13:49:19.061,-0.81,0.37,0.14,11.17,36.87,137.15
2026-07-27 13:49:19.061,-0.81,0.37,0.14,11.17,36.87,137.15
2026-07-27 13:49:19.098,-1.08,0.46,0.3,60.91,73.36,109.74
2026-07-27 13:49:19.141,-1.33,0.53,0.51,116.52,125.12,76.11
2026-07-27 13:49:19.142,-1.33,0.53,0.51,116.52,125.12,76.11
2026-07-27 13:49:19.142,-1.47,0.68,0.69,186.04,167.42,26.43
2026-07-27 13:49:19.230,-1.47,0.68,0.69,186.04,167.42,26.43
2026-07-27 13:49:19.230,-1.5,0.97,0.82,258.06,176.45,-42.48
2026-07-27 13:49:19.230,-1.46,1.27,0.97,301.09,149.84,-109.19
2026-07-27 13:49:19.231,-1.46,1.27,0.97,301.09,149.84,-109.19
2026-07-27 13:49:19.330,-1.17,1.39,1.11,311.58,97.05,-146.48
2026-07-27 13:49:19.330,-1.17,1.39,1.11,311.58,97.05,-146.48
2026-07-27 13:49:19.330,-0.59,1.27,1.07,309.33,42.79,-150.15
2026-07-27 13:49:19.363,-0.16,1.04,0.92,273.5,25.15,-124.63
2026-07-27 13:49:19.363,-0.16,1.04,0.92,273.5,25.15,-124.63
2026-07-27 13:49:19.404,-0.2,0.77,0.78,169.07,51.57,-66.28
2026-07-27 13:49:19.460,-0.52,0.56,0.73,42.3,82.28,0.31
2026-07-27 13:49:19.461,-0.52,0.56,0.73,42.3,82.28,0.31
2026-07-27 13:49:19.494,-0.73,0.46,0.74,-24.41,77.51,31.49
2026-07-27 13:49:19.495,-0.73,0.46,0.74,-24.41,77.51,31.49
2026-07-27 13:49:19.536,-0.69,0.46,0.73,-20.94,34.18,27.89
2026-07-27 13:49:19.536,-0.57,0.48,0.64,-2.75,-11.54,20.57
2026-07-27 13:49:19.592,-0.57,0.48,0.64,-2.75,-11.54,20.57
2026-07-27 13:49:19.592,-0.54,0.49,0.55,-17.15,-21.06,23.8
2026-07-27 13:49:19.625,-0.54,0.49,0.55,-17.15,-21.06,23.8
2026-07-27 13:49:19.625,-0.61,0.49,0.52,-64.45,3.97,34.24
2026-07-27 13:49:19.667,-0.73,0.49,0.51,-117.74,34.73,44.8
2026-07-27 13:49:19.667,-0.73,0.49,0.51,-117.74,34.73,44.8
2026-07-27 13:49:19.722,-0.81,0.49,0.51,-154.72,52.43,48.83
2026-07-27 13:49:19.724,-0.81,0.49,0.51,-154.72,52.43,48.83
2026-07-27 13:49:19.852,-0.86,0.54,0.5,-172.3,58.65,43.4
2026-07-27 13:49:19.853,-0.88,0.64,0.46,-183.65,61.71,30.76
2026-07-27 13:49:19.853,-0.88,0.64,0.46,-183.65,61.71,30.76
2026-07-27 13:49:19.853,-0.85,0.73,0.43,-197.81,67.2,20.57
2026-07-27 13:49:19.853,-0.85,0.73,0.43,-197.81,67.2,20.57
2026-07-27 13:49:19.888,-0.8,0.73,0.45,-207.95,76.42,19.65
2026-07-27 13:49:19.888,-0.78,0.7,0.49,-198.0,78.8,19.84
2026-07-27 13:49:19.930,-0.78,0.7,0.49,-198.0,78.8,19.84
2026-07-27 13:49:19.930,-0.81,0.74,0.48,-162.48,65.73,9.34
2026-07-27 13:49:20.017,-0.81,0.74,0.48,-117.37,48.83,-6.9
2026-07-27 13:49:20.018,-0.78,0.81,0.5,-117.37,48.83,-6.9
2026-07-27 13:49:20.018,-0.66,0.77,0.6,-86.43,39.92,-6.1
2026-07-27 13:49:20.062,-0.66,0.77,0.6,-86.43,39.92,-6.1
2026-07-27 13:49:20.062,-0.61,0.65,0.68,-90.45,37.54,10.93
2026-07-27 13:49:20.104,-0.76,0.6,0.67,-130.13,37.78,14.53
2026-07-27 13:49:20.104,-0.76,0.6,0.67,-130.13,37.78,14.53
2026-07-27 13:49:20.191,-0.96,0.65,0.67,-168.82,33.81,-8.3
2026-07-27 13:49:20.192,-0.96,0.65,0.67,-168.82,33.81,-8.3
2026-07-27 13:49:20.193,-1.01,0.77,0.71,-166.14,9.16,-45.41
2026-07-27 13:49:20.324,-0.92,0.88,0.66,-125.55,-45.65,-75.62
2026-07-27 13:49:20.324,-0.92,0.88,0.66,-125.55,-45.65,-75.62
2026-07-27 13:49:20.324,-0.77,0.89,0.48,-78.0,-110.29,-79.04
2026-07-27 13:49:20.325,-0.77,0.89,0.48,-78.0,-110.29,-79.04
2026-07-27 13:49:20.326,-0.65,0.79,0.3,-48.65,-148.8,-52.98
2026-07-27 13:49:20.327,-0.6,0.7,0.19,-50.23,-144.78,-15.87
2026-07-27 13:49:20.541,-0.6,0.7,0.19,-50.23,-144.78,-15.87
2026-07-27 13:49:20.541,-0.58,0.64,0.08,-75.07,-110.9,16.3
2026-07-27 13:49:20.543,-0.58,0.64,0.08,-75.07,-110.9,16.3
2026-07-27 13:49:20.543,-0.57,0.58,0.0,-93.93,-65.8,42.3
2026-07-27 13:49:20.548,-0.59,0.5,-0.0,-85.21,-21.24,64.45
2026-07-27 13:49:20.548,-0.59,0.5,-0.0,-85.21,-21.24,64.45
2026-07-27 13:49:20.549,-0.66,0.44,0.08,-48.22,13.43,78.0
2026-07-27 13:49:20.549,-0.66,0.44,0.08,-48.22,13.43,78.0
2026-07-27 13:49:20.549,-0.77,0.42,0.18,6.35,34.85,76.78
2026-07-27 13:49:20.629,-0.86,0.45,0.26,61.83,44.92,62.01
2026-07-27 13:49:20.630,-0.86,0.45,0.26,61.83,44.92,62.01
2026-07-27 13:49:20.630,-0.97,0.51,0.33,109.8,49.26,41.32
2026-07-27 13:49:20.631,-0.97,0.51,0.33,154.72,52.49,18.98
2026-07-27 13:49:20.674,-1.15,0.6,0.38,154.72,52.49,18.98
2026-07-27 13:49:20.716,-1.31,0.74,0.43,205.38,57.43,-7.02
2026-07-27 13:49:20.717,-1.31,0.74,0.43,205.38,57.43,-7.02
2026-07-27 13:49:20.761,-1.18,0.84,0.61,264.65,65.49,-25.7
2026-07-27 13:49:20.761,-0.83,0.78,0.89,290.47,73.79,-17.09
2026-07-27 13:49:20.804,-0.83,0.78,0.89,290.47,73.79,-17.09
2026-07-27 13:49:20.804,-0.67,0.59,1.07,239.26,87.65,10.8
2026-07-27 13:49:20.849,-0.67,0.59,1.07,239.26,87.65,10.8
2026-07-27 13:49:20.849,-0.76,0.47,1.12,137.39,104.0,30.46
2026-07-27 13:49:20.904,-0.83,0.45,1.06,36.93,100.28,34.73
2026-07-27 13:49:20.904,-0.83,0.45,1.06,36.93,100.28,34.73
2026-07-27 13:49:21.110,-0.81,0.4,0.91,-39.49,71.29,39.61
2026-07-27 13:49:21.154,-0.78,0.28,0.69,-93.51,41.38,52.92
2026-07-27 13:49:21.199,-0.78,0.28,0.69,-93.51,41.38,52.92
2026-07-27 13:49:21.199,-0.8,0.21,0.51,-126.65,30.94,55.6
2026-07-27 13:49:21.199,-0.8,0.21,0.51,-126.65,30.94,55.6
2026-07-27 13:49:21.200,-0.8,0.3,0.51,-137.27,39.86,29.6
2026-07-27 13:49:21.204,-0.76,0.51,0.59,-138.31,55.11,-10.74
2026-07-27 13:49:21.204,-0.76,0.51,0.59,-138.31,55.11,-10.74
2026-07-27 13:49:21.205,-0.69,0.68,0.64,-143.8,59.51,-35.83
2026-07-27 13:49:21.205,-0.69,0.68,0.64,-143.8,59.51,-35.83
2026-07-27 13:49:21.205,-0.67,0.74,0.6,-146.79,47.79,-37.72
2026-07-27 13:49:21.205,-0.72,0.76,0.54,-140.75,32.47,-31.68
2026-07-27 13:49:21.206,-0.72,0.76,0.54,-140.75,32.47,-31.68
2026-07-27 13:49:21.286,-0.78,0.8,0.54,-133.85,26.25,-31.68
2026-07-27 13:49:21.286,-0.78,0.8,0.54,-134.46,22.09,-33.81
2026-07-27 13:49:21.286,-0.76,0.81,0.56,-134.46,22.09,-33.81
2026-07-27 13:49:21.329,-0.64,0.8,0.51,-130.8,0.55,-29.17
2026-07-27 13:49:21.330,-0.64,0.8,0.51,-130.8,0.55,-29.17
2026-07-27 13:49:21.373,-0.54,0.8,0.34,-107.79,-41.02,-18.01
2026-07-27 13:49:21.417,-0.52,0.85,0.09,-72.27,-74.95,-0.61
2026-07-27 13:49:21.417,-0.52,0.85,0.09,-72.27,-74.95,-0.61
2026-07-27 13:49:21.461,-0.5,0.88,-0.05,-35.34,-62.68,30.21
2026-07-27 13:49:21.461,-0.5,0.88,-0.05,-35.34,-62.68,30.21
2026-07-27 13:49:21.593,-0.52,0.86,0.11,-15.01,8.0,74.04
2026-07-27 13:49:21.593,-0.63,0.79,0.46,-39.0,96.68,117.43
2026-07-27 13:49:21.593,-0.63,0.79,0.46,-39.0,96.68,117.43
2026-07-27 13:49:21.594,-0.72,0.66,0.74,-109.86,146.55,148.93
2026-07-27 13:49:21.594,-0.72,0.66,0.74,-109.86,146.55,148.93
2026-07-27 13:49:21.596,-0.79,0.51,0.79,-190.73,142.03,154.6
2026-07-27 13:49:21.636,-0.83,0.47,0.65,-232.48,102.17,123.41
2026-07-27 13:49:21.636,-0.83,0.47,0.65,-232.48,102.17,123.41
2026-07-27 13:49:21.727,-0.86,0.58,0.48,-214.11,54.75,65.06
2026-07-27 13:49:21.727,-0.86,0.58,0.48,-154.48,20.26,13.85
2026-07-27 13:49:21.728,-0.84,0.69,0.42,-154.48,20.26,13.85
2026-07-27 13:49:21.810,-0.78,0.63,0.47,-90.27,-2.01,-3.36
2026-07-27 13:49:21.810,-0.78,0.63,0.47,-90.27,-2.01,-3.36
2026-07-27 13:49:21.811,-0.72,0.53,0.49,-48.4,-23.5,-2.01
2026-07-27 13:49:21.812,-0.72,0.53,0.49,-37.78,-40.16,-3.72
2026-07-27 13:49:21.898,-0.68,0.52,0.38,-37.78,-40.16,-3.72
2026-07-27 13:49:21.899,-0.67,0.55,0.26,-53.53,-32.71,-3.36
2026-07-27 13:49:21.900,-0.67,0.55,0.26,-53.53,-32.71,-3.36
2026-07-27 13:49:21.900,-0.68,0.51,0.21,-77.45,-1.65,5.43
2026-07-27 13:49:21.986,-0.68,0.51,0.21,-82.58,28.14,10.93
2026-07-27 13:49:21.987,-0.73,0.45,0.24,-82.58,28.14,10.93
2026-07-27 13:49:21.987,-0.81,0.41,0.28,-55.36,38.51,2.5
2026-07-27 13:49:22.073,-0.81,0.41,0.28,-55.36,38.51,2.5
2026-07-27 13:49:22.073,-0.92,0.43,0.33,-7.32,32.41,-16.97
2026-07-27 13:49:22.074,-1.08,0.56,0.36,46.51,20.63,-45.59
2026-07-27 13:49:22.075,-1.08,0.56,0.36,46.51,20.63,-45.59
2026-07-27 13:49:22.122,-1.1,0.75,0.38,106.26,6.96,-72.2
2026-07-27 13:49:22.122,-1.1,0.75,0.38,106.26,6.96,-72.2
2026-07-27 13:49:22.163,-0.73,0.82,0.39,164.86,-15.08,-63.84
2026-07-27 13:49:22.250,-0.26,0.75,0.33,185.18,-35.71,-22.22
2026-07-27 13:49:22.250,-0.26,0.75,0.33,185.18,-35.71,-22.22
2026-07-27 13:49:22.250,-0.23,0.63,0.28,132.81,-22.4,21.3
2026-07-27 13:49:22.250,-0.23,0.63,0.28,132.81,-22.4,21.3
2026-07-27 13:49:22.292,-0.69,0.42,0.32,45.41,19.9,58.84
2026-07-27 13:49:22.292,-1.07,0.25,0.33,19.23,47.36,73.0
2026-07-27 13:49:22.379,-1.07,0.25,0.33,19.23,47.36,73.0
2026-07-27 13:49:22.380,-1.05,0.35,0.41,80.38,47.97,47.06
2026-07-27 13:49:22.380,-1.05,0.35,0.41,80.38,47.97,47.06
2026-07-27 13:49:22.390,-0.82,0.58,0.59,141.48,44.92,9.7
2026-07-27 13:49:22.425,-0.69,0.67,0.66,125.31,49.56,4.21
2026-07-27 13:49:22.425,-0.69,0.67,0.66,125.31,49.56,4.21
2026-07-27 13:49:22.467,-0.74,0.58,0.58,52.92,62.87,31.01
2026-07-27 13:49:22.512,-0.74,0.58,0.58,52.92,62.87,31.01
2026-07-27 13:49:22.512,-0.85,0.42,0.52,-17.94,87.16,61.34
2026-07-27 13:49:22.555,-0.92,0.25,0.56,-62.19,110.72,76.72
2026-07-27 13:49:22.555,-0.92,0.25,0.56,-62.19,110.72,76.72
2026-07-27 13:49:22.599,-0.95,0.12,0.62,-83.07,114.81,69.58
2026-07-27 13:49:22.600,-0.93,0.08,0.63,-86.79,97.47,44.92
2026-07-27 13:49:22.642,-0.93,0.08,0.63,-86.79,97.47,44.92
2026-07-27 13:49:22.686,-0.86,0.16,0.61,-84.35,73.91,18.68
2026-07-27 13:49:22.687,-0.86,0.16,0.61,-84.35,73.91,18.68
2026-07-27 13:49:22.817,-0.77,0.33,0.61,-87.46,54.99,2.75
2026-07-27 13:49:22.817,-0.72,0.48,0.63,-94.36,40.71,-5.8
2026-07-27 13:49:22.819,-0.72,0.48,0.63,-94.36,40.71,-5.8
2026-07-27 13:49:22.819,-0.72,0.58,0.66,-95.7,30.64,-17.33
2026-07-27 13:49:22.820,-0.72,0.58,0.66,-85.69,21.12,-33.75
2026-07-27 13:49:22.820,-0.77,0.64,0.67,-85.69,21.12,-33.75
2026-07-27 13:49:22.860,-0.86,0.76,0.68,-70.92,8.3,-51.7
2026-07-27 13:49:22.861,-0.86,0.76,0.68,-70.92,8.3,-51.7
2026-07-27 13:49:22.905,-0.89,0.89,0.69,-61.77,-4.21,-63.96
2026-07-27 13:49:22.949,-0.76,0.88,0.73,-58.84,-13.79,-51.51
2026-07-27 13:49:22.949,-0.76,0.88,0.73,-58.84,-13.79,-51.51
2026-07-27 13:49:22.992,-0.61,0.74,0.77,-66.59,-22.16,-19.29
2026-07-27 13:49:22.992,-0.61,0.74,0.77,-66.59,-22.16,-19.29
2026-07-27 13:49:23.036,-0.63,0.64,0.75,-94.18,-32.35,-0.12
2026-07-27 13:49:23.036,-0.8,0.67,0.67,-129.33,-45.59,-6.65
2026-07-27 13:49:23.079,-0.8,0.67,0.67,-129.33,-45.59,-6.65
2026-07-27 13:49:23.080,-0.95,0.78,0.63,-145.39,-61.16,-28.14
2026-07-27 13:49:23.123,-0.95,0.78,0.63,-145.39,-61.16,-28.14
2026-07-27 13:49:23.299,-0.99,0.89,0.59,-134.16,-80.69,-48.83
2026-07-27 13:49:23.299,-0.9,0.9,0.54,-106.87,-103.21,-53.47
2026-07-27 13:49:23.299,-0.9,0.9,0.54,-106.87,-103.21,-53.47
2026-07-27 13:49:23.300,-0.77,0.79,0.45,-78.12,-123.11,-38.7
2026-07-27 13:49:23.301,-0.77,0.79,0.45,-60.12,-133.42,-14.59
2026-07-27 13:49:23.303,-0.66,0.65,0.34,-60.12,-133.42,-14.59
2026-07-27 13:49:23.303,-0.58,0.54,0.2,-59.51,-126.28,12.21
2026-07-27 13:49:23.304,-0.58,0.54,0.2,-59.51,-126.28,12.21
2026-07-27 13:49:23.342,-0.55,0.43,0.06,-74.83,-97.84,39.86
2026-07-27 13:49:23.386,-0.57,0.34,-0.03,-87.95,-56.46,61.95
2026-07-27 13:49:23.386,-0.57,0.34,-0.03,-87.95,-56.46,61.95
2026-07-27 13:49:23.517,-0.62,0.27,-0.08,-71.72,-16.72,71.29
2026-07-27 13:49:23.517,-0.62,0.27,-0.08,-71.72,-16.72,71.29
2026-07-27 13:49:23.518,-0.71,0.26,-0.06,-16.54,15.69,65.37
2026-07-27 13:49:23.519,-0.85,0.37,0.02,52.37,45.72,49.87
2026-07-27 13:49:23.519,-0.85,0.37,0.02,52.37,45.72,49.87
2026-07-27 13:49:23.520,-1.02,0.55,0.15,103.94,76.11,38.82
2026-07-27 13:49:23.566,-1.02,0.55,0.15,103.94,76.11,38.82
2026-07-27 13:49:23.567,-1.26,0.76,0.35,140.32,104.86,35.4
2026-07-27 13:49:23.605,-1.57,0.96,0.66,181.46,134.34,18.43
2026-07-27 13:49:23.648,-1.57,0.96,0.66,181.46,134.34,18.43
2026-07-27 13:49:23.648,-1.68,1.05,1.03,233.76,156.07,-18.92
2026-07-27 13:49:23.692,-1.68,1.05,1.03,233.76,156.07,-18.92
2026-07-27 13:49:23.693,-1.23,0.95,1.3,293.95,143.86,-49.07
2026-07-27 13:49:23.736,-0.56,0.76,1.35,321.11,107.85,-60.0
2026-07-27 13:49:23.736,-0.56,0.76,1.35,321.11,107.85,-60.0
2026-07-27 13:49:23.779,-0.34,0.58,1.19,247.56,77.27,-54.02
2026-07-27 13:49:23.780,-0.34,0.58,1.19,105.59,41.2,-40.34
2026-07-27 13:49:23.826,-0.61,0.46,0.9,105.59,41.2,-40.34
2026-07-27 13:49:23.826,-0.87,0.44,0.6,15.38,-15.32,-38.21
2026-07-27 13:49:23.873,-0.87,0.44,0.6,15.38,-15.32,-38.21
2026-07-27 13:49:23.910,-0.81,0.43,0.4,22.4,-76.72,-43.46
2026-07-27 13:49:23.957,-0.6,0.4,0.31,76.6,-115.91,-47.42
2026-07-27 13:49:23.957,-0.6,0.4,0.31,76.6,-115.91,-47.42
2026-07-27 13:49:23.957,-0.45,0.42,0.29,130.0,-126.65,-52.86
2026-07-27 13:49:24.042,-0.45,0.42,0.29,130.0,-126.65,-52.86
2026-07-27 13:49:24.042,-0.36,0.56,0.34,163.82,-118.96,-56.76
2026-07-27 13:49:24.043,-0.35,0.72,0.42,159.67,-97.23,-46.51
2026-07-27 13:49:24.044,-0.35,0.72,0.42,159.67,-97.23,-46.51
2026-07-27 13:49:24.086,-0.44,0.75,0.5,111.15,-60.67,-8.79
2026-07-27 13:49:24.087,-0.44,0.75,0.5,111.15,-60.67,-8.79
2026-07-27 13:49:24.173,-0.66,0.59,0.59,33.33,-10.93,47.12
2026-07-27 13:49:24.173,-0.9,0.38,0.65,-44.68,33.81,90.21
2026-07-27 13:49:24.174,-0.9,0.38,0.65,-44.68,33.81,90.21
2026-07-27 13:49:24.225,-0.99,0.3,0.64,-91.06,49.13,98.51
2026-07-27 13:49:24.225,-0.99,0.3,0.64,-91.06,49.13,98.51
2026-07-27 13:49:24.263,-0.95,0.45,0.6,-96.92,36.62,73.49
2026-07-27 13:49:24.263,-0.92,0.7,0.56,-81.48,15.69,39.37
2026-07-27 13:49:24.305,-0.92,0.7,0.56,-81.48,15.69,39.37
2026-07-27 13:49:24.305,-0.88,0.84,0.54,-66.65,1.46,26.79
2026-07-27 13:49:24.436,-0.88,0.84,0.54,-66.65,1.46,26.79
2026-07-27 13:49:24.436,-0.75,0.8,0.56,-68.05,4.82,44.07
2026-07-27 13:49:24.437,-0.65,0.69,0.61,-95.4,24.05,68.36
2026-07-27 13:49:24.437,-0.65,0.69,0.61,-95.4,24.05,68.36
2026-07-27 13:49:24.438,-0.66,0.65,0.64,-136.35,40.77,76.29
2026-07-27 13:49:24.566,-0.66,0.65,0.64,-166.26,41.02,66.28
2026-07-27 13:49:24.567,-0.74,0.71,0.72,-166.26,41.02,66.28
2026-07-27 13:49:24.567,-0.83,0.83,0.87,-181.21,25.88,47.3
2026-07-27 13:49:24.568,-0.83,0.83,0.87,-181.21,25.88,47.3
2026-07-27 13:49:24.569,-0.86,0.95,0.96,-194.09,-5.49,24.84
2026-07-27 13:49:24.570,-0.83,1.0,0.84,-200.74,-55.91,5.55
2026-07-27 13:49:24.789,-0.83,1.0,0.84,-200.74,-55.91,5.55
2026-07-27 13:49:24.789,-0.75,0.93,0.58,-186.4,-110.47,-1.95
2026-07-27 13:49:24.789,-0.75,0.93,0.58,-186.4,-110.47,-1.95
2026-07-27 13:49:24.789,-0.65,0.8,0.29,-157.29,-142.64,4.21
2026-07-27 13:49:24.790,-0.54,0.64,0.07,-134.77,-136.11,19.17
2026-07-27 13:49:24.790,-0.54,0.64,0.07,-134.77,-136.11,19.17
2026-07-27 13:49:24.791,-0.46,0.51,-0.05,-122.74,-97.53,32.96
2026-07-27 13:49:24.793,-0.43,0.44,-0.07,-101.26,-50.42,36.07
2026-07-27 13:49:24.793,-0.43,0.44,-0.07,-101.26,-50.42,36.07
2026-07-27 13:49:24.921,-0.46,0.44,-0.04,-57.43,-11.78,29.97
2026-07-27 13:49:24.921,-0.46,0.44,-0.04,-57.43,-11.78,29.97
2026-07-27 13:49:24.921,-0.54,0.48,0.03,-4.82,19.65,23.44
2026-07-27 13:49:24.921,-0.68,0.56,0.12,40.59,50.66,20.63
2026-07-27 13:49:24.921,-0.68,0.56,0.12,40.59,50.66,20.63
2026-07-27 13:49:24.961,-0.93,0.69,0.24,78.43,82.76,15.5
2026-07-27 13:49:25.048,-0.93,0.69,0.24,78.43,82.76,15.5
2026-07-27 13:49:25.048,-1.29,0.91,0.4,118.59,114.99,-3.11
2026-07-27 13:49:25.049,-1.44,1.12,0.63,174.62,137.7,-26.31
2026-07-27 13:49:25.135,-1.44,1.12,0.63,174.62,137.7,-26.31
2026-07-27 13:49:25.136,-1.13,1.18,0.88,240.42,134.58,-33.02
2026-07-27 13:49:25.136,-1.13,1.18,0.88,240.42,134.58,-33.02
2026-07-27 13:49:25.138,-0.65,1.1,1.07,273.56,113.53,-20.02
2026-07-27 13:49:25.139,-0.52,0.9,1.18,236.63,107.42,9.77
2026-07-27 13:49:25.139,-0.52,0.9,1.18,236.63,107.42,9.77
2026-07-27 13:49:25.180,-0.75,0.63,1.21,152.83,111.63,40.77
2026-07-27 13:49:25.266,-0.75,0.63,1.21,152.83,111.63,40.77
2026-07-27 13:49:25.267,-0.89,0.43,1.08,76.42,81.54,45.84
2026-07-27 13:49:25.267,-0.76,0.37,0.77,41.75,16.85,24.9
2026-07-27 13:49:25.268,-0.76,0.37,0.77,41.75,16.85,24.9
2026-07-27 13:49:25.311,-0.56,0.41,0.5,46.57,-28.32,1.04
2026-07-27 13:49:25.312,-0.56,0.41,0.5,46.57,-28.32,1.04
2026-07-27 13:49:25.355,-0.46,0.45,0.44,60.36,-23.13,-9.83
2026-07-27 13:49:25.398,-0.48,0.45,0.57,65.73,7.32,-9.03
2026-07-27 13:49:25.398,-0.48,0.45,0.57,65.73,7.32,-9.03
2026-07-27 13:49:25.486,-0.52,0.45,0.72,62.81,26.55,-4.46
2026-07-27 13:49:25.487,-0.52,0.45,0.72,62.81,26.55,-4.46
2026-07-27 13:49:25.487,-0.57,0.48,0.82,44.98,29.42,1.04
2026-07-27 13:49:25.487,-0.62,0.49,0.84,0.43,25.82,10.68
2026-07-27 13:49:25.574,-0.62,0.49,0.84,0.43,25.82,10.68
2026-07-27 13:49:25.574,-0.7,0.49,0.75,-58.65,14.83,22.46
2026-07-27 13:49:25.574,-0.7,0.49,0.75,-58.65,14.83,22.46
2026-07-27 13:49:25.575,-0.76,0.53,0.63,-102.72,-1.28,28.14
2026-07-27 13:49:25.621,-0.78,0.62,0.57,-121.58,-9.52,25.7
2026-07-27 13:49:25.621,-0.78,0.62,0.57,-121.58,-9.52,25.7
2026-07-27 13:49:25.791,-0.84,0.77,0.58,-125.06,-4.94,18.31
2026-07-27 13:49:25.792,-0.84,0.77,0.58,-125.06,-4.94,18.31
2026-07-27 13:49:25.792,-0.91,0.88,0.65,-125.0,8.18,14.47
2026-07-27 13:49:25.793,-0.92,0.79,0.75,-129.52,25.76,22.64
2026-07-27 13:49:25.794,-0.92,0.79,0.75,-129.52,25.76,22.64
2026-07-27 13:49:25.795,-0.93,0.64,0.86,-148.25,41.56,26.92
2026-07-27 13:49:25.795,-0.93,0.64,0.86,-178.1,45.1,3.17
2026-07-27 13:49:25.838,-0.98,0.63,0.95,-178.1,45.1,3.17
2026-07-27 13:49:25.838,-1.04,0.79,1.02,-191.53,22.77,-47.06
2026-07-27 13:49:25.880,-1.04,0.79,1.02,-191.53,22.77,-47.06
2026-07-27 13:49:25.880,-1.04,1.0,1.01,-174.62,-30.4,-100.46
2026-07-27 13:49:25.967,-0.97,1.11,0.87,-144.59,-97.17,-128.36
2026-07-27 13:49:25.968,-0.97,1.11,0.87,-144.59,-97.17,-128.36
2026-07-27 13:49:25.968,-0.87,1.06,0.66,-121.15,-146.61,-120.48
2026-07-27 13:49:26.011,-0.87,1.06,0.66,-121.15,-146.61,-120.48
2026-07-27 13:49:26.011,-0.77,0.92,0.49,-113.95,-160.58,-89.9
2026-07-27 13:49:26.065,-0.67,0.76,0.35,-123.96,-147.16,-54.44
2026-07-27 13:49:26.065,-0.67,0.76,0.35,-123.96,-147.16,-54.44
2026-07-27 13:49:26.100,-0.57,0.64,0.2,-134.89,-128.66,-26.18
2026-07-27 13:49:26.100,-0.57,0.64,0.2,-134.89,-128.66,-26.18
2026-07-27 13:49:26.142,-0.46,0.55,0.0,-122.13,-116.64,-7.2
2026-07-27 13:49:26.185,-0.38,0.47,-0.2,-82.89,-101.14,9.89
2026-07-27 13:49:26.186,-0.38,0.47,-0.2,-82.89,-101.14,9.89
2026-07-27 13:49:26.317,-0.39,0.41,-0.29,-30.94,-68.3,29.54
2026-07-27 13:49:26.317,-0.49,0.39,-0.21,28.38,-16.97,44.56
2026-07-27 13:49:26.361,-0.49,0.39,-0.21,28.38,-16.97,44.56
2026-07-27 13:49:26.362,-0.67,0.46,-0.02,90.7,41.38,44.98
2026-07-27 13:49:26.362,-0.67,0.46,-0.02,90.7,41.38,44.98
2026-07-27 13:49:26.362,-0.96,0.7,0.18,149.66,95.52,28.87
2026-07-27 13:49:26.363,-1.42,1.12,0.38,210.08,145.26,-1.89
2026-07-27 13:49:26.364,-1.42,1.12,0.38,210.08,145.26,-1.89
2026-07-27 13:49:26.407,-1.81,1.58,0.7,285.16,190.43,-38.45
2026-07-27 13:49:26.407,-1.81,1.58,0.7,285.16,190.43,-38.45
2026-07-27 13:49:26.536,-1.73,1.81,1.17,374.15,212.52,-62.5
2026-07-27 13:49:26.536,-1.21,1.65,1.67,434.39,203.8,-63.05
2026-07-27 13:49:26.537,-1.21,1.65,1.67,434.39,203.8,-63.05
2026-07-27 13:49:26.537,-0.74,1.16,1.98,386.96,192.63,-38.21
2026-07-27 13:49:26.539,-0.74,1.16,1.98,386.96,192.63,-38.21
2026-07-27 13:49:26.579,-0.64,0.68,1.84,215.03,171.69,-0.49
2026-07-27 13:49:26.580,-0.7,0.48,1.22,26.98,94.91,25.02
2026-07-27 13:49:26.624,-0.7,0.48,1.22,26.98,94.91,25.02
2026-07-27 13:49:26.672,-0.71,0.4,0.55,-54.99,-13.43,35.1
2026-07-27 13:49:26.673,-0.71,0.4,0.55,-54.99,-13.43,35.1
2026-07-27 13:49:26.711,-0.68,0.28,0.27,-26.92,-76.78,38.15
2026-07-27 13:49:26.711,-0.67,0.18,0.32,24.72,-74.65,26.98
2026-07-27 13:49:26.756,-0.67,0.18,0.32,24.72,-74.65,26.98
2026-07-27 13:49:26.756,-0.63,0.25,0.46,44.74,-42.91,-2.75
2026-07-27 13:49:26.841,-0.56,0.45,0.61,38.94,-12.82,-34.0
2026-07-27 13:49:26.842,-0.56,0.45,0.61,38.94,-12.82,-34.0
2026-07-27 13:49:26.842,-0.52,0.61,0.73,15.87,4.03,-42.3
2026-07-27 13:49:26.844,-0.52,0.61,0.73,15.87,4.03,-42.3
2026-07-27 13:49:26.889,-0.57,0.62,0.75,-26.06,4.52,-19.59
2026-07-27 13:49:26.929,-0.75,0.54,0.65,-78.92,-7.51,16.24
2026-07-27 13:49:26.930,-0.75,0.54,0.65,-78.92,-7.51,16.24
2026-07-27 13:49:26.973,-1.0,0.45,0.51,-123.6,-18.62,40.95
2026-07-27 13:49:27.016,-1.0,0.45,0.51,-123.6,-18.62,40.95
2026-07-27 13:49:27.017,-1.13,0.43,0.45,-139.16,-20.51,43.21
2026-07-27 13:49:27.018,-1.14,0.6,0.56,-120.42,-11.72,16.3
2026-07-27 13:49:27.104,-1.14,0.6,0.56,-120.42,-11.72,16.3
2026-07-27 13:49:27.104,-1.04,0.86,0.75,-98.94,1.53,-21.18
2026-07-27 13:49:27.106,-1.04,0.86,0.75,-102.97,2.5,-24.11
2026-07-27 13:49:27.148,-0.79,0.89,0.9,-102.97,2.5,-24.11
2026-07-27 13:49:27.148,-0.64,0.76,0.93,-124.45,-14.04,1.22
2026-07-27 13:49:27.280,-0.64,0.76,0.93,-124.45,-14.04,1.22
2026-07-27 13:49:27.280,-0.74,0.72,0.85,-151.86,-40.53,8.42
2026-07-27 13:49:27.281,-0.97,0.81,0.74,-174.01,-66.96,-11.96
2026-07-27 13:49:27.281,-0.97,0.81,0.74,-174.01,-66.96,-11.96
2026-07-27 13:49:27.285,-1.1,0.91,0.68,-177.92,-88.87,-37.78
2026-07-27 13:49:27.286,-1.1,0.91,0.68,-177.92,-88.87,-37.78
2026-07-27 13:49:27.411,-1.04,0.95,0.63,-163.02,-111.39,-51.21
2026-07-27 13:49:27.455,-0.85,0.89,0.52,-135.13,-133.36,-47.73
2026-07-27 13:49:27.455,-0.85,0.89,0.52,-135.13,-133.36,-47.73
2026-07-27 13:49:27.456,-0.69,0.73,0.43,-104.43,-143.37,-28.2
2026-07-27 13:49:27.456,-0.69,0.73,0.43,-104.43,-143.37,-28.2
2026-07-27 13:49:27.457,-0.62,0.53,0.33,-82.95,-137.82,-0.73
2026-07-27 13:49:27.457,-0.52,0.42,0.09,-72.45,-122.44,20.87
2026-07-27 13:49:27.498,-0.52,0.42,0.09,-72.45,-122.44,20.87
2026-07-27 13:49:27.498,-0.4,0.39,-0.14,-65.98,-90.88,33.26
2026-07-27 13:49:27.586,-0.4,0.39,-0.14,-65.98,-90.88,33.26
2026-07-27 13:49:27.586,-0.41,0.34,-0.16,-52.49,-41.93,40.83
2026-07-27 13:49:27.587,-0.56,0.32,-0.05,-21.61,7.81,40.89
2026-07-27 13:49:27.587,-0.56,0.32,-0.05,-21.61,7.81,40.89
2026-07-27 13:49:27.673,-0.74,0.39,0.11,29.66,50.6,30.52
2026-07-27 13:49:27.673,-0.74,0.39,0.11,29.66,50.6,30.52
2026-07-27 13:49:27.674,-0.9,0.59,0.26,92.1,91.0,14.65
2026-07-27 13:49:27.717,-1.13,0.87,0.42,143.68,131.29,2.01
2026-07-27 13:49:27.717,-1.13,0.87,0.42,143.68,131.29,2.01
2026-07-27 13:49:27.761,-1.44,1.09,0.64,173.89,172.0,-3.48
2026-07-27 13:49:27.761,-1.44,1.09,0.64,173.89,172.0,-3.48
2026-07-27 13:49:27.806,-1.58,1.11,0.94,199.65,202.76,2.08
2026-07-27 13:49:27.806,-1.31,0.95,1.17,237.79,200.74,15.87
2026-07-27 13:49:27.937,-1.31,0.95,1.17,237.79,200.74,15.87
2026-07-27 13:49:27.937,-0.9,0.77,1.25,265.01,166.87,22.52
2026-07-27 13:49:27.937,-0.72,0.63,1.24,233.22,130.19,23.25
2026-07-27 13:49:27.937,-0.72,0.63,1.24,233.22,130.19,23.25
2026-07-27 13:49:27.938,-0.78,0.48,1.17,150.33,96.01,25.63
2026-07-27 13:49:27.980,-0.78,0.48,1.17,150.33,96.01,25.63
2026-07-27 13:49:27.980,-0.8,0.37,0.99,80.69,42.66,20.57
2026-07-27 13:49:28.111,-0.71,0.32,0.72,55.3,-21.18,6.65
2026-07-27 13:49:28.111,-0.71,0.32,0.72,55.3,-21.18,6.65
2026-07-27 13:49:28.111,-0.62,0.31,0.51,52.0,-59.63,-4.82
2026-07-27 13:49:28.112,-0.62,0.31,0.51,52.0,-59.63,-4.82
2026-07-27 13:49:28.114,-0.6,0.32,0.41,44.8,-60.18,-8.91
2026-07-27 13:49:28.115,-0.6,0.36,0.44,32.65,-37.54,-9.52
2026-07-27 13:49:28.241,-0.6,0.36,0.44,32.65,-37.54,-9.52
2026-07-27 13:49:28.242,-0.59,0.43,0.55,17.46,-9.4,-7.81
2026-07-27 13:49:28.242,-0.59,0.43,0.55,17.46,-9.4,-7.81
2026-07-27 13:49:28.243,-0.6,0.48,0.64,-11.54,12.08,1.34
2026-07-27 13:49:28.244,-0.72,0.44,0.68,-52.37,19.23,18.74
2026-07-27 13:49:28.285,-0.72,0.44,0.68,-52.37,19.23,18.74
2026-07-27 13:49:28.301,-0.89,0.39,0.64,-80.93,15.14,31.01
2026-07-27 13:49:28.331,-0.89,0.39,0.64,-80.93,15.14,31.01
2026-07-27 13:49:28.331,-0.99,0.45,0.59,-91.19,16.97,25.33
2026-07-27 13:49:28.373,-1.04,0.6,0.75,-99.49,33.87,3.72
2026-07-27 13:49:28.373,-1.04,0.6,0.75,-99.49,33.87,3.72
2026-07-27 13:49:28.417,-1.07,0.8,1.0,-112.18,36.19,-24.05
2026-07-27 13:49:28.417,-1.07,0.8,1.0,-112.18,36.19,-24.05
2026-07-27 13:49:28.461,-1.0,0.93,1.0,-128.85,-2.81,-36.56
2026-07-27 13:49:28.548,-0.92,0.9,0.8,-145.26,-55.18,-23.01
2026-07-27 13:49:28.548,-0.92,0.9,0.8,-145.26,-55.18,-23.01
2026-07-27 13:49:28.549,-0.91,0.77,0.64,-155.94,-84.66,-3.78
2026-07-27 13:49:28.550,-0.91,0.77,0.64,-160.83,-92.71,-3.3
2026-07-27 13:49:28.592,-0.96,0.71,0.59,-160.83,-92.71,-3.3
2026-07-27 13:49:28.592,-1.02,0.77,0.59,-158.39,-96.8,-22.46
2026-07-27 13:49:28.723,-1.02,0.77,0.59,-158.39,-96.8,-22.46
2026-07-27 13:49:28.723,-1.05,0.86,0.57,-151.25,-103.88,-42.18
2026-07-27 13:49:28.724,-0.99,0.88,0.51,-139.65,-112.0,-48.71
2026-07-27 13:49:28.726,-0.99,0.88,0.51,-139.65,-112.0,-48.71
2026-07-27 13:49:28.726,-0.83,0.83,0.42,-120.24,-119.75,-41.69
2026-07-27 13:49:28.768,-0.66,0.74,0.31,-98.39,-125.37,-23.74
2026-07-27 13:49:28.768,-0.66,0.74,0.31,-98.39,-125.37,-23.74
2026-07-27 13:49:28.811,-0.53,0.62,0.18,-85.82,-120.61,3.72
2026-07-27 13:49:28.811,-0.53,0.62,0.18,-85.82,-120.61,3.72
2026-07-27 13:49:28.854,-0.46,0.48,0.06,-85.14,-99.55,35.71
2026-07-27 13:49:28.986,-0.43,0.33,-0.05,-78.12,-73.91,60.0
2026-07-27 13:49:28.986,-0.43,0.33,-0.05,-78.12,-73.91,60.0
2026-07-27 13:49:28.987,-0.41,0.26,-0.15,-34.61,-62.68,66.28
2026-07-27 13:49:28.987,-0.41,0.26,-0.15,-34.61,-62.68,66.28
2026-07-27 13:49:28.988,-0.45,0.31,-0.22,42.18,-53.89,57.86
2026-07-27 13:49:28.992,-0.65,0.43,-0.18,108.89,-12.33,44.01
2026-07-27 13:49:29.082,-0.65,0.43,-0.18,108.89,-12.33,44.01
2026-07-27 13:49:29.082,-1.0,0.65,0.01,146.3,69.09,20.94
2026-07-27 13:49:29.082,-1.0,0.65,0.01,146.3,69.09,20.94
2026-07-27 13:49:29.082,-1.45,1.0,0.34,166.02,163.82,-15.5
2026-07-27 13:49:29.118,-1.93,1.31,0.84,164.61,242.37,-49.13
2026-07-27 13:49:29.248,-1.93,1.31,0.84,164.61,242.37,-49.13
2026-07-27 13:49:29.249,-2.07,1.35,1.42,170.04,271.79,-51.76
2026-07-27 13:49:29.249,-1.47,1.14,1.76,249.94,217.22,-24.72
2026-07-27 13:49:29.251,-1.47,1.14,1.76,249.94,217.22,-24.72
2026-07-27 13:49:29.251,-0.57,0.83,1.73,342.35,110.66,-0.24
2026-07-27 13:49:29.252,-0.57,0.83,1.73,342.35,110.66,-0.24
2026-07-27 13:49:29.379,-0.23,0.53,1.44,306.76,36.68,11.72
2026-07-27 13:49:29.380,-0.5,0.38,1.01,163.94,15.62,14.22
2026-07-27 13:49:29.380,-0.5,0.38,1.01,163.94,15.62,14.22
2026-07-27 13:49:29.381,-0.78,0.37,0.65,43.76,3.42,2.75
2026-07-27 13:49:29.382,-0.78,0.37,0.65,43.76,3.42,2.75
2026-07-27 13:49:29.423,-0.77,0.36,0.47,11.47,-23.25,-13.49
2026-07-27 13:49:29.423,-0.6,0.35,0.41,35.4,-43.95,-24.35
2026-07-27 13:49:29.511,-0.6,0.35,0.41,35.4,-43.95,-24.35
2026-07-27 13:49:29.512,-0.46,0.41,0.43,53.47,-35.03,-30.88
2026-07-27 13:49:29.512,-0.46,0.41,0.43,53.47,-35.03,-30.88
2026-07-27 13:49:29.512,-0.43,0.51,0.52,40.59,-3.85,-28.02
2026-07-27 13:49:29.554,-0.47,0.55,0.64,3.42,26.55,-8.36
2026-07-27 13:49:29.554,-0.47,0.55,0.64,3.42,26.55,-8.36
2026-07-27 13:49:29.686,-0.56,0.51,0.73,-44.25,40.71,21.73
2026-07-27 13:49:29.686,-0.56,0.51,0.73,-44.25,40.71,21.73
2026-07-27 13:49:29.686,-0.66,0.47,0.73,-86.73,33.57,44.13
2026-07-27 13:49:29.687,-0.76,0.55,0.66,-112.85,14.4,45.41
2026-07-27 13:49:29.688,-0.76,0.55,0.66,-112.85,14.4,45.41
2026-07-27 13:49:29.731,-0.85,0.74,0.63,-126.16,1.53,31.31
2026-07-27 13:49:29.731,-0.85,0.74,0.63,-126.16,1.53,31.31
2026-07-27 13:49:29.774,-0.97,0.93,0.69,-138.24,0.06,18.62
2026-07-27 13:49:29.774,-1.02,0.99,0.77,-150.21,-0.24,17.7
2026-07-27 13:49:29.860,-1.02,0.99,0.77,-150.21,-0.24,17.7
2026-07-27 13:49:29.861,-0.96,0.9,0.78,-159.24,-7.75,28.63
2026-07-27 13:49:29.911,-0.96,0.9,0.78,-159.24,-7.75,28.63
2026-07-27 13:49:29.911,-0.87,0.76,0.68,-173.77,-17.94,39.06
2026-07-27 13:49:29.912,-0.87,0.7,0.58,-195.98,-20.57,33.33
2026-07-27 13:49:29.912,-0.87,0.7,0.58,-195.98,-20.57,33.33
2026-07-27 13:49:29.948,-0.94,0.74,0.54,-211.98,-17.88,10.44
2026-07-27 13:49:30.126,-0.94,0.74,0.54,-211.98,-17.88,10.44
2026-07-27 13:49:30.126,-0.98,0.82,0.55,-207.4,-23.99,-17.58
2026-07-27 13:49:30.127,-0.91,0.87,0.52,-181.09,-42.48,-38.27
2026-07-27 13:49:30.127,-0.91,0.87,0.52,-181.09,-42.48,-38.27
2026-07-27 13:49:30.127,-0.76,0.82,0.45,-143.74,-63.11,-42.36
2026-07-27 13:49:30.127,-0.76,0.82,0.45,-143.74,-63.11,-42.36
2026-07-27 13:49:30.128,-0.61,0.71,0.37,-110.9,-75.13,-30.88
2026-07-27 13:49:30.130,-0.53,0.62,0.3,-93.44,-75.01,-16.24
2026-07-27 13:49:30.259,-0.53,0.62,0.3,-93.44,-75.01,-16.24
2026-07-27 13:49:30.260,-0.49,0.58,0.21,-87.4,-65.67,-3.72
2026-07-27 13:49:30.260,-0.49,0.58,0.21,-76.66,-50.23,8.42
2026-07-27 13:49:30.260,-0.45,0.56,0.11,-76.66,-50.23,8.42
2026-07-27 13:49:30.260,-0.44,0.53,0.05,-50.66,-30.58,19.96
2026-07-27 13:49:30.303,-0.44,0.53,0.05,-50.66,-30.58,19.96
2026-07-27 13:49:30.303,-0.5,0.52,0.06,-12.15,-7.81,28.56
2026-07-27 13:49:30.342,-0.63,0.53,0.13,32.65,17.03,32.9
2026-07-27 13:49:30.342,-0.63,0.53,0.13,32.65,17.03,32.9
2026-07-27 13:49:30.394,-0.79,0.6,0.24,73.61,41.99,34.67
2026-07-27 13:49:30.395,-0.79,0.6,0.24,73.61,41.99,34.67
2026-07-27 13:49:30.517,-1.03,0.77,0.32,104.19,66.28,31.62
2026-07-27 13:49:30.519,-1.33,1.03,0.42,140.62,91.37,21.97
2026-07-27 13:49:30.519,-1.33,1.03,0.42,140.62,91.37,21.97
2026-07-27 13:49:30.562,-1.44,1.23,0.64,210.45,114.87,17.76
2026-07-27 13:49:30.562,-1.44,1.23,0.64,210.45,114.87,17.76
2026-07-27 13:49:30.562,-1.15,1.21,0.94,292.3,130.74,32.53
2026-07-27 13:49:30.562,-0.8,0.94,1.22,307.13,146.85,66.65
2026-07-27 13:49:30.605,-0.8,0.94,1.22,307.13,146.85,66.65
2026-07-27 13:49:30.605,-0.8,0.53,1.32,217.59,158.02,108.76
2026-07-27 13:49:30.651,-0.8,0.53,1.32,217.59,158.02,108.76
2026-07-27 13:49:30.651,-0.96,0.25,1.21,96.68,121.7,120.36
2026-07-27 13:49:30.692,-0.96,0.25,0.96,40.59,26.73,72.51
2026-07-27 13:49:30.735,-0.96,0.25,0.96,40.59,26.73,72.51
2026-07-27 13:49:30.736,-0.77,0.38,0.69,53.96,-72.33,3.05
2026-07-27 13:49:30.784,-0.59,0.45,0.51,74.58,-116.76,-35.64
2026-07-27 13:49:30.784,-0.59,0.45,0.51,74.58,-116.76,-35.64
2026-07-27 13:49:30.867,-0.54,0.45,0.44,62.74,-98.69,-38.09
2026-07-27 13:49:30.867,-0.54,0.45,0.44,31.86,-53.65,-28.14
2026-07-27 13:49:30.869,-0.58,0.44,0.46,31.86,-53.65,-28.14
2026-07-27 13:49:30.912,-0.62,0.47,0.5,5.55,-18.55,-19.29
2026-07-27 13:49:30.913,-0.62,0.47,0.5,5.55,-18.55,-19.29
2026-07-27 13:49:30.954,-0.66,0.5,0.54,-13.79,-2.5,-10.31
2026-07-27 13:49:30.955,-0.66,0.5,0.54,-34.85,5.31,1.46
2026-07-27 13:49:30.998,-0.7,0.53,0.54,-34.85,5.31,1.46
2026-07-27 13:49:30.998,-0.75,0.54,0.51,-61.1,13.0,17.7
2026-07-27 13:49:31.042,-0.75,0.54,0.51,-61.1,13.0,17.7
2026-07-27 13:49:31.042,-0.79,0.54,0.49,-85.51,24.41,31.86
2026-07-27 13:49:31.131,-0.79,0.54,0.49,-85.51,24.41,31.86
2026-07-27 13:49:31.131,-0.79,0.54,0.49,-85.51,24.41,31.86
2026-07-27 13:49:31.132,-0.79,0.54,0.49,-85.51,24.41,31.86
2026-07-27 13:49:31.132,-0.87,0.61,0.61,-102.36,50.72,31.19
2026-07-27 13:49:31.217,-0.93,0.7,0.69,-99.37,52.55,16.66
2026-07-27 13:49:31.218,-0.93,0.7,0.69,-99.37,52.55,16.66
2026-07-27 13:49:31.218,-0.88,0.69,0.77,-97.96,49.19,5.55
2026-07-27 13:49:31.218,-0.88,0.69,0.77,-97.96,49.19,5.55
2026-07-27 13:49:31.350,-0.77,0.58,0.87,-105.16,43.09,3.3
2026-07-27 13:49:31.350,-0.8,0.59,0.95,-132.57,31.49,-9.22
2026-07-27 13:49:31.351,-0.8,0.59,0.95,-132.57,31.49,-9.22
2026-07-27 13:49:31.351,-0.98,0.78,0.97,-174.13,9.09,-42.54
2026-07-27 13:49:31.351,-0.98,0.78,0.97,-174.13,9.09,-42.54
2026-07-27 13:49:31.392,-1.14,1.02,0.95,-200.01,-27.65,-82.58
2026-07-27 13:49:31.392,-1.16,1.16,0.85,-193.3,-77.45,-111.76
2026-07-27 13:49:31.523,-1.16,1.16,0.85,-193.3,-77.45,-111.76
2026-07-27 13:49:31.523,-1.03,1.14,0.64,-161.19,-129.88,-119.02
2026-07-27 13:49:31.524,-1.03,1.14,0.64,-123.11,-165.41,-100.46
2026-07-27 13:49:31.525,-0.85,1.0,0.42,-123.11,-165.41,-100.46
2026-07-27 13:49:31.526,-0.71,0.81,0.27,-101.99,-171.75,-62.32
2026-07-27 13:49:31.527,-0.71,0.81,0.27,-101.99,-171.75,-62.32
2026-07-27 13:49:31.566,-0.61,0.62,0.17,-101.87,-153.69,-20.51
2026-07-27 13:49:31.611,-0.51,0.46,0.07,-104.06,-126.71,10.19
2026-07-27 13:49:31.612,-0.51,0.46,0.07,-104.06,-126.71,10.19
2026-07-27 13:49:31.654,-0.42,0.35,-0.06,-92.53,-102.48,28.56
2026-07-27 13:49:31.654,-0.42,0.35,-0.06,-92.53,-102.48,28.56
2026-07-27 13:49:31.699,-0.4,0.29,-0.18,-63.96,-79.53,38.88
2026-07-27 13:49:31.743,-0.47,0.31,-0.19,-14.83,-52.25,45.41
2026-07-27 13:49:31.743,-0.47,0.31,-0.19,-14.83,-52.25,45.41
2026-07-27 13:49:31.873,-0.62,0.38,-0.04,56.76,-13.12,49.99
2026-07-27 13:49:31.874,-0.62,0.38,-0.04,56.76,-13.12,49.99
2026-07-27 13:49:31.874,-0.83,0.51,0.29,135.07,41.56,42.66
2026-07-27 13:49:31.875,-1.03,0.76,0.67,201.05,93.69,19.9
2026-07-27 13:49:31.876,-1.03,0.76,0.67,201.05,93.69,19.9
2026-07-27 13:49:31.877,-1.21,1.09,0.98,254.76,125.61,-13.61
2026-07-27 13:49:31.916,-1.23,1.37,1.17,303.53,129.46,-52.8
2026-07-27 13:49:31.917,-1.23,1.37,1.17,303.53,129.46,-52.8
2026-07-27 13:49:31.964,-0.96,1.37,1.32,346.07,98.39,-76.97
2026-07-27 13:49:31.964,-0.96,1.37,1.32,346.07,98.39,-76.97
2026-07-27 13:49:32.007,-0.55,1.14,1.45,356.08,54.02,-81.67
2026-07-27 13:49:32.048,-0.32,0.86,1.38,280.82,44.8,-68.79
2026-07-27 13:49:32.048,-0.32,0.86,1.38,280.82,44.8,-68.79
2026-07-27 13:49:32.136,-0.38,0.69,1.15,133.73,72.51,-45.41
2026-07-27 13:49:32.136,-0.38,0.69,1.15,133.73,72.51,-45.41
2026-07-27 13:49:32.137,-0.46,0.69,0.86,18.92,69.4,-40.83
2026-07-27 13:49:32.137,-0.35,0.73,0.56,11.9,-1.04,-53.22
2026-07-27 13:49:32.354,-0.35,0.73,0.56,11.9,-1.04,-53.22
2026-07-27 13:49:32.354,-0.19,0.73,0.37,77.33,-81.97,-57.62
2026-07-27 13:49:32.355,-0.19,0.73,0.37,77.33,-81.97,-57.62
2026-07-27 13:49:32.357,-0.2,0.7,0.37,132.63,-112.12,-45.84
2026-07-27 13:49:32.357,-0.35,0.68,0.47,146.18,-98.39,-28.56
2026-07-27 13:49:32.357,-0.35,0.68,0.47,146.18,-98.39,-28.56
2026-07-27 13:49:32.358,-0.49,0.69,0.56,129.39,-68.05,-14.53
2026-07-27 13:49:32.359,-0.58,0.64,0.61,95.28,-33.63,3.48
2026-07-27 13:49:32.360,-0.58,0.64,0.61,95.28,-33.63,3.48
2026-07-27 13:49:32.398,-0.71,0.47,0.63,57.68,-8.61,26.61
2026-07-27 13:49:32.398,-0.71,0.47,0.63,57.68,-8.61,26.61
2026-07-27 13:49:32.442,-0.89,0.31,0.59,44.07,-8.18,36.32
2026-07-27 13:49:32.488,-0.98,0.31,0.64,61.58,-20.32,26.55
2026-07-27 13:49:32.488,-0.98,0.31,0.64,61.58,-20.32,26.55
2026-07-27 13:49:32.529,-0.95,0.41,0.84,61.1,-17.03,15.62
2026-07-27 13:49:32.529,-0.95,0.41,0.84,61.1,-17.03,15.62
2026-07-27 13:49:32.573,-0.9,0.5,0.93,14.16,-7.26,15.75
2026-07-27 13:49:32.574,-0.92,0.59,0.85,-42.6,-8.73,15.38
2026-07-27 13:49:32.618,-0.92,0.59,0.85,-42.6,-8.73,15.38
2026-07-27 13:49:32.618,-0.89,0.65,0.78,-79.9,-9.28,8.85
2026-07-27 13:49:32.665,-0.89,0.65,0.78,-79.9,-9.28,8.85
2026-07-27 13:49:32.665,-0.75,0.66,0.79,-105.1,-2.38,6.53
2026-07-27 13:49:32.705,-0.68,0.71,0.84,-138.0,4.94,6.1
2026-07-27 13:49:32.705,-0.68,0.71,0.84,-138.0,4.94,6.1
2026-07-27 13:49:32.791,-0.81,0.84,0.86,-179.5,0.85,-1.34
2026-07-27 13:49:32.796,-0.81,0.84,0.86,-179.5,0.85,-1.34
2026-07-27 13:49:32.796,-0.97,0.99,0.87,-209.72,-19.65,-16.24
2026-07-27 13:49:32.836,-1.04,1.07,0.85,-218.32,-46.26,-32.04
2026-07-27 13:49:32.836,-1.04,1.07,0.85,-218.32,-46.26,-32.04
2026-07-27 13:49:32.926,-1.02,1.02,0.77,-207.34,-75.01,-44.43
2026-07-27 13:49:32.926,-1.02,1.02,0.77,-180.11,-104.92,-55.54
2026-07-27 13:49:32.926,-0.96,0.91,0.62,-180.11,-104.92,-55.54
2026-07-27 13:49:32.927,-0.89,0.81,0.47,-150.27,-127.01,-63.54
2026-07-27 13:49:32.967,-0.89,0.81,0.47,-150.27,-127.01,-63.54
2026-07-27 13:49:33.010,-0.81,0.72,0.32,-132.08,-135.74,-59.88
2026-07-27 13:49:33.011,-0.69,0.63,0.17,-120.79,-131.29,-43.76
2026-07-27 13:49:33.098,-0.69,0.63,0.17,-120.79,-131.29,-43.76
2026-07-27 13:49:33.098,-0.54,0.54,0.04,-99.61,-114.5,-24.84
2026-07-27 13:49:33.099,-0.54,0.54,0.04,-99.61,-114.5,-24.84
2026-07-27 13:49:33.100,-0.4,0.46,-0.04,-63.35,-88.93,-8.12
2026-07-27 13:49:33.142,-0.35,0.39,-0.09,-22.03,-58.41,6.29
2026-07-27 13:49:33.142,-0.35,0.39,-0.09,-22.03,-58.41,6.29
2026-07-27 13:49:33.188,-0.38,0.37,-0.12,19.59,-21.85,18.07
2026-07-27 13:49:33.188,-0.38,0.37,-0.12,19.59,-21.85,18.07
2026-07-27 13:49:33.273,-0.53,0.4,0.01,58.84,35.95,27.53
2026-07-27 13:49:33.276,-0.91,0.45,0.37,77.09,124.51,31.43
2026-07-27 13:49:33.289,-0.91,0.45,0.37,77.09,124.51,31.43
2026-07-27 13:49:33.319,-1.31,0.61,0.68,90.7,193.48,29.17
2026-07-27 13:49:33.319,-1.31,0.61,0.68,159.91,195.31,33.63
2026-07-27 13:49:33.360,-1.32,0.82,0.86,159.91,195.31,33.63
2026-07-27 13:49:33.404,-1.08,0.84,1.04,258.24,167.66,48.34
2026-07-27 13:49:33.404,-1.08,0.84,1.04,258.24,167.66,48.34
2026-07-27 13:49:33.405,-0.97,0.64,1.19,295.78,148.01,55.97
2026-07-27 13:49:33.449,-1.04,0.48,1.19,251.83,127.26,39.98
2026-07-27 13:49:33.491,-1.04,0.48,1.19,251.83,127.26,39.98
2026-07-27 13:49:33.492,-1.05,0.52,1.09,173.1,95.34,-0.85
2026-07-27 13:49:33.536,-1.05,0.52,1.09,173.1,95.34,-0.85
2026-07-27 13:49:33.536,-0.84,0.62,0.99,115.23,51.21,-39.98
2026-07-27 13:49:33.582,-0.58,0.6,0.83,90.76,4.03,-46.26
2026-07-27 13:49:33.582,-0.58,0.6,0.83,90.76,4.03,-46.26
2026-07-27 13:49:33.667,-0.48,0.48,0.63,74.4,-22.83,-24.41
2026-07-27 13:49:33.667,-0.48,0.48,0.63,74.4,-22.83,-24.41
2026-07-27 13:49:33.668,-0.51,0.4,0.5,48.95,-15.26,-4.21
2026-07-27 13:49:33.668,-0.54,0.44,0.46,22.95,13.92,0.06
2026-07-27 13:49:33.754,-0.54,0.44,0.46,22.95,13.92,0.06
2026-07-27 13:49:33.755,-0.55,0.51,0.55,7.02,46.94,-1.46
2026-07-27 13:49:33.755,-0.55,0.51,0.55,7.02,46.94,-1.46
2026-07-27 13:49:33.842,-0.62,0.49,0.68,-6.59,71.59,7.39
2026-07-27 13:49:33.842,-0.73,0.4,0.76,-31.07,77.03,24.35
2026-07-27 13:49:33.843,-0.73,0.4,0.76,-31.07,77.03,24.35
2026-07-27 13:49:33.843,-0.81,0.38,0.77,-69.76,63.54,32.29
2026-07-27 13:49:33.929,-0.81,0.38,0.77,-69.76,63.54,32.29
2026-07-27 13:49:33.929,-0.86,0.49,0.74,-109.62,39.25,24.48
2026-07-27 13:49:33.930,-0.94,0.66,0.69,-129.58,8.97,6.96
2026-07-27 13:49:33.931,-0.94,0.66,0.69,-129.58,8.97,6.96
2026-07-27 13:49:34.104,-1.04,0.84,0.66,-126.59,-20.26,-10.8
2026-07-27 13:49:34.104,-1.04,0.84,0.66,-126.59,-20.26,-10.8
2026-07-27 13:49:34.105,-1.07,0.9,0.69,-117.86,-36.99,-15.81
2026-07-27 13:49:34.106,-0.96,0.79,0.76,-119.81,-41.81,-1.4
2026-07-27 13:49:34.108,-0.96,0.79,0.76,-119.81,-41.81,-1.4
2026-07-27 13:49:34.108,-0.85,0.66,0.75,-138.37,-46.2,12.27
2026-07-27 13:49:34.109,-0.85,0.66,0.75,-138.37,-46.2,12.27
2026-07-27 13:49:34.148,-0.9,0.7,0.68,-169.25,-53.34,2.56
2026-07-27 13:49:34.151,-1.04,0.86,0.61,-191.77,-61.77,-25.88
2026-07-27 13:49:34.192,-1.04,0.86,0.61,-191.77,-61.77,-25.88
2026-07-27 13:49:34.192,-1.09,1.0,0.55,-188.54,-73.0,-52.37
2026-07-27 13:49:34.240,-0.98,1.0,0.48,-164.06,-86.85,-57.92
2026-07-27 13:49:34.240,-0.98,1.0,0.48,-164.06,-86.85,-57.92
2026-07-27 13:49:34.279,-0.78,0.87,0.4,-133.85,-98.02,-41.93
2026-07-27 13:49:34.325,-0.78,0.87,0.4,-133.85,-98.02,-41.93
2026-07-27 13:49:34.325,-0.66,0.71,0.33,-112.67,-101.14,-20.2
2026-07-27 13:49:34.367,-0.64,0.59,0.26,-103.58,-96.44,-5.43
2026-07-27 13:49:34.367,-0.64,0.59,0.26,-103.58,-96.44,-5.43
2026-07-27 13:49:34.454,-0.64,0.53,0.17,-94.67,-87.28,-0.37
2026-07-27 13:49:34.455,-0.64,0.53,0.17,-94.67,-87.28,-0.37
2026-07-27 13:49:34.455,-0.62,0.48,0.08,-73.91,-76.17,0.31
2026-07-27 13:49:34.456,-0.58,0.41,0.02,-36.93,-63.9,2.99
2026-07-27 13:49:34.498,-0.58,0.41,0.02,-36.93,-63.9,2.99
2026-07-27 13:49:34.549,-0.57,0.36,0.02,11.84,-46.69,7.57
2026-07-27 13:49:34.561,-0.57,0.36,0.02,11.84,-46.69,7.57
2026-07-27 13:49:34.586,-0.66,0.33,0.13,58.59,-16.48,11.47
2026-07-27 13:49:34.586,-0.82,0.3,0.37,88.68,25.02,12.94
2026-07-27 13:49:34.629,-0.82,0.3,0.37,88.68,25.02,12.94
2026-07-27 13:49:34.629,-0.94,0.3,0.62,104.19,54.57,8.12
2026-07-27 13:49:34.673,-0.94,0.3,0.62,104.19,54.57,8.12
2026-07-27 13:49:34.673,-0.95,0.35,0.77,124.51,56.46,-6.71
2026-07-27 13:49:34.725,-0.9,0.46,0.83,153.56,45.41,-27.65
2026-07-27 13:49:34.725,-0.9,0.46,0.83,153.56,45.41,-27.65
2026-07-27 13:49:34.848,-0.87,0.57,0.88,176.21,45.04,-43.88
2026-07-27 13:49:34.848,-0.87,0.69,0.92,182.5,66.47,-55.18
2026-07-27 13:49:34.849,-0.87,0.69,0.92,182.5,66.47,-55.18
2026-07-27 13:49:34.850,-0.89,0.81,0.94,178.53,101.01,-71.59
2026-07-27 13:49:34.850,-0.89,0.81,0.94,178.53,101.01,-71.59
2026-07-27 13:49:34.893,-0.93,0.96,0.94,190.12,126.34,-102.05
2026-07-27 13:49:34.894,-0.98,1.13,1.01,224.61,125.92,-144.59
2026-07-27 13:49:34.978,-0.98,1.13,1.01,224.61,125.92,-144.59
2026-07-27 13:49:34.981,-1.02,1.31,1.12,258.85,95.46,-185.61
2026-07-27 13:49:34.981,-0.91,1.48,1.16,279.85,39.18,-215.64
2026-07-27 13:49:35.068,-0.91,1.48,1.16,279.85,39.18,-215.64
2026-07-27 13:49:35.068,-0.41,1.45,1.09,296.45,-24.23,-209.17
2026-07-27 13:49:35.068,-0.41,1.45,1.09,296.45,-24.23,-209.17
2026-07-27 13:49:35.069,0.14,1.1,1.09,251.1,-54.14,-131.16
2026-07-27 13:49:35.114,0.06,0.58,1.0,55.42,-26.67,8.48
2026-07-27 13:49:35.114,0.06,0.58,1.0,55.42,-26.67,8.48
2026-07-27 13:49:35.155,-0.46,0.02,0.67,-159.36,5.07,139.59
2026-07-27 13:49:35.161,-0.46,0.02,0.67,-159.36,5.07,139.59
2026-07-27 13:49:35.203,-0.84,-0.27,0.41,-170.72,-12.57,170.1
2026-07-27 13:49:35.242,-0.87,-0.15,0.41,-56.64,-44.25,105.41
2026-07-27 13:49:35.247,-0.87,-0.15,0.41,-56.64,-44.25,105.41
2026-07-27 13:49:35.417,-0.8,0.06,0.54,-7.93,-46.2,45.96
2026-07-27 13:49:35.417,-0.8,0.06,0.54,-7.93,-46.2,45.96
2026-07-27 13:49:35.418,-0.85,0.18,0.65,-34.18,-28.32,33.02
2026-07-27 13:49:35.419,-0.95,0.29,0.71,-68.54,-20.57,33.2
2026-07-27 13:49:35.419,-0.95,0.29,0.71,-68.54,-20.57,33.2
2026-07-27 13:49:35.420,-0.89,0.51,0.58,-88.81,-29.05,34.91
2026-07-27 13:49:35.421,-0.89,0.51,0.58,-88.81,-29.05,34.91
2026-07-27 13:49:35.422,-0.82,0.76,0.18,-138.98,-14.47,65.0
2026-07-27 13:49:35.592,-0.94,0.61,-0.13,-232.3,34.85,128.91
2026-07-27 13:49:35.592,-0.94,0.61,-0.13,-232.3,34.85,128.91
2026-07-27 13:49:35.593,-0.93,0.29,0.02,-242.25,56.4,156.68
2026-07-27 13:49:35.594,-0.75,0.33,0.3,-161.93,26.31,105.22
2026-07-27 13:49:35.595,-0.75,0.33,0.3,-161.93,26.31,105.22
2026-07-27 13:49:35.596,-0.69,0.43,0.46,-122.8,-7.75,54.63
2026-07-27 13:49:35.596,-0.69,0.43,0.46,-122.8,-7.75,54.63
2026-07-27 13:49:35.635,-0.75,0.38,0.51,-114.14,-14.89,45.78
2026-07-27 13:49:35.684,-0.78,0.34,0.59,-94.54,-11.78,34.24
2026-07-27 13:49:35.684,-0.78,0.34,0.59,-94.54,-11.78,34.24
2026-07-27 13:49:35.723,-0.76,0.38,0.69,-69.64,-25.7,10.68
2026-07-27 13:49:35.724,-0.76,0.38,0.69,-69.64,-25.7,10.68
2026-07-27 13:49:35.898,-0.71,0.43,0.66,-37.66,-50.96,-0.61
2026-07-27 13:49:35.898,-0.66,0.43,0.59,4.58,-63.54,4.88
2026-07-27 13:49:35.899,-0.66,0.43,0.59,4.58,-63.54,4.88
2026-07-27 13:49:35.900,-0.63,0.39,0.62,27.28,-60.49,10.74
2026-07-27 13:49:35.901,-0.63,0.39,0.62,27.28,-60.49,10.74
2026-07-27 13:49:35.901,-0.63,0.34,0.68,13.49,-55.73,6.59
2026-07-27 13:49:35.902,-0.63,0.32,0.7,-11.96,-49.87,-2.32
2026-07-27 13:49:35.903,-0.63,0.32,0.7,-11.96,-49.87,-2.32
2026-07-27 13:49:35.949,-0.58,0.31,0.7,-51.21,-35.03,-9.28
2026-07-27 13:49:35.949,-0.58,0.31,0.7,-51.21,-35.03,-9.28
2026-07-27 13:49:35.989,-0.5,0.24,0.72,-128.11,-11.41,-10.38
2026-07-27 13:49:36.030,-0.52,0.04,0.73,-251.77,14.95,-3.42
2026-07-27 13:49:36.030,-0.52,0.04,0.73,-251.77,14.95,-3.42
2026-07-27 13:49:36.073,-0.62,-0.15,0.62,-411.8,36.5,10.31
2026-07-27 13:49:36.073,-0.62,-0.15,0.62,-411.8,36.5,10.31
2026-07-27 13:49:36.160,-0.56,-0.38,0.3,-681.03,27.22,31.56
2026-07-27 13:49:36.162,-0.5,-0.94,-0.3,-972.41,72.57,16.24
2026-07-27 13:49:36.163,-0.5,-0.94,-0.3,-972.41,72.57,16.24
2026-07-27 13:49:36.163,-0.53,-1.19,-0.67,-808.35,133.36,-36.93
2026-07-27 13:49:36.251,-0.51,-0.87,-0.58,-221.92,71.23,-67.2
2026-07-27 13:49:36.251,-0.51,-0.87,-0.58,-221.92,71.23,-67.2
2026-07-27 13:49:36.251,-0.51,-0.68,-0.47,159.55,-14.95,-66.59
2026-07-27 13:49:36.336,-0.51,-0.68,-0.47,159.55,-14.95,-66.59
2026-07-27 13:49:36.336,-0.51,-0.8,-0.43,217.83,-34.55,-45.65
2026-07-27 13:49:36.337,-0.5,-1.01,-0.24,255.49,-16.6,-3.6
2026-07-27 13:49:36.337,-0.5,-1.01,-0.24,255.49,-16.6,-3.6
2026-07-27 13:49:36.380,-0.5,-0.93,0.18,391.48,-20.32,54.99
2026-07-27 13:49:36.380,-0.5,-0.93,0.18,391.48,-20.32,54.99
2026-07-27 13:49:36.424,-0.53,-0.61,0.52,568.36,-31.19,101.87
2026-07-27 13:49:36.466,-0.54,0.01,0.53,804.75,0.06,151.49
2026-07-27 13:49:36.467,-0.54,0.01,0.53,804.75,0.06,151.49
2026-07-27 13:49:36.518,-0.55,0.44,0.56,761.78,55.91,182.74
2026-07-27 13:49:36.518,-0.55,0.44,0.56,761.78,55.91,182.74
2026-07-27 13:49:36.556,-0.61,0.29,0.68,293.27,90.21,130.62
2026-07-27 13:49:36.556,-0.66,0.1,0.73,-111.51,86.67,24.23
2026-07-27 13:49:36.598,-0.66,0.1,0.73,-111.51,86.67,24.23
2026-07-27 13:49:36.598,-0.64,0.09,0.79,-269.53,56.34,-66.83
2026-07-27 13:49:36.642,-0.66,0.03,0.72,-211.18,12.39,-92.77
2026-07-27 13:49:36.642,-0.66,0.03,0.72,-211.18,12.39,-92.77
2026-07-27 13:49:36.688,-0.65,-0.11,0.55,-37.48,-72.88,-70.86
2026-07-27 13:49:36.689,-0.65,-0.11,0.55,-37.48,-72.88,-70.86
2026-07-27 13:49:36.729,-0.46,-0.14,0.73,52.31,-237.18,-38.94
2026-07-27 13:49:36.775,-0.27,-0.06,1.02,31.98,-297.55,11.29
2026-07-27 13:49:36.775,-0.27,-0.06,1.02,31.98,-297.55,11.29
2026-07-27 13:49:36.819,-0.15,0.06,0.89,-2.99,-193.66,55.42
2026-07-27 13:49:36.820,-0.03,0.09,0.68,-10.13,-152.71,42.36
2026-07-27 13:49:36.860,-0.03,0.09,0.68,-10.13,-152.71,42.36
2026-07-27 13:49:36.908,0.06,0.05,0.74,-2.14,-141.66,-7.93
2026-07-27 13:49:36.909,0.06,0.05,0.74,-2.14,-141.66,-7.93
2026-07-27 13:49:36.948,0.07,-0.02,0.93,4.21,-62.07,-53.1
2026-07-27 13:49:36.949,0.07,-0.05,1.03,3.36,3.91,-80.75
2026-07-27 13:49:36.992,0.07,-0.05,1.03,3.36,3.91,-80.75
2026-07-27 13:49:36.992,0.04,-0.05,1.03,0.92,19.96,-69.09
2026-07-27 13:49:37.035,0.04,-0.05,1.03,0.92,19.96,-69.09
2026-07-27 13:49:37.036,0.01,-0.03,1.0,-0.31,10.5,-26.73
2026-07-27 13:49:37.080,0.0,-0.02,0.99,-0.31,0.43,3.78
2026-07-27 13:49:37.081,0.0,-0.02,0.99,-0.31,0.43,3.78
2026-07-27 13:49:37.123,0.0,-0.02,0.99,0.0,-2.75,9.89
2026-07-27 13:49:37.123,0.0,-0.02,0.99,0.0,-2.75,9.89
2026-07-27 13:49:37.171,0.01,-0.02,0.99,0.18,-1.71,4.82
2026-07-27 13:49:37.172,0.01,-0.02,0.99,0.18,-1.71,4.82
2026-07-27 13:49:37.211,0.01,-0.02,0.99,0.18,-0.24,0.12
2026-07-27 13:49:37.254,0.01,-0.02,0.99,0.18,0.31,-1.16
2026-07-27 13:49:37.255,0.01,-0.02,0.99,0.18,0.31,-1.16
2026-07-27 13:49:37.298,0.01,-0.02,0.99,0.12,0.18,-0.55
2026-07-27 13:49:37.298,0.01,-0.02,0.99,0.12,0.18,-0.55
2026-07-27 13:49:37.345,0.01,-0.02,0.99,0.12,0.0,0.12
2026-07-27 13:49:37.346,0.01,-0.02,0.99,0.12,-0.06,0.37
2026-07-27 13:49:37.386,0.01,-0.02,0.99,0.12,-0.06,0.37
2026-07-27 13:49:37.387,0.01,-0.02,0.99,0.12,-0.06,0.37
2026-07-27 13:49:37.430,0.01,-0.02,0.99,0.12,-0.06,0.37
2026-07-27 13:49:37.430,0.01,-0.02,0.99,0.12,-0.06,0.24
2026-07-27 13:49:37.473,0.01,-0.02,0.99,0.12,-0.06,0.24
2026-07-27 13:49:37.474,0.01,-0.02,0.99,0.12,-0.06,0.18
2026-07-27 13:49:37.517,0.01,-0.02,0.99,0.12,-0.06,0.18
2026-07-27 13:49:37.518,0.01,-0.02,0.99,0.12,-0.06,0.18
2026-07-27 13:49:37.561,0.01,-0.02,0.99,0.12,-0.06,0.24
2026-07-27 13:49:37.561,0.01,-0.02,0.99,0.12,-0.06,0.24
2026-07-27 13:49:37.654,0.01,-0.02,0.99,0.12,-0.06,0.24
2026-07-27 13:49:37.656,0.01,-0.02,0.99,0.12,-0.06,0.24
2026-07-27 13:49:37.656,0.01,-0.02,0.99,0.12,0.0,0.24
2026-07-27 13:49:37.657,0.01,-0.02,0.99,0.12,0.0,0.24
2026-07-27 13:49:37.692,0.01,-0.02,0.99,0.12,0.0,0.24
2026-07-27 13:49:37.692,0.01,-0.02,0.99,0.12,0.0,0.24
2026-07-27 13:49:37.736,0.01,-0.02,0.99,0.12,0.0,0.24
2026-07-27 13:49:37.736,0.01,-0.02,0.99,0.12,0.0,0.24
2026-07-27 13:49:37.779,0.01,-0.02,0.99,0.12,0.0,0.18
2026-07-27 13:49:37.779,0.01,-0.02,0.99,0.12,0.0,0.18
2026-07-27 13:49:37.823,0.01,-0.02,0.99,0.12,0.0,0.18
2026-07-27 13:49:37.824,0.01,-0.02,0.99,0.12,0.0,0.18
2026-07-27 13:49:37.867,0.01,-0.02,0.99,0.12,0.0,0.24
2026-07-27 13:49:37.910,0.01,-0.02,0.99,0.12,0.0,0.24
2026-07-27 13:49:37.911,0.01,-0.02,0.99,0.12,-0.06,0.18
2026-07-27 13:49:37.954,0.01,-0.02,0.99,0.06,-0.06,0.18
2026-07-27 13:49:37.955,0.01,-0.02,0.99,0.06,-0.06,0.18
2026-07-27 13:49:38.086,0.01,-0.02,0.99,0.06,-0.06,0.24
2026-07-27 13:49:38.086,0.01,-0.02,0.99,0.06,-0.06,0.24
2026-07-27 13:49:38.087,0.01,-0.02,0.99,0.06,0.0,0.24
2026-07-27 13:49:38.088,0.01,-0.02,0.99,0.06,0.0,0.24
2026-07-27 13:49:38.088,0.01,-0.02,0.99,0.06,0.0,0.18
2026-07-27 13:49:38.089,0.01,-0.02,0.99,0.12,0.0,0.24
2026-07-27 13:49:38.133,0.01,-0.02,0.99,0.12,0.0,0.24
2026-07-27 13:49:38.133,0.01,-0.02,0.99,0.12,-0.06,0.24
2026-07-27 13:49:38.394,0.01,-0.02,0.99,0.12,-0.06,0.24
2026-07-27 13:49:38.394,0.01,-0.02,0.99,0.12,-0.06,0.18
2026-07-27 13:49:38.395,0.01,-0.02,0.99,0.12,-0.06,0.18
2026-07-27 13:49:38.395,0.01,-0.02,0.99,0.12,-0.06,0.18
2026-07-27 13:49:38.395,0.01,-0.02,0.99,0.12,-0.06,0.18
2026-07-27 13:49:38.395,0.01,-0.02,0.99,0.12,-0.06,0.18
2026-07-27 13:49:38.396,0.01,-0.02,0.99,0.12,-0.06,0.18
2026-07-27 13:49:38.396,0.01,-0.02,0.99,0.12,-0.06,0.18
2026-07-27 13:49:38.397,0.01,-0.02,0.99,0.12,-0.06,0.18
2026-07-27 13:49:38.398,0.01,-0.02,0.99,0.12,-0.06,0.18
2026-07-27 13:49:38.399,0.01,-0.02,0.99,0.12,-0.06,0.18
2026-07-27 13:49:38.399,0.01,-0.02,0.99,0.12,-0.06,0.24
2026-07-27 13:49:38.482,0.01,-0.02,0.99,0.12,-0.06,0.24
2026-07-27 13:49:38.482,0.01,-0.02,0.99,0.12,-0.06,0.24
2026-07-27 13:49:38.482,0.01,-0.02,0.99,0.12,-0.06,0.24
2026-07-27 13:49:38.524,0.01,-0.02,0.99,0.12,-0.06,0.24
2026-07-27 13:49:38.524,0.01,-0.02,0.99,0.06,-0.06,0.18
2026-07-27 13:49:38.698,0.01,-0.02,0.99,0.06,-0.06,0.18
2026-07-27 13:49:38.698,0.01,-0.02,0.99,0.06,-0.06,0.18
2026-07-27 13:49:38.699,0.01,-0.02,0.99,0.06,-0.06,0.18
2026-07-27 13:49:38.699,0.01,-0.02,0.99,0.12,-0.06,0.18
2026-07-27 13:49:38.700,0.01,-0.02,0.99,0.12,-0.06,0.18
2026-07-27 13:49:38.701,0.01,-0.02,0.99,0.18,0.0,0.18
2026-07-27 13:49:38.702,0.01,-0.02,0.99,0.18,0.0,0.24
2026-07-27 13:49:38.703,0.01,-0.02,0.99,0.18,0.0,0.24
2026-07-27 13:49:38.742,0.01,-0.02,0.99,0.12,0.0,0.24
2026-07-27 13:49:38.742,0.01,-0.02,0.99,0.12,0.0,0.24
2026-07-27 13:49:38.786,0.01,-0.02,0.99,0.12,-0.06,0.24
2026-07-27 13:49:38.829,0.01,-0.02,0.99,0.12,-0.06,0.18
2026-07-27 13:49:38.829,0.01,-0.02,0.99,0.12,-0.06,0.18
2026-07-27 13:49:38.883,0.01,-0.02,0.99,0.12,-0.06,0.18
2026-07-27 13:49:38.883,0.01,-0.02,0.99,0.12,-0.06,0.18
2026-07-27 13:49:38.917,0.01,-0.02,0.99,0.12,-0.06,0.24
2026-07-27 13:49:38.917,0.01,-0.02,0.99,0.12,-0.06,0.24
2026-07-27 13:49:38.960,0.01,-0.02,0.99,0.12,-0.06,0.24
2026-07-27 13:49:38.961,0.01,-0.02,0.99,0.12,-0.06,0.24
2026-07-27 13:49:39.012,0.01,-0.02,0.99,0.12,-0.06,0.24
2026-07-27 13:49:39.019,0.01,-0.02,0.99,0.12,-0.06,0.24
2026-07-27 13:49:39.048,0.01,-0.02,0.99,0.12,-0.06,0.24
2026-07-27 13:49:39.048,0.01,-0.02,0.99,0.12,-0.06,0.24
2026-07-27 13:49:39.092,0.01,-0.02,0.99,0.12,-0.06,0.24
2026-07-27 13:49:39.092,0.01,-0.02,0.99,0.12,-0.06,0.24
2026-07-27 13:49:39.136,0.01,-0.02,0.99,0.12,-0.06,0.24
2026-07-27 13:49:39.136,0.01,-0.02,0.99,0.12,-0.06,0.24
2026-07-27 13:49:39.228,0.01,-0.02,0.99,0.06,-0.06,0.24
2026-07-27 13:49:39.228,0.01,-0.02,0.99,0.06,-0.06,0.24
2026-07-27 13:49:39.228,0.01,-0.02,0.99,0.06,-0.06,0.24
2026-07-27 13:49:39.228,0.01,-0.02,0.99,0.12,-0.06,0.24
2026-07-27 13:49:39.315,0.01,-0.02,0.99,0.12,-0.06,0.24
2026-07-27 13:49:39.315,0.01,-0.02,0.99,0.12,-0.06,0.24
2026-07-27 13:49:39.315,0.01,-0.02,0.99,0.12,-0.06,0.24
2026-07-27 13:49:39.316,0.01,-0.02,0.99,0.12,-0.06,0.18
2026-07-27 13:49:39.355,0.01,-0.02,0.99,0.12,-0.06,0.18
2026-07-27 13:49:39.356,0.01,-0.02,0.99,0.12,-0.06,0.18
2026-07-27 13:49:39.398,0.01,-0.02,0.99,0.12,-0.06,0.18
2026-07-27 13:49:39.442,0.01,-0.02,0.99,0.12,-0.06,0.18
2026-07-27 13:49:39.443,0.01,-0.02,0.99,0.12,-0.06,0.24
2026-07-27 13:49:39.486,0.01,-0.02,0.99,0.12,-0.06,0.24
2026-07-27 13:49:39.486,0.01,-0.02,0.99,0.12,-0.06,0.24
2026-07-27 13:49:39.530,0.01,-0.02,0.99,0.12,-0.06,0.24
2026-07-27 13:49:39.530,0.01,-0.02,0.99,0.12,-0.06,0.24
2026-07-27 13:49:39.663,0.01,-0.02,0.99,0.12,-0.06,0.24
2026-07-27 13:49:39.664,0.01,-0.02,0.99,0.12,-0.06,0.24
2026-07-27 13:49:39.664,0.01,-0.02,0.99,0.12,0.0,0.24
2026-07-27 13:49:39.664,0.01,-0.02,0.99,0.12,0.0,0.24
2026-07-27 13:49:39.664,0.01,-0.02,0.99,0.12,0.0,0.24
2026-07-27 13:49:39.664,0.01,-0.02,0.99,0.12,-0.06,0.24
2026-07-27 13:49:39.705,0.01,-0.02,0.99,0.12,-0.06,0.24
2026-07-27 13:49:39.706,0.01,-0.02,0.99,0.12,-0.06,0.24
2026-07-27 13:49:39.748,0.01,-0.02,0.99,0.12,-0.06,0.24
2026-07-27 13:49:39.749,0.01,-0.02,0.99,0.06,-0.06,0.18
2026-07-27 13:49:39.796,0.01,-0.02,0.99,0.12,-0.06,0.24
2026-07-27 13:49:39.796,0.01,-0.02,0.99,0.12,-0.06,0.24
2026-07-27 13:49:39.843,0.01,-0.02,0.99,0.12,-0.06,0.24
2026-07-27 13:49:39.843,0.01,-0.02,0.99,0.12,-0.06,0.24
2026-07-27 13:49:39.879,0.01,-0.02,0.99,0.12,0.0,0.24
2026-07-27 13:49:39.968,0.01,-0.02,0.99,0.12,-0.06,0.24
2026-07-27 13:49:39.968,0.01,-0.02,0.99,0.12,-0.06,0.24
2026-07-27 13:49:39.968,0.01,-0.02,0.99,0.12,-0.06,0.18
2026-07-27 13:49:39.969,0.01,-0.02,0.99,0.12,-0.06,0.18
2026-07-27 13:49:40.011,0.01,-0.02,0.99,0.12,0.0,0.18
2026-07-27 13:49:40.011,0.01,-0.02,0.99,0.12,0.0,0.18
2026-07-27 13:49:40.098,0.01,-0.02,0.99,0.06,0.0,0.24
2026-07-27 13:49:40.098,0.01,-0.02,0.99,0.12,0.0,0.24
2026-07-27 13:49:40.099,0.01,-0.02,0.99,0.12,0.0,0.24
2026-07-27 13:49:40.100,0.01,-0.02,0.99,0.12,-0.06,0.18
2026-07-27 13:49:40.142,0.01,-0.02,0.99,0.12,-0.06,0.18
2026-07-27 13:49:40.142,0.01,-0.02,0.99,0.12,-0.06,0.24
2026-07-27 13:49:40.185,0.01,-0.02,0.99,0.12,-0.06,0.24
2026-07-27 13:49:40.186,0.01,-0.02,0.99,0.12,-0.06,0.24
2026-07-27 13:49:40.229,0.01,-0.02,0.99,0.12,-0.06,0.24
2026-07-27 13:49:40.229,0.01,-0.02,0.99,0.12,-0.06,0.24
2026-07-27 13:49:40.320,0.01,-0.02,0.99,0.12,-0.06,0.24
2026-07-27 13:49:40.320,0.01,-0.02,0.99,0.12,-0.06,0.24
2026-07-27 13:49:40.320,0.01,-0.02,0.99,0.12,-0.06,0.18
2026-07-27 13:49:40.321,0.01,-0.02,0.99,0.12,-0.06,0.24
2026-07-27 13:49:40.405,0.01,-0.02,0.99,0.12,-0.06,0.24
2026-07-27 13:49:40.405,0.01,-0.02,0.99,0.12,-0.06,0.24
2026-07-27 13:49:40.405,0.01,-0.02,0.99,0.12,-0.06,0.24
2026-07-27 13:49:40.448,0.01,-0.02,0.99,0.12,-0.06,0.24
2026-07-27 13:49:40.448,0.01,-0.02,0.99,0.12,-0.06,0.24
2026-07-27 13:49:40.536,0.01,-0.02,0.99,0.12,-0.06,0.24
2026-07-27 13:49:40.536,0.01,-0.02,0.99,0.12,-0.06,0.24
2026-07-27 13:49:40.536,0.01,-0.02,0.99,0.12,-0.06,0.24
2026-07-27 13:49:40.537,0.01,-0.02,0.99,0.12,0.0,0.24
2026-07-27 13:49:40.588,0.01,-0.02,0.99,0.12,0.0,0.24
2026-07-27 13:49:40.589,0.01,-0.02,0.99,0.12,-0.06,0.24
2026-07-27 13:49:40.626,0.01,-0.02,0.99,0.12,-0.06,0.24
2026-07-27 13:49:40.626,0.01,-0.02,0.99,0.12,0.0,0.24
2026-07-27 13:49:40.725,0.01,-0.02,0.99,0.18,-0.06,0.24
2026-07-27 13:49:40.726,0.01,-0.02,0.99,0.18,-0.06,0.24
2026-07-27 13:49:40.726,0.01,-0.02,0.99,0.12,-0.06,0.24
2026-07-27 13:49:40.726,0.01,-0.02,0.99,0.12,-0.06,0.24
2026-07-27 13:49:40.754,0.01,-0.02,0.99,0.12,-0.06,0.24
2026-07-27 13:49:40.755,0.01,-0.02,0.99,0.12,-0.06,0.24
2026-07-27 13:49:40.798,0.01,-0.02,0.99,0.12,0.0,0.24
2026-07-27 13:49:40.886,0.01,-0.02,0.99,0.12,-0.06,0.24
2026-07-27 13:49:40.887,0.01,-0.02,0.99,0.12,-0.06,0.24
2026-07-27 13:49:40.887,0.01,-0.02,0.99,0.12,-0.06,0.24
2026-07-27 13:49:40.887,0.01,-0.02,0.99,0.12,-0.06,0.24
2026-07-27 13:49:40.973,0.01,-0.02,0.99,0.12,-0.06,0.24
2026-07-27 13:49:40.973,0.01,-0.02,0.99,0.12,-0.06,0.24
2026-07-27 13:49:40.974,0.01,-0.02,0.99,0.12,-0.06,0.24
2026-07-27 13:49:40.975,0.01,-0.02,0.99,0.12,-0.06,0.18
2026-07-27 13:49:41.192,0.01,-0.02,0.99,0.12,-0.06,0.18
2026-07-27 13:49:41.192,0.01,-0.02,0.99,0.12,-0.06,0.18
2026-07-27 13:49:41.192,0.01,-0.02,0.99,0.12,-0.06,0.24
2026-07-27 13:49:41.193,0.01,-0.02,0.99,0.12,-0.06,0.24
2026-07-27 13:49:41.195,0.01,-0.02,0.99,0.12,-0.06,0.24
2026-07-27 13:49:41.195,0.01,-0.02,0.99,0.12,-0.06,0.24
2026-07-27 13:49:41.196,0.01,-0.02,0.99,0.12,0.0,0.24
2026-07-27 13:49:41.197,0.01,-0.02,0.99,0.12,0.0,0.24
2026-07-27 13:49:41.199,0.01,-0.02,0.99,0.12,0.0,0.24
2026-07-27 13:49:41.201,0.01,-0.02,0.99,0.12,-0.06,0.18
2026-07-27 13:49:41.236,0.01,-0.02,0.99,0.12,-0.06,0.18
2026-07-27 13:49:41.236,0.01,-0.02,0.99,0.12,-0.06,0.18
2026-07-27 13:49:41.292,0.01,-0.02,0.99,0.12,-0.06,0.18
2026-07-27 13:49:41.292,0.01,-0.02,0.99,0.12,-0.06,0.18
2026-07-27 13:49:41.410,0.01,-0.02,0.99,0.12,-0.06,0.18
2026-07-27 13:49:41.411,0.01,-0.02,0.99,0.12,-0.06,0.18
2026-07-27 13:49:41.411,0.01,-0.02,0.99,0.12,0.0,0.18
2026-07-27 13:49:41.412,0.01,-0.02,0.99,0.12,0.0,0.18
2026-07-27 13:49:41.413,0.01,-0.02,0.99,0.12,-0.06,0.24
2026-07-27 13:49:41.416,0.01,-0.02,0.99,0.12,-0.06,0.24
2026-07-27 13:49:41.498,0.01,-0.02,0.99,0.12,-0.06,0.24
2026-07-27 13:49:41.499,0.01,-0.02,0.99,0.12,-0.06,0.24
2026-07-27 13:49:41.499,0.01,-0.02,0.99,0.12,-0.06,0.24
2026-07-27 13:49:41.588,0.01,-0.02,0.99,0.06,-0.06,0.24
2026-07-27 13:49:41.590,0.01,-0.02,0.99,0.06,-0.06,0.24
2026-07-27 13:49:41.590,0.01,-0.02,0.99,0.06,-0.06,0.18
2026-07-27 13:49:41.590,0.01,-0.02,0.99,0.06,-0.06,0.18
2026-07-27 13:49:41.629,0.01,-0.02,0.99,0.06,-0.06,0.24
2026-07-27 13:49:41.630,0.01,-0.02,0.99,0.12,-0.06,0.18
2026-07-27 13:49:41.673,0.01,-0.02,0.99,0.12,-0.06,0.18
2026-07-27 13:49:41.673,0.01,-0.02,0.99,0.12,0.0,0.18
2026-07-27 13:49:41.804,0.01,-0.02,0.99,0.12,0.0,0.18
2026-07-27 13:49:41.804,0.01,-0.02,0.99,0.12,0.0,0.18
2026-07-27 13:49:41.805,0.01,-0.02,0.99,0.12,0.0,0.18
2026-07-27 13:49:41.806,0.01,-0.02,0.99,0.12,-0.06,0.18
2026-07-27 13:49:41.807,0.01,-0.02,0.99,0.12,-0.06,0.18
2026-07-27 13:49:41.807,0.01,-0.02,0.99,0.12,-0.06,0.18
2026-07-27 13:49:41.851,0.01,-0.02,0.99,0.12,-0.06,0.18
2026-07-27 13:49:41.851,0.01,-0.02,0.99,0.12,-0.06,0.18
2026-07-27 13:49:41.892,0.01,-0.02,0.99,0.12,0.0,0.18
2026-07-27 13:49:41.893,0.01,-0.02,0.99,0.12,0.0,0.18
2026-07-27 13:49:41.935,0.01,-0.02,0.99,0.12,0.0,0.18
2026-07-27 13:49:41.980,0.01,-0.02,0.99,0.12,-0.06,0.18
2026-07-27 13:49:41.980,0.01,-0.02,0.99,0.12,-0.06,0.18
2026-07-27 13:49:42.111,0.01,-0.02,0.99,0.18,-0.06,0.24
2026-07-27 13:49:42.111,0.01,-0.02,0.99,0.18,-0.06,0.24
2026-07-27 13:49:42.113,0.01,-0.02,0.99,0.12,-0.06,0.18
2026-07-27 13:49:42.113,0.01,-0.02,0.99,0.12,-0.06,0.18
2026-07-27 13:49:42.113,0.01,-0.02,0.99,0.12,-0.06,0.18
2026-07-27 13:49:42.114,0.01,-0.02,0.99,0.12,-0.06,0.18
2026-07-27 13:49:42.154,0.01,-0.02,0.99,0.12,-0.06,0.18
2026-07-27 13:49:42.154,0.01,-0.02,0.99,0.12,-0.06,0.18
2026-07-27 13:49:42.198,0.01,-0.02,0.99,0.12,-0.06,0.18
2026-07-27 13:49:42.198,0.01,-0.02,0.99,0.12,-0.06,0.18
2026-07-27 13:49:42.243,0.01,-0.02,0.99,0.12,-0.06,0.18
2026-07-27 13:49:42.243,0.01,-0.02,0.99,0.12,-0.06,0.18
2026-07-27 13:49:42.329,0.01,-0.02,0.99,0.12,-0.06,0.24
2026-07-27 13:49:42.329,0.01,-0.02,0.99,0.12,-0.06,0.24
2026-07-27 13:49:42.330,0.01,-0.02,0.99,0.12,-0.06,0.24
2026-07-27 13:49:42.331,0.01,-0.02,0.99,0.12,-0.06,0.24
2026-07-27 13:49:42.373,0.01,-0.02,0.99,0.12,-0.06,0.24
2026-07-27 13:49:42.417,0.01,-0.02,0.99,0.12,-0.06,0.24
2026-07-27 13:49:42.417,0.01,-0.02,0.99,0.12,-0.06,0.24
2026-07-27 13:49:42.505,0.01,-0.02,0.99,0.12,0.0,0.24
2026-07-27 13:49:42.505,0.01,-0.02,0.99,0.12,0.0,0.24
2026-07-27 13:49:42.505,0.01,-0.02,0.99,0.12,0.0,0.24
2026-07-27 13:49:42.506,0.01,-0.02,0.99,0.12,0.0,0.24
2026-07-27 13:49:42.554,0.01,-0.02,0.99,0.12,0.0,0.24
2026-07-27 13:49:42.554,0.01,-0.02,0.99,0.12,-0.06,0.24
2026-07-27 13:49:42.592,0.01,-0.02,0.99,0.12,-0.06,0.24
2026-07-27 13:49:42.592,0.01,-0.02,0.99,0.12,-0.06,0.24
2026-07-27 13:49:42.685,0.01,-0.02,0.99,0.12,0.0,0.24
2026-07-27 13:49:42.686,0.01,-0.02,0.99,0.12,0.0,0.24
2026-07-27 13:49:42.686,0.01,-0.02,0.99,0.12,0.0,0.24
2026-07-27 13:49:42.686,0.01,-0.02,0.99,0.12,0.0,0.24
2026-07-27 13:49:42.723,0.01,-0.02,0.99,0.12,-0.06,0.24
2026-07-27 13:49:42.723,0.01,-0.02,0.99,0.12,-0.06,0.24
2026-07-27 13:49:42.771,0.01,-0.02,0.99,0.12,-0.06,0.18
2026-07-27 13:49:42.771,0.01,-0.02,0.99,0.12,0.0,0.18
2026-07-27 13:49:42.854,0.01,-0.02,0.99,0.12,0.0,0.18
2026-07-27 13:49:42.854,0.01,-0.02,0.99,0.12,0.0,0.18
2026-07-27 13:49:42.855,0.01,-0.02,0.99,0.12,0.0,0.18
2026-07-27 13:49:42.899,0.01,-0.02,0.99,0.06,-0.06,0.24
2026-07-27 13:49:42.899,0.01,-0.02,0.99,0.06,-0.06,0.24
2026-07-27 13:49:42.944,0.01,-0.02,0.99,0.06,-0.06,0.24
2026-07-27 13:49:42.944,0.01,-0.02,0.99,0.06,0.0,0.18
2026-07-27 13:49:43.030,0.01,-0.02,0.99,0.06,0.0,0.18
2026-07-27 13:49:43.030,0.01,-0.02,0.99,0.06,0.0,0.18
2026-07-27 13:49:43.030,0.01,-0.02,0.99,0.12,0.0,0.18
2026-07-27 13:49:43.031,0.01,-0.02,0.99,0.12,0.0,0.18
2026-07-27 13:49:43.074,0.01,-0.02,0.99,0.12,-0.06,0.18
2026-07-27 13:49:43.074,0.01,-0.02,0.99,0.12,-0.06,0.18
2026-07-27 13:49:43.117,0.01,-0.02,0.99,0.12,-0.06,0.24
2026-07-27 13:49:43.117,0.01,-0.02,0.99,0.12,-0.06,0.24
2026-07-27 13:49:43.161,0.01,-0.02,0.99,0.06,-0.06,0.31
2026-07-27 13:49:43.162,0.01,-0.02,0.99,0.06,-0.06,0.31
2026-07-27 13:49:43.205,0.01,-0.02,0.99,0.06,-0.06,0.31
2026-07-27 13:49:43.205,0.01,-0.02,0.99,0.12,-0.06,0.24
2026-07-27 13:49:43.248,0.01,-0.02,0.99,0.12,-0.06,0.24
2026-07-27 13:49:43.248,0.01,-0.02,0.99,0.12,-0.06,0.18
2026-07-27 13:49:43.295,0.01,-0.02,0.99,0.12,-0.06,0.24
2026-07-27 13:49:43.295,0.01,-0.02,0.99,0.12,-0.06,0.24
2026-07-27 13:49:43.335,0.01,-0.02,0.99,0.12,-0.06,0.24
2026-07-27 13:49:43.379,0.01,-0.02,0.99,0.12,-0.06,0.24
2026-07-27 13:49:43.380,0.01,-0.02,0.99,0.12,0.0,0.24
2026-07-27 13:49:43.428,0.01,-0.02,0.99,0.12,0.0,0.24
2026-07-27 13:49:43.428,0.01,-0.02,0.99,0.12,0.0,0.24
2026-07-27 13:49:43.467,0.01,-0.02,0.99,0.12,-0.06,0.24
2026-07-27 13:49:43.467,0.01,-0.02,0.99,0.12,-0.06,0.24
2026-07-27 13:49:43.510,0.01,-0.02,0.99,0.12,-0.06,0.24
2026-07-27 13:49:43.511,0.01,-0.02,0.99,0.12,-0.06,0.24
2026-07-27 13:49:43.601,0.01,-0.02,0.99,0.12,-0.06,0.24
2026-07-27 13:49:43.601,0.01,-0.02,0.99,0.12,-0.06,0.18
2026-07-27 13:49:43.601,0.01,-0.02,0.99,0.12,-0.06,0.18
2026-07-27 13:49:43.602,0.01,-0.02,0.99,0.12,-0.06,0.18
2026-07-27 13:49:43.730,0.01,-0.02,0.99,0.12,-0.06,0.18
2026-07-27 13:49:43.730,0.01,-0.02,0.99,0.12,-0.06,0.24
2026-07-27 13:49:43.731,0.01,-0.02,0.99,0.12,-0.06,0.24
2026-07-27 13:49:43.731,0.01,-0.02,0.99,0.12,-0.06,0.24
2026-07-27 13:49:43.732,0.01,-0.02,0.99,0.12,0.0,0.24
2026-07-27 13:49:43.733,0.01,-0.02,0.99,0.12,0.0,0.24
2026-07-27 13:49:43.773,0.01,-0.02,0.99,0.12,0.0,0.18
2026-07-27 13:49:43.773,0.01,-0.02,0.99,0.12,0.0,0.18
2026-07-27 13:49:43.816,0.01,-0.02,0.99,0.18,-0.06,0.18
2026-07-27 13:49:43.817,0.01,-0.02,0.99,0.18,-0.06,0.18
2026-07-27 13:49:43.864,0.01,-0.02,0.99,0.18,-0.06,0.24
2026-07-27 13:49:43.904,0.01,-0.02,0.99,0.12,-0.06,0.24
2026-07-27 13:49:43.904,0.01,-0.02,0.99,0.12,-0.06,0.24
2026-07-27 13:49:43.948,0.01,-0.02,0.99,0.12,-0.06,0.24
2026-07-27 13:49:43.948,0.01,-0.02,0.99,0.12,-0.06,0.24
2026-07-27 13:49:44.036,0.01,-0.02,0.99,0.12,-0.06,0.18
2026-07-27 13:49:44.037,0.01,-0.02,0.99,0.12,0.0,0.18
2026-07-27 13:49:44.037,0.01,-0.02,0.99,0.12,0.0,0.18
2026-07-27 13:49:44.037,0.01,-0.02,0.99,0.12,0.0,0.24
2026-07-27 13:49:44.094,0.01,-0.02,0.99,0.12,0.0,0.24
2026-07-27 13:49:44.094,0.01,-0.02,0.99,0.12,-0.06,0.24
2026-07-27 13:49:44.124,0.01,-0.02,0.99,0.12,-0.06,0.24
2026-07-27 13:49:44.124,0.01,-0.02,0.99,0.12,-0.06,0.24
2026-07-27 13:49:44.167,0.01,-0.02,0.99,0.12,-0.06,0.24
2026-07-27 13:49:44.167,0.01,-0.02,0.99,0.12,-0.06,0.24
2026-07-27 13:49:44.210,0.01,-0.02,0.99,0.12,-0.06,0.24
2026-07-27 13:49:44.210,0.01,-0.02,0.99,0.12,-0.06,0.24
2026-07-27 13:49:44.255,0.01,-0.02,0.99,0.12,-0.06,0.18
2026-07-27 13:49:44.255,0.01,-0.02,0.99,0.12,-0.06,0.18
2026-07-27 13:49:44.342,0.01,-0.02,0.99,0.12,-0.06,0.18
2026-07-27 13:49:44.342,0.01,-0.02,0.99,0.12,-0.06,0.18
2026-07-27 13:49:44.342,0.01,-0.02,0.99,0.12,-0.06,0.18
2026-07-27 13:49:44.387,0.01,-0.02,0.99,0.12,-0.06,0.18
2026-07-27 13:49:44.387,0.01,-0.02,0.99,0.12,-0.06,0.18
2026-07-27 13:49:44.434,0.01,-0.02,0.99,0.12,-0.06,0.18
2026-07-27 13:49:44.434,0.01,-0.02,0.99,0.12,0.0,0.24
2026-07-27 13:49:44.473,0.01,-0.02,0.99,0.12,0.0,0.24
2026-07-27 13:49:44.473,0.01,-0.02,0.99,0.12,0.0,0.24
2026-07-27 13:49:44.530,0.01,-0.02,0.99,0.12,0.0,0.24
2026-07-27 13:49:44.530,0.01,-0.02,0.99,0.12,0.0,0.24
2026-07-27 13:49:44.561,0.01,-0.02,0.99,0.12,0.0,0.24
2026-07-27 13:49:44.562,0.01,-0.02,0.99,0.12,-0.06,0.24
2026-07-27 13:49:44.648,0.01,-0.02,0.99,0.12,-0.06,0.24
2026-07-27 13:49:44.649,0.01,-0.02,0.99,0.12,-0.06,0.24
2026-07-27 13:49:44.649,0.01,-0.02,0.99,0.12,-0.06,0.24
2026-07-27 13:49:44.650,0.01,-0.02,0.99,0.12,-0.06,0.24
2026-07-27 13:49:44.692,0.01,-0.02,0.99,0.12,0.0,0.24
2026-07-27 13:49:44.693,0.01,-0.02,0.99,0.12,0.0,0.24
2026-07-27 13:49:44.780,0.01,-0.02,0.99,0.12,0.0,0.24
2026-07-27 13:49:44.780,0.01,-0.02,0.99,0.12,-0.06,0.24
2026-07-27 13:49:44.780,0.01,-0.02,0.99,0.12,-0.06,0.24
2026-07-27 13:49:44.781,0.01,-0.02,0.99,0.12,-0.06,0.24
2026-07-27 13:49:44.823,0.01,-0.02,0.99,0.12,-0.06,0.24
2026-07-27 13:49:44.911,0.01,-0.02,0.99,0.12,-0.06,0.24
2026-07-27 13:49:44.911,0.01,-0.02,0.99,0.06,-0.06,0.24
2026-07-27 13:49:44.911,0.01,-0.02,0.99,0.06,-0.06,0.24
2026-07-27 13:49:44.913,0.01,-0.02,0.99,0.06,-0.06,0.24
2026-07-27 13:49:44.960,0.01,-0.02,0.99,0.06,-0.06,0.24
2026-07-27 13:49:44.960,0.01,-0.02,0.99,0.12,-0.06,0.24
2026-07-27 13:49:44.998,0.01,-0.02,0.99,0.12,-0.06,0.24
2026-07-27 13:49:44.998,0.01,-0.02,0.99,0.12,-0.06,0.24
2026-07-27 13:49:45.087,0.01,-0.02,0.99,0.12,-0.06,0.24
2026-07-27 13:49:45.087,0.01,-0.02,0.99,0.12,-0.06,0.24
2026-07-27 13:49:45.087,0.01,-0.02,0.99,0.12,-0.06,0.24
2026-07-27 13:49:45.087,0.01,-0.02,0.99,0.12,-0.06,0.24
2026-07-27 13:49:45.130,0.01,-0.02,0.99,0.12,-0.06,0.18
2026-07-27 13:49:45.131,0.01,-0.02,0.99,0.12,0.0,0.18
2026-07-27 13:49:45.173,0.01,-0.02,0.99,0.12,0.0,0.18
2026-07-27 13:49:45.261,0.01,-0.02,0.99,0.12,0.0,0.18
2026-07-27 13:49:45.261,0.01,-0.02,0.99,0.12,0.0,0.18
2026-07-27 13:49:45.261,0.01,-0.02,0.99,0.12,-0.06,0.18
2026-07-27 13:49:45.262,0.01,-0.02,0.99,0.12,-0.06,0.24
2026-07-27 13:49:45.263,0.01,-0.02,0.99,0.12,-0.06,0.24
2026-07-27 13:49:45.305,0.01,-0.02,0.99,0.12,-0.06,0.24
2026-07-27 13:49:45.348,0.01,-0.02,0.99,0.12,-0.06,0.24
2026-07-27 13:49:45.348,0.01,-0.02,0.99,0.12,-0.06,0.18
2026-07-27 13:49:45.436,0.01,-0.02,0.99,0.12,-0.06,0.18
2026-07-27 13:49:45.437,0.01,-0.02,0.99,0.12,-0.06,0.18
2026-07-27 13:49:45.438,0.01,-0.02,0.99,0.12,0.0,0.18
2026-07-27 13:49:45.438,0.01,-0.02,0.99,0.12,0.0,0.18
2026-07-27 13:49:45.523,0.01,-0.02,0.99,0.12,-0.06,0.18
2026-07-27 13:49:45.523,0.01,-0.02,0.99,0.12,-0.06,0.18
2026-07-27 13:49:45.524,0.01,-0.02,0.99,0.12,-0.06,0.18
2026-07-27 13:49:45.524,0.01,-0.02,0.99,0.12,-0.06,0.24
2026-07-27 13:49:45.567,0.01,-0.02,0.99,0.12,-0.06,0.24
2026-07-27 13:49:45.568,0.01,-0.02,0.99,0.12,-0.06,0.24
2026-07-27 13:49:45.655,0.01,-0.02,0.99,0.12,-0.06,0.24
2026-07-27 13:49:45.655,0.01,-0.02,0.99,0.12,-0.06,0.18
2026-07-27 13:49:45.655,0.01,-0.02,0.99,0.12,-0.06,0.18
2026-07-27 13:49:45.656,0.01,-0.02,0.99,0.12,-0.06,0.24
