Timestamp,AccX,AccY,AccZ,GyroX,GyroY,GyroZ
2026-07-27 13:08:37.603,0.04,-0.69,1.11,16.48,39.06,10.44
2026-07-27 13:08:37.604,-1.12,0.79,0.05,-151.73,-0.85,86.61
2026-07-27 13:08:37.663,-0.88,0.72,0.45,-863.53,-200.01,221.25
2026-07-27 13:08:37.672,-0.28,-0.14,0.94,-1247.8,-309.45,164.2
2026-07-27 13:08:37.676,-0.28,-0.14,0.94,-1247.8,-309.45,164.2
2026-07-27 13:08:37.677,0.24,-1.02,0.91,-750.55,-12.94,-2.08
2026-07-27 13:08:37.677,0.24,-1.02,0.91,-750.55,-12.94,-2.08
2026-07-27 13:08:37.720,0.21,-1.1,0.5,304.63,524.05,-75.2
2026-07-27 13:08:37.721,-0.14,-0.92,0.12,913.45,697.45,-48.65
2026-07-27 13:08:37.777,-0.14,-0.92,0.12,913.45,697.45,-48.65
2026-07-27 13:08:37.778,-0.47,-0.88,-0.15,712.04,403.2,27.47
2026-07-27 13:08:37.778,-0.47,-0.88,-0.15,712.04,403.2,27.47
2026-07-27 13:08:37.836,-0.43,-0.66,-0.27,94.91,-4.64,171.94
2026-07-27 13:08:37.837,0.04,-0.06,0.48,-499.45,-385.93,336.91
2026-07-27 13:08:37.905,0.04,-0.06,0.48,-499.45,-385.93,336.91
2026-07-27 13:08:37.914,0.22,0.22,2.28,-806.03,-639.1,321.11
2026-07-27 13:08:37.933,0.22,0.22,2.28,-806.03,-639.1,321.11
2026-07-27 13:08:37.956,0.08,0.08,3.06,-503.48,-404.85,103.88
2026-07-27 13:08:37.957,0.08,0.08,3.06,266.54,222.6,-78.74
2026-07-27 13:08:38.019,-0.11,-0.0,2.21,266.54,222.6,-78.74
2026-07-27 13:08:38.020,-0.4,-0.12,0.93,766.91,588.01,-147.64
2026-07-27 13:08:38.021,-0.4,-0.12,0.93,766.91,588.01,-147.64
2026-07-27 13:08:38.136,-0.62,-0.2,-0.11,713.99,467.65,-142.09
2026-07-27 13:08:38.137,-0.62,-0.2,-0.11,713.99,467.65,-142.09
2026-07-27 13:08:38.137,-0.69,-0.12,-0.45,332.28,149.05,-59.27
2026-07-27 13:08:38.137,-0.58,0.0,-0.16,-118.53,-110.96,65.92
2026-07-27 13:08:38.138,-0.58,0.0,-0.16,-118.53,-110.96,65.92
2026-07-27 13:08:38.204,-0.42,0.19,0.37,-388.79,-245.97,161.5
2026-07-27 13:08:38.207,-0.42,0.19,0.37,-388.79,-245.97,161.5
2026-07-27 13:08:38.208,-0.34,0.4,0.82,-414.61,-283.87,174.68
2026-07-27 13:08:38.257,-0.26,0.38,1.12,-375.67,-274.9,102.91
2026-07-27 13:08:38.259,-0.26,0.38,1.12,-375.67,-274.9,102.91
2026-07-27 13:08:38.436,-0.15,0.05,1.32,-404.85,-244.69,-13.31
2026-07-27 13:08:38.439,-0.15,0.05,1.32,-404.85,-244.69,-13.31
2026-07-27 13:08:38.440,-0.02,-0.4,1.32,-423.83,-195.68,-100.5
2026-07-27 13:08:38.441,-0.02,-0.4,1.32,-367.31,-152.47,-107.6
2026-07-27 13:08:38.441,0.1,-0.73,1.08,-367.31,-152.47,-107.6
2026-07-27 13:08:38.442,0.09,-0.83,0.83,-219.91,-72.88,-40.41
2026-07-27 13:08:38.442,0.09,-0.83,0.83,-219.91,-72.88,-40.41
2026-07-27 13:08:38.444,-0.04,-0.72,0.77,-2.32,41.2,48.22
2026-07-27 13:08:38.496,-0.04,-0.72,0.77,-2.32,41.2,48.22
2026-07-27 13:08:38.497,-0.11,-0.51,0.78,207.52,84.96,99.49
2026-07-27 13:08:38.567,-0.14,-0.32,0.84,326.29,77.51,108.64
2026-07-27 13:08:38.568,-0.14,-0.32,0.84,326.29,77.51,108.64
2026-07-27 13:08:38.568,-0.2,-0.2,0.92,294.37,81.05,100.71
2026-07-27 13:08:38.690,-0.2,-0.2,0.92,294.37,81.05,100.71
2026-07-27 13:08:38.691,-0.26,-0.17,0.93,119.57,57.86,91.86
2026-07-27 13:08:38.692,-0.26,-0.17,0.93,119.57,57.86,91.86
2026-07-27 13:08:38.692,-0.3,-0.27,0.91,-116.39,-16.17,73.67
2026-07-27 13:08:38.692,-0.25,-0.42,0.89,-276.37,-92.53,31.07
2026-07-27 13:08:38.743,-0.25,-0.42,0.89,-276.37,-92.53,31.07
2026-07-27 13:08:38.743,-0.16,-0.56,0.88,-283.2,-104.37,-17.88
2026-07-27 13:08:38.743,-0.16,-0.56,0.88,-283.2,-104.37,-17.88
2026-07-27 13:08:38.796,-0.1,-0.67,0.8,-209.72,-46.75,-46.94
2026-07-27 13:08:38.797,-0.09,-0.75,0.68,-162.41,14.77,-51.94
2026-07-27 13:08:38.799,-0.09,-0.75,0.68,-162.41,14.77,-51.94
2026-07-27 13:08:38.861,-0.1,-0.8,0.61,-145.94,35.28,-39.98
2026-07-27 13:08:38.868,-0.1,-0.8,0.61,-145.94,35.28,-39.98
2026-07-27 13:08:38.916,-0.08,-0.83,0.56,-108.52,16.6,-27.34
2026-07-27 13:08:38.917,-0.08,-0.83,0.56,-108.52,16.6,-27.34
2026-07-27 13:08:38.918,-0.03,-0.84,0.52,-34.79,-15.69,-21.12
2026-07-27 13:08:38.978,0.03,-0.81,0.51,42.05,-39.67,-16.24
2026-07-27 13:08:38.978,0.03,-0.81,0.51,42.05,-39.67,-16.24
2026-07-27 13:08:39.038,0.07,-0.78,0.54,70.19,-43.82,-10.93
2026-07-27 13:08:39.039,0.07,-0.78,0.54,70.19,-43.82,-10.93
2026-07-27 13:08:39.040,0.08,-0.69,0.54,44.25,-38.09,4.64
2026-07-27 13:08:39.107,0.08,-0.69,0.54,-0.43,-51.33,24.48
2026-07-27 13:08:39.107,0.1,-0.59,0.59,-0.43,-51.33,24.48
2026-07-27 13:08:39.156,0.1,-0.55,0.69,-32.96,-69.76,25.94
2026-07-27 13:08:39.157,0.1,-0.55,0.69,-32.96,-69.76,25.94
2026-07-27 13:08:39.157,0.09,-0.5,0.73,-35.71,-61.46,18.98
2026-07-27 13:08:39.282,0.09,-0.5,0.73,-35.71,-61.46,18.98
2026-07-27 13:08:39.283,0.03,-0.52,0.86,-11.54,-35.16,17.27
2026-07-27 13:08:39.283,0.03,-0.52,0.86,25.45,-20.63,8.67
2026-07-27 13:08:39.284,0.13,-0.81,1.18,25.45,-20.63,8.67
2026-07-27 13:08:39.286,0.2,-0.95,1.04,31.8,0.24,8.42
2026-07-27 13:08:39.287,0.2,-0.95,1.04,31.8,0.24,8.42
2026-07-27 13:08:39.337,0.03,-0.77,0.56,24.17,34.48,18.8
2026-07-27 13:08:39.343,0.03,-0.77,0.56,24.17,34.48,18.8
2026-07-27 13:08:39.483,-0.07,-0.64,0.52,51.7,32.53,7.69
2026-07-27 13:08:39.484,-0.07,-0.64,0.52,63.42,3.17,-14.16
2026-07-27 13:08:39.484,-0.03,-0.61,0.73,63.42,3.17,-14.16
2026-07-27 13:08:39.485,0.06,-0.67,0.8,29.11,-9.52,-25.02
2026-07-27 13:08:39.485,0.06,-0.67,0.8,29.11,-9.52,-25.02
2026-07-27 13:08:39.517,0.12,-0.75,0.76,-0.18,-3.91,-23.38
2026-07-27 13:08:39.517,0.12,-0.75,0.76,-0.18,-3.91,-23.38
2026-07-27 13:08:39.518,0.11,-0.75,0.73,-2.69,3.54,-10.62
2026-07-27 13:08:39.578,0.11,-0.75,0.73,-2.69,3.54,-10.62
2026-07-27 13:08:39.579,0.05,-0.69,0.72,4.27,8.18,2.5
2026-07-27 13:08:39.636,0.01,-0.64,0.73,9.95,8.61,3.6
2026-07-27 13:08:39.637,0.01,-0.64,0.73,9.95,8.61,3.6
2026-07-27 13:08:39.637,0.02,-0.64,0.76,10.62,3.78,-4.46
2026-07-27 13:08:39.715,0.02,-0.64,0.76,10.62,3.78,-4.46
2026-07-27 13:08:39.715,0.07,-0.68,0.77,7.87,-1.28,-11.84
2026-07-27 13:08:39.716,0.07,-0.68,0.77,15.62,-1.28,-10.93
2026-07-27 13:08:39.758,0.11,-0.71,0.8,15.62,-1.28,-10.93
2026-07-27 13:08:39.759,0.08,-0.66,0.86,71.59,4.52,-1.16
2026-07-27 13:08:39.759,0.08,-0.66,0.86,71.59,4.52,-1.16
2026-07-27 13:08:39.877,0.02,-0.46,0.91,200.38,9.28,2.62
2026-07-27 13:08:39.878,0.02,-0.46,0.91,200.38,9.28,2.62
2026-07-27 13:08:39.879,0.01,-0.2,0.94,320.31,6.23,-7.02
2026-07-27 13:08:39.879,0.01,-0.2,0.94,320.31,6.23,-7.02
2026-07-27 13:08:39.880,0.05,0.07,0.97,394.59,-2.01,-17.64
2026-07-27 13:08:39.938,0.11,0.33,0.92,436.52,-24.54,-18.98
2026-07-27 13:08:39.939,0.11,0.33,0.92,436.52,-24.54,-18.98
2026-07-27 13:08:40.056,0.14,0.49,0.82,349.73,-50.54,-6.35
2026-07-27 13:08:40.057,0.14,0.49,0.82,349.73,-50.54,-6.35
2026-07-27 13:08:40.057,0.12,0.5,0.76,103.21,-34.18,20.63
2026-07-27 13:08:40.057,0.12,0.5,0.76,103.21,-34.18,20.63
2026-07-27 13:08:40.060,0.12,0.5,0.76,103.21,-34.18,20.63
2026-07-27 13:08:40.060,0.12,0.5,0.76,103.21,-34.18,20.63
2026-07-27 13:08:40.122,0.06,-0.13,0.85,-586.55,61.46,93.44
2026-07-27 13:08:40.122,0.05,-0.68,0.9,-688.78,93.26,95.7
2026-07-27 13:08:40.123,0.05,-0.68,0.9,-688.78,93.26,95.7
2026-07-27 13:08:40.176,-0.0,-1.03,0.77,-508.06,136.23,54.38
2026-07-27 13:08:40.177,-0.0,-1.03,0.77,-508.06,136.23,54.38
2026-07-27 13:08:40.238,-0.02,-1.05,0.59,-208.98,151.98,-0.43
2026-07-27 13:08:40.239,-0.02,-1.05,0.59,-208.98,151.98,-0.43
2026-07-27 13:08:40.240,-0.05,-0.8,0.64,130.74,109.31,3.91
2026-07-27 13:08:40.306,-0.13,-0.41,0.87,480.1,38.57,72.75
2026-07-27 13:08:40.306,-0.13,-0.41,0.87,480.1,38.57,72.75
2026-07-27 13:08:40.306,-0.24,0.06,0.93,692.75,16.11,86.73
2026-07-27 13:08:40.416,-0.24,0.06,0.93,692.75,16.11,86.73
2026-07-27 13:08:40.417,-0.37,0.46,0.67,703.25,56.15,-3.42
2026-07-27 13:08:40.417,-0.53,0.7,0.44,568.6,137.21,-112.67
2026-07-27 13:08:40.418,-0.53,0.7,0.44,568.6,137.21,-112.67
2026-07-27 13:08:40.419,-0.66,0.74,0.41,285.95,178.04,-141.91
2026-07-27 13:08:40.476,-0.66,0.74,0.41,285.95,178.04,-141.91
2026-07-27 13:08:40.477,-0.65,0.69,0.52,-97.29,108.64,-98.21
2026-07-27 13:08:40.537,-0.65,0.69,0.52,-97.29,108.64,-98.21
2026-07-27 13:08:40.538,-0.59,0.54,0.67,-392.76,5.13,-52.25
2026-07-27 13:08:40.538,-0.56,0.29,0.73,-390.32,-36.62,-6.96
2026-07-27 13:08:40.597,-0.56,0.29,0.73,-390.32,-36.62,-6.96
2026-07-27 13:08:40.598,-0.62,0.18,0.59,-41.02,19.35,15.56
2026-07-27 13:08:40.598,-0.62,0.18,0.59,-41.02,19.35,15.56
2026-07-27 13:08:40.716,-0.8,0.32,0.05,488.22,94.42,-49.07
2026-07-27 13:08:40.717,-1.05,0.36,-0.52,787.35,52.06,-130.37
2026-07-27 13:08:40.717,-1.05,0.36,-0.52,787.35,52.06,-130.37
2026-07-27 13:08:40.718,-1.07,0.27,-0.57,602.54,-64.88,-116.15
2026-07-27 13:08:40.718,-1.07,0.27,-0.57,602.54,-64.88,-116.15
2026-07-27 13:08:40.777,-0.79,0.23,-0.21,260.01,-145.14,-26.86
2026-07-27 13:08:40.778,-0.79,0.23,-0.21,260.01,-145.14,-26.86
2026-07-27 13:08:40.836,-0.44,0.23,0.23,115.84,-179.99,42.24
2026-07-27 13:08:40.837,-0.26,0.17,0.45,93.08,-155.09,57.98
2026-07-27 13:08:40.838,-0.26,0.17,0.45,93.08,-155.09,57.98
2026-07-27 13:08:40.957,-0.17,0.16,0.35,-61.1,-75.62,89.11
2026-07-27 13:08:40.958,-0.17,0.16,0.35,-61.1,-75.62,89.11
2026-07-27 13:08:40.958,0.07,0.51,0.55,-365.97,-51.88,211.67
2026-07-27 13:08:40.958,0.07,0.51,0.55,-643.01,-154.48,376.65
2026-07-27 13:08:40.959,0.49,0.78,1.84,-643.01,-154.48,376.65
2026-07-27 13:08:41.089,0.66,0.65,3.03,-638.18,-161.44,386.11
2026-07-27 13:08:41.104,0.66,0.65,3.03,-638.18,-161.44,386.11
2026-07-27 13:08:41.106,0.39,0.38,2.86,-336.55,58.65,214.48
2026-07-27 13:08:41.107,0.39,0.38,2.86,-336.55,58.65,214.48
2026-07-27 13:08:41.108,0.05,0.14,1.81,-69.95,307.86,52.37
2026-07-27 13:08:41.143,-0.21,0.16,0.58,143.8,446.23,-46.45
2026-07-27 13:08:41.144,-0.21,0.16,0.58,143.8,446.23,-46.45
2026-07-27 13:08:41.144,-0.42,0.09,-0.48,456.36,421.75,-168.52
2026-07-27 13:08:41.196,-0.42,0.09,-0.48,456.36,421.75,-168.52
2026-07-27 13:08:41.197,-0.62,-0.42,-0.93,544.92,254.7,-261.84
2026-07-27 13:08:41.317,-0.72,-1.02,-1.02,262.21,47.67,-233.89
2026-07-27 13:08:41.318,-0.72,-1.02,-1.02,262.21,47.67,-233.89
2026-07-27 13:08:41.319,-0.23,-1.47,-0.84,4.76,-158.87,-148.8
2026-07-27 13:08:41.320,-0.23,-1.47,-0.84,4.76,-158.87,-148.8
2026-07-27 13:08:41.320,0.41,-1.42,-0.41,65.06,-254.46,-43.27
2026-07-27 13:08:41.321,0.41,-1.42,-0.41,227.54,-180.18,113.28
2026-07-27 13:08:41.450,0.59,-0.78,-0.43,227.54,-180.18,113.28
2026-07-27 13:08:41.479,0.7,0.34,-0.73,221.56,-124.82,333.8
2026-07-27 13:08:41.480,0.7,0.34,-0.73,221.56,-124.82,333.8
2026-07-27 13:08:41.493,0.99,1.9,0.21,79.16,-218.57,540.41
2026-07-27 13:08:41.500,0.99,1.9,0.21,79.16,-218.57,540.41
2026-07-27 13:08:41.508,1.29,2.39,2.38,-171.87,-278.5,540.1
2026-07-27 13:08:41.518,1.28,1.39,3.59,-317.08,-118.77,302.92
2026-07-27 13:08:41.565,1.28,1.39,3.59,-317.08,-118.77,302.92
2026-07-27 13:08:41.568,0.83,0.45,3.17,-220.52,148.44,47.36
2026-07-27 13:08:41.619,0.24,0.32,2.12,-139.77,320.31,-64.76
2026-07-27 13:08:41.619,0.24,0.32,2.12,-139.77,320.31,-64.76
2026-07-27 13:08:41.620,-0.28,0.64,1.22,-194.95,369.38,-92.71
2026-07-27 13:08:41.683,-0.28,0.64,1.22,-194.95,369.38,-92.71
2026-07-27 13:08:41.683,-0.52,0.81,0.6,-250.43,304.44,-102.11
2026-07-27 13:08:41.684,-0.52,0.81,0.6,-291.32,83.68,-42.91
2026-07-27 13:08:41.737,-0.43,0.63,0.01,-291.32,83.68,-42.91
2026-07-27 13:08:41.738,-0.37,0.13,-0.6,-335.57,-146.42,68.85
2026-07-27 13:08:41.796,-0.37,0.13,-0.6,-335.57,-146.42,68.85
2026-07-27 13:08:41.797,-0.53,-0.3,-0.89,-265.87,-159.91,106.0
2026-07-27 13:08:41.797,-0.53,-0.3,-0.89,-265.87,-159.91,106.0
2026-07-27 13:08:41.918,-0.66,-0.5,-0.77,-90.27,-31.13,44.31
2026-07-27 13:08:41.920,-0.62,-0.51,-0.47,64.27,14.95,-13.06
2026-07-27 13:08:41.920,-0.62,-0.51,-0.47,64.27,14.95,-13.06
2026-07-27 13:08:41.920,-0.46,-0.28,-0.22,213.26,-20.57,-27.83
2026-07-27 13:08:41.920,-0.46,-0.28,-0.22,213.26,-20.57,-27.83
2026-07-27 13:08:41.982,-0.29,0.19,0.08,351.75,-28.56,-4.46
2026-07-27 13:08:41.983,-0.29,0.19,0.08,359.44,-56.21,89.23
2026-07-27 13:08:41.983,-0.23,0.67,0.45,359.44,-56.21,89.23
2026-07-27 13:08:42.097,-0.2,1.1,0.66,301.21,-130.68,187.74
2026-07-27 13:08:42.098,-0.2,1.1,0.66,301.21,-130.68,187.74
2026-07-27 13:08:42.099,0.08,1.56,0.92,285.34,-182.01,201.48
2026-07-27 13:08:42.100,0.08,1.56,0.92,285.34,-182.01,201.48
2026-07-27 13:08:42.100,0.64,1.55,1.64,213.2,-208.8,120.85
2026-07-27 13:08:42.164,0.94,0.96,2.38,35.83,-171.75,11.11
2026-07-27 13:08:42.182,0.94,0.96,2.38,35.83,-171.75,11.11
2026-07-27 13:08:42.218,0.84,0.41,2.37,-125.55,-52.37,-20.63
2026-07-27 13:08:42.219,0.84,0.41,2.37,-125.55,-52.37,-20.63
2026-07-27 13:08:42.222,0.47,0.13,1.94,-263.43,103.33,35.83
2026-07-27 13:08:42.336,0.02,-0.04,1.52,-467.71,253.17,132.39
2026-07-27 13:08:42.337,0.02,-0.04,1.52,-467.71,253.17,132.39
2026-07-27 13:08:42.337,-0.3,-0.16,0.99,-647.71,353.09,205.08
2026-07-27 13:08:42.338,-0.3,-0.16,0.99,-647.71,353.09,205.08
2026-07-27 13:08:42.339,-0.55,-0.15,0.38,-679.02,317.32,229.19
2026-07-27 13:08:42.398,-0.55,-0.15,0.38,-624.27,122.25,230.04
2026-07-27 13:08:42.398,-0.59,-0.14,0.09,-624.27,122.25,230.04
2026-07-27 13:08:42.467,-0.45,-0.26,0.14,-490.05,-60.91,181.95
2026-07-27 13:08:42.468,-0.45,-0.26,0.14,-490.05,-60.91,181.95
2026-07-27 13:08:42.468,-0.35,-0.13,0.22,-127.01,-105.35,76.78
2026-07-27 13:08:42.521,-0.35,-0.13,0.22,-127.01,-105.35,76.78
2026-07-27 13:08:42.521,-0.36,0.28,0.21,240.23,-80.57,20.81
2026-07-27 13:08:42.579,-0.42,0.37,0.2,240.36,-63.29,32.29
2026-07-27 13:08:42.579,-0.42,0.37,0.2,240.36,-63.29,32.29
2026-07-27 13:08:42.580,-0.45,0.12,0.3,56.27,-59.27,-24.66
2026-07-27 13:08:42.702,-0.45,0.12,0.3,56.27,-59.27,-24.66
2026-07-27 13:08:42.704,-0.35,-0.15,0.39,-34.55,-112.55,-119.08
2026-07-27 13:08:42.704,-0.12,-0.35,0.38,-95.95,-187.87,-119.81
2026-07-27 13:08:42.705,-0.12,-0.35,0.38,-95.95,-187.87,-119.81
2026-07-27 13:08:42.705,0.04,-0.74,0.31,-198.0,-162.78,-71.04
2026-07-27 13:08:42.706,0.04,-0.74,0.31,-198.0,-162.78,-71.04
2026-07-27 13:08:42.766,-0.13,-1.45,0.13,-246.03,-69.4,-69.15
2026-07-27 13:08:42.771,-0.13,-1.45,0.13,-246.03,-69.4,-69.15
2026-07-27 13:08:42.816,-0.62,-2.01,-0.09,-196.47,-52.25,-75.2
2026-07-27 13:08:42.817,-1.06,-2.24,-0.05,-117.92,-132.02,-32.8
2026-07-27 13:08:42.821,-1.06,-2.24,-0.05,-117.92,-132.02,-32.8
2026-07-27 13:08:42.878,-1.14,-2.13,0.17,-12.76,-137.27,20.26
2026-07-27 13:08:42.881,-1.14,-2.13,0.17,-12.76,-137.27,20.26
2026-07-27 13:08:42.938,-1.0,-1.73,0.37,108.34,-11.23,97.53
2026-07-27 13:08:42.938,-1.0,-1.73,0.37,252.08,119.02,185.06
2026-07-27 13:08:42.939,-0.86,-1.26,0.52,252.08,119.02,185.06
2026-07-27 13:08:43.057,-0.67,-0.8,0.59,457.09,229.98,230.04
2026-07-27 13:08:43.080,-0.67,-0.8,0.59,457.09,229.98,230.04
2026-07-27 13:08:43.080,-0.5,-0.32,0.49,626.71,272.22,213.81
2026-07-27 13:08:43.080,-0.5,-0.32,0.49,626.71,272.22,213.81
2026-07-27 13:08:43.080,-0.5,-0.32,0.49,626.71,272.22,213.81
2026-07-27 13:08:43.237,-0.5,-0.32,0.49,626.71,272.22,213.81
2026-07-27 13:08:43.238,-0.33,0.48,-0.27,829.71,-214.97,-14.53
2026-07-27 13:08:43.239,-0.38,0.38,-0.56,554.57,-276.98,-106.81
2026-07-27 13:08:43.240,-0.38,0.38,-0.56,554.57,-276.98,-106.81
2026-07-27 13:08:43.240,-0.49,0.06,-0.55,169.13,-94.06,-56.15
2026-07-27 13:08:43.242,-0.49,0.06,-0.55,169.13,-94.06,-56.15
2026-07-27 13:08:43.243,-0.49,-0.05,-0.44,18.98,9.64,27.34
2026-07-27 13:08:43.243,-0.49,-0.05,-0.44,18.98,9.64,27.34
2026-07-27 13:08:43.310,-0.49,-0.05,-0.44,18.98,9.64,27.34
2026-07-27 13:08:43.315,-0.49,-0.05,-0.44,18.98,9.64,27.34
2026-07-27 13:08:43.317,-0.41,0.3,-0.12,45.1,-173.83,28.14
2026-07-27 13:08:43.368,-0.32,0.54,-0.02,79.59,-274.54,34.36
2026-07-27 13:08:43.369,-0.32,0.54,-0.02,79.59,-274.54,34.36
2026-07-27 13:08:43.369,-0.11,0.87,0.06,165.41,-291.99,91.74
2026-07-27 13:08:43.418,-0.11,0.87,0.06,165.41,-291.99,91.74
2026-07-27 13:08:43.536,0.13,1.29,0.22,241.7,-257.57,117.49
2026-07-27 13:08:43.537,0.13,1.29,0.22,241.7,-257.57,117.49
2026-07-27 13:08:43.538,0.37,1.77,0.58,254.15,-207.64,103.45
2026-07-27 13:08:43.538,0.45,2.13,1.0,182.98,-135.56,70.62
2026-07-27 13:08:43.539,0.45,2.13,1.0,182.98,-135.56,70.62
2026-07-27 13:08:43.539,0.31,2.1,1.17,50.17,-17.94,40.71
2026-07-27 13:08:43.540,0.31,2.1,1.17,50.17,-17.94,40.71
2026-07-27 13:08:43.598,0.07,1.62,1.06,-123.41,140.44,25.33
2026-07-27 13:08:43.606,-0.14,1.11,0.97,-313.72,286.5,20.2
2026-07-27 13:08:43.656,-0.14,1.11,0.97,-313.72,286.5,20.2
2026-07-27 13:08:43.656,-0.33,0.88,0.89,-469.12,429.38,41.69
2026-07-27 13:08:43.720,-0.33,0.88,0.89,-469.12,429.38,41.69
2026-07-27 13:08:43.720,-0.47,0.56,0.71,-605.41,583.56,81.12
2026-07-27 13:08:43.721,-0.58,0.05,0.51,-669.68,639.89,93.87
2026-07-27 13:08:43.777,-0.58,0.05,0.51,-669.68,639.89,93.87
2026-07-27 13:08:43.777,-0.53,-0.05,0.35,-465.88,468.44,71.04
2026-07-27 13:08:43.778,-0.53,-0.05,0.35,-465.88,468.44,71.04
2026-07-27 13:08:43.836,-0.36,0.27,0.19,-115.23,155.64,44.62
2026-07-27 13:08:43.836,-0.34,0.39,0.03,82.4,-56.03,-1.1
2026-07-27 13:08:43.908,-0.34,0.39,0.03,82.4,-56.03,-1.1
2026-07-27 13:08:43.911,-0.44,0.24,-0.1,168.15,-135.07,-94.97
2026-07-27 13:08:43.912,-0.44,0.24,-0.1,168.15,-135.07,-94.97
2026-07-27 13:08:43.960,-0.52,0.08,-0.19,289.86,-203.67,-175.48
2026-07-27 13:08:43.961,-0.52,0.08,-0.19,377.14,-259.46,-181.82
2026-07-27 13:08:44.017,-0.46,0.17,-0.07,377.14,-259.46,-181.82
2026-07-27 13:08:44.018,-0.29,0.52,0.26,336.73,-256.65,-120.85
2026-07-27 13:08:44.018,-0.29,0.52,0.26,336.73,-256.65,-120.85
2026-07-27 13:08:44.080,-0.29,0.79,0.63,231.45,-215.09,-62.44
2026-07-27 13:08:44.084,-0.29,0.79,0.63,231.45,-215.09,-62.44
2026-07-27 13:08:44.147,-0.32,0.74,1.01,162.41,-181.52,-70.01
2026-07-27 13:08:44.151,-0.18,0.4,1.42,99.55,-161.01,-99.37
2026-07-27 13:08:44.151,-0.18,0.4,1.42,99.55,-161.01,-99.37
2026-07-27 13:08:44.256,-0.25,-0.25,1.7,-141.6,-70.13,-35.71
2026-07-27 13:08:44.257,-0.25,-0.25,1.7,-141.6,-70.13,-35.71
2026-07-27 13:08:44.258,-0.52,-1.36,1.57,-586.06,0.37,107.06
2026-07-27 13:08:44.258,-0.52,-1.36,1.57,-770.2,-46.57,167.11
2026-07-27 13:08:44.259,-0.54,-2.12,1.21,-770.2,-46.57,167.11
2026-07-27 13:08:44.317,-0.35,-1.95,0.85,-530.7,-76.78,140.32
2026-07-27 13:08:44.317,-0.35,-1.95,0.85,-530.7,-76.78,140.32
2026-07-27 13:08:44.324,-0.32,-1.43,0.3,-368.16,-75.68,166.5
2026-07-27 13:08:44.376,-0.32,-1.43,0.3,-368.16,-75.68,166.5
2026-07-27 13:08:44.377,-0.38,-0.91,-0.11,-462.71,-165.28,251.9
2026-07-27 13:08:44.447,-0.17,-0.67,0.1,-476.32,-280.27,306.03
2026-07-27 13:08:44.451,-0.17,-0.67,0.1,-476.32,-280.27,306.03
2026-07-27 13:08:44.452,0.07,-0.58,0.66,-284.12,-258.0,304.75
2026-07-27 13:08:44.497,0.07,-0.58,0.66,-284.12,-258.0,304.75
2026-07-27 13:08:44.497,0.06,-0.28,0.96,-69.21,-120.61,240.72
2026-07-27 13:08:44.557,-0.17,0.26,0.81,121.46,20.02,127.62
2026-07-27 13:08:44.557,-0.17,0.26,0.81,121.46,20.02,127.62
2026-07-27 13:08:44.558,-0.39,0.58,0.58,212.59,64.03,3.36
2026-07-27 13:08:44.616,-0.39,0.58,0.58,212.59,64.03,3.36
2026-07-27 13:08:44.617,-0.41,0.37,0.45,163.33,28.08,-111.57
2026-07-27 13:08:44.618,-0.41,0.37,0.45,163.33,28.08,-111.57
2026-07-27 13:08:44.737,-0.35,-0.05,0.52,103.45,13.92,-178.1
2026-07-27 13:08:44.738,-0.29,-0.46,0.7,91.19,47.85,-178.71
2026-07-27 13:08:44.738,-0.29,-0.46,0.7,91.19,47.85,-178.71
2026-07-27 13:08:44.739,-0.32,-0.77,0.64,105.83,113.59,-158.75
2026-07-27 13:08:44.739,-0.32,-0.77,0.64,105.83,113.59,-158.75
2026-07-27 13:08:44.798,-0.43,-0.98,0.45,151.55,146.67,-169.13
2026-07-27 13:08:44.799,-0.45,-1.21,0.37,207.03,107.85,-199.04
2026-07-27 13:08:44.865,-0.45,-1.21,0.37,207.03,107.85,-199.04
2026-07-27 13:08:44.865,-0.45,-1.62,0.24,210.39,54.69,-208.98
2026-07-27 13:08:44.866,-0.45,-1.62,0.24,210.39,54.69,-208.98
2026-07-27 13:08:44.917,-0.54,-2.04,-0.02,153.69,42.91,-166.93
2026-07-27 13:08:44.917,-0.54,-2.04,-0.02,62.26,52.86,-81.54
2026-07-27 13:08:44.978,-0.61,-2.21,-0.19,62.26,52.86,-81.54
2026-07-27 13:08:44.979,-0.66,-1.96,-0.09,29.72,73.36,30.52
2026-07-27 13:08:44.980,-0.66,-1.96,-0.09,29.72,73.36,30.52
2026-07-27 13:08:45.037,-0.74,-1.36,0.42,199.04,118.9,191.71
2026-07-27 13:08:45.037,-0.74,-1.36,0.42,199.04,118.9,191.71
2026-07-27 13:08:45.038,-0.85,-0.54,0.96,397.28,123.23,260.19
2026-07-27 13:08:45.098,-0.75,0.24,1.0,403.26,48.34,149.48
2026-07-27 13:08:45.101,-0.75,0.24,1.0,403.26,48.34,149.48
2026-07-27 13:08:45.158,-0.46,0.66,0.63,294.01,9.46,27.1
2026-07-27 13:08:45.161,-0.46,0.66,0.63,294.01,9.46,27.1
2026-07-27 13:08:45.161,-0.34,0.65,0.19,100.65,62.93,-24.29
2026-07-27 13:08:45.217,-0.34,0.65,0.19,100.65,62.93,-24.29
2026-07-27 13:08:45.218,-0.38,0.43,-0.11,-98.75,120.12,-40.41
2026-07-27 13:08:45.281,-0.48,0.23,-0.22,-165.1,107.3,-52.55
2026-07-27 13:08:45.283,-0.48,0.23,-0.22,-165.1,107.3,-52.55
2026-07-27 13:08:45.284,-0.58,0.07,-0.21,-122.8,50.96,-83.31
2026-07-27 13:08:45.342,-0.58,0.07,-0.21,-122.8,50.96,-83.31
2026-07-27 13:08:45.342,-0.67,-0.1,-0.07,-63.66,16.24,-156.92
2026-07-27 13:08:45.402,-0.71,-0.23,0.24,-10.25,7.87,-289.98
2026-07-27 13:08:45.403,-0.71,-0.23,0.24,-10.25,7.87,-289.98
2026-07-27 13:08:45.403,-0.69,-0.3,0.6,49.87,-18.74,-362.24
2026-07-27 13:08:45.456,-0.69,-0.3,0.6,49.87,-18.74,-362.24
2026-07-27 13:08:45.457,-0.62,-0.42,0.84,122.01,-49.93,-258.24
2026-07-27 13:08:45.457,-0.62,-0.42,0.84,122.01,-49.93,-258.24
2026-07-27 13:08:45.516,-0.44,-0.62,1.04,231.57,-17.4,-106.63
2026-07-27 13:08:45.517,-0.26,-0.68,1.19,388.61,78.98,-28.56
2026-07-27 13:08:45.637,-0.26,-0.68,1.19,388.61,78.98,-28.56
2026-07-27 13:08:45.638,-0.24,-0.29,1.2,602.48,211.67,11.47
2026-07-27 13:08:45.639,-0.37,0.48,1.0,818.36,275.51,127.5
2026-07-27 13:08:45.644,-0.37,0.48,1.0,818.36,275.51,127.5
2026-07-27 13:08:45.647,-0.52,1.21,0.55,881.53,175.48,247.44
2026-07-27 13:08:45.699,-0.52,1.21,0.55,881.53,175.48,247.44
2026-07-27 13:08:45.700,-0.61,1.47,0.04,704.1,33.08,169.31
2026-07-27 13:08:45.700,-0.61,1.47,0.04,704.1,33.08,169.31
2026-07-27 13:08:45.816,-0.66,1.3,-0.23,341.43,-26.61,-7.26
2026-07-27 13:08:45.817,-0.74,1.07,-0.33,-19.23,-17.4,-91.31
2026-07-27 13:08:45.817,-0.74,1.07,-0.33,-19.23,-17.4,-91.31
2026-07-27 13:08:45.818,-0.92,0.93,-0.33,-277.4,2.69,-94.73
2026-07-27 13:08:45.818,-0.92,0.93,-0.33,-277.4,2.69,-94.73
2026-07-27 13:08:45.876,-1.0,0.79,-0.28,-564.88,-30.7,-111.15
2026-07-27 13:08:45.877,-1.0,0.79,-0.28,-564.88,-30.7,-111.15
2026-07-27 13:08:45.877,-0.78,0.39,-0.02,-974.61,-89.66,-159.73
2026-07-27 13:08:45.936,-0.5,-0.11,0.18,-1174.32,-130.31,-224.0
2026-07-27 13:08:45.937,-0.5,-0.11,0.18,-1174.32,-130.31,-224.0
2026-07-27 13:08:46.056,-0.37,-0.39,0.1,-967.65,-147.71,-261.7
2026-07-27 13:08:46.057,-0.37,-0.39,0.1,-967.65,-147.71,-261.7
2026-07-27 13:08:46.058,-0.42,-0.5,0.08,-524.23,-115.48,-175.8
2026-07-27 13:08:46.058,-0.52,-0.55,0.14,-40.47,-71.9,-30.46
2026-07-27 13:08:46.059,-0.52,-0.55,0.14,-40.47,-71.9,-30.46
2026-07-27 13:08:46.116,-0.58,-0.64,0.34,278.99,-34.3,67.02
2026-07-27 13:08:46.117,-0.58,-0.64,0.34,278.99,-34.3,67.02
2026-07-27 13:08:46.118,-0.63,-0.56,0.54,468.2,43.21,98.51
2026-07-27 13:08:46.192,-0.63,-0.56,0.54,587.83,149.54,77.21
2026-07-27 13:08:46.238,-0.71,-0.22,0.63,587.83,149.54,77.21
2026-07-27 13:08:46.239,-0.74,0.02,0.76,518.25,186.65,23.99
2026-07-27 13:08:46.239,-0.74,0.02,0.76,518.25,186.65,23.99
2026-07-27 13:08:46.240,-0.65,0.02,1.0,317.02,127.01,-18.43
2026-07-27 13:08:46.297,-0.65,0.02,1.0,317.02,127.01,-18.43
2026-07-27 13:08:46.298,-0.58,0.06,1.21,219.6,69.34,0.43
2026-07-27 13:08:46.299,-0.59,0.19,1.32,137.88,31.31,75.01
2026-07-27 13:08:46.356,-0.59,0.19,1.32,137.88,31.31,75.01
2026-07-27 13:08:46.357,-0.63,0.12,1.34,-147.58,-23.86,179.02
2026-07-27 13:08:46.416,-0.63,0.12,1.34,-147.58,-23.86,179.02
2026-07-27 13:08:46.416,-0.69,-0.06,1.16,-528.69,-65.67,227.54
2026-07-27 13:08:46.417,-0.8,-0.21,0.91,-730.35,-17.09,142.58
2026-07-27 13:08:46.537,-0.8,-0.21,0.91,-730.35,-17.09,142.58
2026-07-27 13:08:46.537,-0.82,-0.42,0.6,-682.07,107.73,-47.97
2026-07-27 13:08:46.538,-0.82,-0.42,0.6,-682.07,107.73,-47.97
2026-07-27 13:08:46.538,-0.69,-0.53,0.16,-482.48,185.73,-201.17
2026-07-27 13:08:46.538,-0.69,-0.53,0.16,-482.48,185.73,-201.17
2026-07-27 13:08:46.597,-0.56,-0.47,-0.15,-235.6,159.36,-203.8
2026-07-27 13:08:46.598,-0.49,-0.45,-0.26,-26.67,79.28,-106.57
2026-07-27 13:08:46.598,-0.49,-0.45,-0.26,-26.67,79.28,-106.57
2026-07-27 13:08:46.656,-0.48,-0.53,-0.23,188.84,54.44,25.02
2026-07-27 13:08:46.657,-0.48,-0.53,-0.23,188.84,54.44,25.02
2026-07-27 13:08:46.716,-0.56,-0.44,-0.03,532.04,126.77,117.68
2026-07-27 13:08:46.716,-0.65,-0.18,0.22,868.16,127.99,86.61
2026-07-27 13:08:46.717,-0.65,-0.18,0.22,868.16,127.99,86.61
2026-07-27 13:08:46.776,-0.69,-0.02,0.43,878.36,16.78,-34.42
2026-07-27 13:08:46.777,-0.69,-0.02,0.43,878.36,16.78,-34.42
2026-07-27 13:08:46.837,-0.76,0.1,0.56,610.05,-37.05,-130.8
2026-07-27 13:08:46.838,-0.76,0.1,0.56,293.58,-22.83,-117.31
2026-07-27 13:08:46.838,-0.79,0.23,0.64,293.58,-22.83,-117.31
2026-07-27 13:08:46.896,-0.69,0.37,0.86,-42.66,-10.07,10.19
2026-07-27 13:08:46.897,-0.69,0.37,0.86,-42.66,-10.07,10.19
2026-07-27 13:08:46.956,-0.56,0.2,1.25,-394.04,28.32,193.18
2026-07-27 13:08:46.957,-0.56,0.2,1.25,-394.04,28.32,193.18
2026-07-27 13:08:46.957,-0.5,-0.39,1.36,-667.66,75.32,305.11
2026-07-27 13:08:47.017,-0.47,-0.98,0.7,-835.69,14.83,296.39
2026-07-27 13:08:47.017,-0.47,-0.98,0.7,-835.69,14.83,296.39
2026-07-27 13:08:47.018,-0.52,-1.18,0.02,-869.02,-115.78,281.92
2026-07-27 13:08:47.077,-0.52,-1.18,0.02,-869.02,-115.78,281.92
2026-07-27 13:08:47.077,-0.75,-1.02,0.05,-687.87,-135.93,241.58
2026-07-27 13:08:47.146,-1.0,-0.83,0.4,-380.74,-63.29,135.8
2026-07-27 13:08:47.147,-1.0,-0.83,0.4,-380.74,-63.29,135.8
2026-07-27 13:08:47.148,-1.02,-0.6,0.59,-33.63,-29.6,38.33
2026-07-27 13:08:47.196,-1.02,-0.6,0.59,-33.63,-29.6,38.33
2026-07-27 13:08:47.197,-0.78,-0.29,0.41,346.37,-55.54,-22.4
2026-07-27 13:08:47.256,-0.78,-0.29,0.41,760.62,-110.78,-60.61
2026-07-27 13:08:47.257,-0.61,0.16,0.11,760.62,-110.78,-60.61
2026-07-27 13:08:47.257,-0.62,0.42,-0.03,910.52,-152.16,-89.66
2026-07-27 13:08:47.316,-0.62,0.42,-0.03,910.52,-152.16,-89.66
2026-07-27 13:08:47.317,-0.67,0.4,0.05,577.7,-129.88,-83.5
2026-07-27 13:08:47.317,-0.67,0.4,0.05,577.7,-129.88,-83.5
2026-07-27 13:08:47.395,-0.65,0.27,0.3,130.43,-91.25,-71.9
2026-07-27 13:08:47.399,-0.61,0.1,0.56,-117.43,-67.81,-85.63
2026-07-27 13:08:47.496,-0.61,0.1,0.56,-117.43,-67.81,-85.63
2026-07-27 13:08:47.497,-0.6,0.11,0.67,-163.09,0.67,-109.74
2026-07-27 13:08:47.498,-0.6,0.11,0.67,-163.09,0.67,-109.74
2026-07-27 13:08:47.499,-0.6,-0.02,0.81,-150.82,73.18,-155.82
2026-07-27 13:08:47.499,-0.6,-0.02,0.81,-191.28,75.56,-197.33
2026-07-27 13:08:47.616,-0.65,-0.51,1.0,-191.28,75.56,-197.33
2026-07-27 13:08:47.616,-0.63,-1.01,0.98,-245.48,-23.99,-138.79
2026-07-27 13:08:47.617,-0.63,-1.01,0.98,-245.48,-23.99,-138.79
2026-07-27 13:08:47.617,-0.53,-1.1,0.88,-184.14,-120.3,-18.74
2026-07-27 13:08:47.618,-0.48,-0.89,0.92,-49.74,-115.97,39.12
2026-07-27 13:08:47.685,-0.48,-0.89,0.92,-49.74,-115.97,39.12
2026-07-27 13:08:47.686,-0.44,-0.75,0.88,4.46,-65.37,41.93
2026-07-27 13:08:47.690,-0.44,-0.75,0.88,4.46,-65.37,41.93
2026-07-27 13:08:47.736,-0.48,-0.64,0.79,33.94,6.47,33.94
2026-07-27 13:08:47.737,-0.48,-0.64,0.79,33.94,6.47,33.94
2026-07-27 13:08:47.797,-0.63,-0.55,0.8,101.26,93.08,15.32
2026-07-27 13:08:47.798,-0.72,-0.47,0.85,166.56,108.46,24.05
2026-07-27 13:08:47.798,-0.72,-0.47,0.85,166.56,108.46,24.05
2026-07-27 13:08:47.857,-0.7,-0.21,0.84,255.25,47.49,83.74
2026-07-27 13:08:47.858,-0.7,-0.21,0.84,255.25,47.49,83.74
2026-07-27 13:08:47.859,-0.66,0.12,0.67,317.69,13.31,123.78
2026-07-27 13:08:47.916,-0.66,0.12,0.67,317.69,13.31,123.78
2026-07-27 13:08:47.917,-0.68,0.33,0.39,307.8,32.23,110.35
2026-07-27 13:08:47.978,-0.7,0.35,0.07,321.78,55.66,74.77
2026-07-27 13:08:47.979,-0.7,0.35,0.07,321.78,55.66,74.77
2026-07-27 13:08:47.980,-0.67,0.18,-0.16,266.54,47.49,26.12
2026-07-27 13:08:48.097,-0.67,0.18,-0.16,266.54,47.49,26.12
2026-07-27 13:08:48.098,-0.6,-0.0,-0.26,10.25,16.85,-23.62
2026-07-27 13:08:48.099,-0.55,-0.01,-0.16,-352.91,-6.71,-56.03
2026-07-27 13:08:48.099,-0.55,-0.01,-0.16,-352.91,-6.71,-56.03
2026-07-27 13:08:48.101,-0.64,0.06,0.21,-589.66,-2.99,-71.11
2026-07-27 13:08:48.156,-0.64,0.06,0.21,-589.66,-2.99,-71.11
2026-07-27 13:08:48.157,-0.78,0.07,0.55,-474.24,-5.49,-74.34
2026-07-27 13:08:48.159,-0.78,0.07,0.55,-474.24,-5.49,-74.34
2026-07-27 13:08:48.216,-0.77,0.07,0.71,-138.73,-38.7,-75.56
2026-07-27 13:08:48.217,-0.66,-0.06,0.98,88.68,-80.93,-92.53
2026-07-27 13:08:48.276,-0.66,-0.06,0.98,88.68,-80.93,-92.53
2026-07-27 13:08:48.277,-0.57,-0.29,1.37,156.92,-92.53,-129.33
2026-07-27 13:08:48.277,-0.57,-0.29,1.37,156.92,-92.53,-129.33
2026-07-27 13:08:48.337,-0.61,-0.44,1.71,228.09,-13.85,-95.4
2026-07-27 13:08:48.339,-0.61,-0.44,1.71,386.6,44.8,33.14
2026-07-27 13:08:48.407,-0.58,-0.36,1.75,386.6,44.8,33.14
2026-07-27 13:08:48.407,-0.45,0.09,1.38,580.51,-11.17,109.07
2026-07-27 13:08:48.408,-0.45,0.09,1.38,580.51,-11.17,109.07
2026-07-27 13:08:48.456,-0.44,0.67,0.94,609.74,-26.12,51.94
2026-07-27 13:08:48.457,-0.44,0.67,0.94,609.74,-26.12,51.94
2026-07-27 13:08:48.457,-0.54,0.99,0.56,340.52,36.38,-35.46
2026-07-27 13:08:48.517,-0.61,0.93,0.29,-45.65,73.24,-56.76
2026-07-27 13:08:48.547,-0.61,0.93,0.29,-45.65,73.24,-56.76
2026-07-27 13:08:48.697,-0.63,0.66,0.16,-364.32,81.12,-47.61
2026-07-27 13:08:48.698,-0.63,0.66,0.16,-364.32,81.12,-47.61
2026-07-27 13:08:48.698,-0.62,0.34,0.1,-584.59,68.6,-44.19
2026-07-27 13:08:48.699,-0.62,0.34,0.1,-584.59,68.6,-44.19
2026-07-27 13:08:48.700,-0.6,0.1,0.08,-667.48,11.54,-39.31
2026-07-27 13:08:48.700,-0.59,-0.03,0.05,-583.56,-68.05,-26.98
2026-07-27 13:08:48.700,-0.59,-0.03,0.05,-583.56,-68.05,-26.98
2026-07-27 13:08:48.701,-0.57,-0.05,0.07,-373.96,-149.35,-23.38
2026-07-27 13:08:48.756,-0.57,-0.05,0.07,-373.96,-149.35,-23.38
2026-07-27 13:08:48.757,-0.58,0.0,0.27,-105.1,-196.23,-52.12
2026-07-27 13:08:48.821,-0.6,0.09,0.59,142.52,-159.36,-91.98
2026-07-27 13:08:48.825,-0.6,0.09,0.59,142.52,-159.36,-91.98
2026-07-27 13:08:48.828,-0.5,0.15,0.88,271.48,-90.33,-111.02
2026-07-27 13:08:48.881,-0.5,0.15,0.88,271.48,-90.33,-111.02
2026-07-27 13:08:48.881,-0.28,0.15,1.09,278.26,-57.98,-112.43
2026-07-27 13:08:48.883,-0.28,0.15,1.09,278.26,-57.98,-112.43
2026-07-27 13:08:48.936,-0.03,0.1,1.3,243.16,-60.91,-103.52
2026-07-27 13:08:48.936,0.22,0.03,1.54,215.33,-66.89,-87.04
2026-07-27 13:08:48.996,0.22,0.03,1.54,215.33,-66.89,-87.04
2026-07-27 13:08:48.998,0.4,0.06,1.75,213.93,-52.49,-42.79
2026-07-27 13:08:48.998,0.4,0.06,1.75,213.93,-52.49,-42.79
2026-07-27 13:08:49.179,0.45,0.23,1.87,179.32,-25.57,45.96
2026-07-27 13:08:49.180,0.41,0.46,1.83,108.83,13.31,100.28
2026-07-27 13:08:49.180,0.41,0.46,1.83,108.83,13.31,100.28
2026-07-27 13:08:49.181,0.23,0.7,1.55,50.72,69.7,75.44
2026-07-27 13:08:49.181,0.23,0.7,1.55,50.72,69.7,75.44
2026-07-27 13:08:49.182,-0.01,0.76,1.2,-81.05,115.66,50.23
2026-07-27 13:08:49.182,-0.01,0.76,1.2,-81.05,115.66,50.23
2026-07-27 13:08:49.182,-0.2,0.58,0.89,-264.83,127.32,61.95
2026-07-27 13:08:49.237,-0.36,0.36,0.58,-349.3,120.24,75.32
2026-07-27 13:08:49.238,-0.36,0.36,0.58,-349.3,120.24,75.32
2026-07-27 13:08:49.296,-0.51,0.21,0.26,-304.5,114.81,64.09
2026-07-27 13:08:49.297,-0.51,0.21,0.26,-304.5,114.81,64.09
2026-07-27 13:08:49.297,-0.64,0.1,-0.01,-219.42,103.03,29.48
2026-07-27 13:08:49.362,-0.66,-0.01,-0.17,-151.61,67.5,-12.15
2026-07-27 13:08:49.362,-0.66,-0.01,-0.17,-151.61,67.5,-12.15
2026-07-27 13:08:49.416,-0.6,-0.15,-0.19,-76.42,10.68,-46.51
2026-07-27 13:08:49.417,-0.6,-0.15,-0.19,-76.42,10.68,-46.51
2026-07-27 13:08:49.418,-0.49,-0.16,-0.02,30.94,-52.43,-68.66
2026-07-27 13:08:49.485,-0.49,-0.16,-0.02,30.94,-52.43,-68.66
2026-07-27 13:08:49.485,-0.37,0.03,0.24,168.15,-110.17,-81.79
2026-07-27 13:08:49.486,-0.27,0.32,0.36,341.8,-163.64,-86.55
2026-07-27 13:08:49.536,-0.27,0.32,0.36,341.8,-163.64,-86.55
2026-07-27 13:08:49.537,-0.01,0.76,0.29,539.67,-246.4,-62.13
2026-07-27 13:08:49.603,-0.01,0.76,0.29,539.67,-246.4,-62.13
2026-07-27 13:08:49.617,0.57,1.37,0.32,659.48,-347.84,2.2
2026-07-27 13:08:49.659,1.06,1.8,0.36,570.19,-351.2,49.62
2026-07-27 13:08:49.659,1.06,1.8,0.36,570.19,-351.2,49.62
2026-07-27 13:08:49.660,1.42,1.8,0.44,312.81,-234.68,33.33
2026-07-27 13:08:49.717,1.42,1.8,0.44,312.81,-234.68,33.33
2026-07-27 13:08:49.717,1.74,1.49,0.78,46.45,-96.31,15.81
2026-07-27 13:08:49.718,1.55,1.11,0.94,-143.01,41.75,5.62
2026-07-27 13:08:49.776,1.55,1.11,0.94,-143.01,41.75,5.62
2026-07-27 13:08:49.777,1.0,0.97,0.92,-260.07,176.39,-18.49
2026-07-27 13:08:49.777,1.0,0.97,0.92,-260.07,176.39,-18.49
2026-07-27 13:08:49.896,0.56,1.05,0.96,-332.15,253.36,11.05
2026-07-27 13:08:49.897,0.56,1.05,0.96,-370.67,259.4,86.85
2026-07-27 13:08:49.898,0.3,1.0,0.95,-370.67,259.4,86.85
2026-07-27 13:08:49.898,0.08,0.73,0.82,-404.6,242.98,137.33
2026-07-27 13:08:49.899,0.08,0.73,0.82,-404.6,242.98,137.33
2026-07-27 13:08:49.956,-0.14,0.42,0.6,-421.69,223.33,142.94
2026-07-27 13:08:49.957,-0.14,0.42,0.6,-421.69,223.33,142.94
2026-07-27 13:08:50.016,-0.35,0.19,0.33,-358.89,186.83,116.03
2026-07-27 13:08:50.017,-0.55,0.05,0.03,-204.53,133.06,69.34
2026-07-27 13:08:50.018,-0.55,0.05,0.03,-204.53,133.06,69.34
2026-07-27 13:08:50.076,-0.65,-0.09,-0.19,-23.01,68.85,16.72
2026-07-27 13:08:50.077,-0.65,-0.09,-0.19,-23.01,68.85,16.72
2026-07-27 13:08:50.159,-0.62,-0.18,-0.19,114.93,1.65,-27.65
2026-07-27 13:08:50.159,-0.46,-0.05,0.07,206.24,-72.08,-55.66
2026-07-27 13:08:50.160,-0.46,-0.05,0.07,206.24,-72.08,-55.66
2026-07-27 13:08:50.204,-0.29,0.28,0.42,279.54,-112.61,-74.22
2026-07-27 13:08:50.205,-0.29,0.28,0.42,279.54,-112.61,-74.22
2026-07-27 13:08:50.257,-0.19,0.55,0.54,307.43,-94.24,-83.74
2026-07-27 13:08:50.259,-0.19,0.55,0.54,307.43,-94.24,-83.74
2026-07-27 13:08:50.259,-0.16,0.81,0.55,311.04,-80.14,-81.73
2026-07-27 13:08:50.377,-0.03,1.13,0.7,310.3,-96.62,-74.83
2026-07-27 13:08:50.377,-0.03,1.13,0.7,310.3,-96.62,-74.83
2026-07-27 13:08:50.378,0.38,1.3,1.25,208.68,-108.76,-56.15
2026-07-27 13:08:50.378,0.38,1.3,1.25,208.68,-108.76,-56.15
2026-07-27 13:08:50.379,0.87,1.02,2.15,-27.04,-107.06,-17.52
2026-07-27 13:08:50.448,0.87,1.02,2.15,-315.92,-66.22,30.03
2026-07-27 13:08:50.450,1.0,0.21,2.51,-315.92,-66.22,30.03
2026-07-27 13:08:50.463,0.65,-0.49,2.01,-477.6,32.04,70.86
2026-07-27 13:08:50.504,0.65,-0.49,2.01,-477.6,32.04,70.86
2026-07-27 13:08:50.505,0.19,-0.67,1.4,-504.94,128.54,117.8
2026-07-27 13:08:50.506,0.19,-0.67,1.4,-504.94,128.54,117.8
2026-07-27 13:08:50.558,-0.15,-0.52,1.1,-468.2,169.25,172.42
2026-07-27 13:08:50.559,-0.22,-0.29,0.93,-280.21,173.1,182.62
2026-07-27 13:08:50.676,-0.22,-0.29,0.93,-280.21,173.1,182.62
2026-07-27 13:08:50.677,-0.36,-0.04,0.49,75.13,168.21,101.62
2026-07-27 13:08:50.678,-0.36,-0.04,0.49,75.13,168.21,101.62
2026-07-27 13:08:50.678,-0.59,0.09,-0.07,302.31,139.59,9.95
2026-07-27 13:08:50.678,-0.57,-0.0,-0.24,221.98,79.28,-9.89
2026-07-27 13:08:50.736,-0.57,-0.0,-0.24,221.98,79.28,-9.89
2026-07-27 13:08:50.796,-0.47,-0.14,-0.23,86.61,9.03,-2.26
2026-07-27 13:08:50.796,-0.47,-0.14,-0.23,86.61,9.03,-2.26
2026-07-27 13:08:50.797,-0.4,-0.18,-0.12,57.5,-51.64,-2.69
2026-07-27 13:08:50.797,-0.4,-0.18,-0.12,57.5,-51.64,-2.69
2026-07-27 13:08:50.916,-0.34,-0.0,0.11,109.8,-103.58,0.18
2026-07-27 13:08:50.917,-0.26,0.22,0.4,160.46,-147.95,2.81
2026-07-27 13:08:50.917,-0.26,0.22,0.4,160.46,-147.95,2.81
2026-07-27 13:08:50.918,-0.17,0.29,0.72,165.16,-154.66,-8.06
2026-07-27 13:08:50.918,-0.17,0.29,0.72,165.16,-154.66,-8.06
2026-07-27 13:08:50.918,-0.15,0.52,1.06,177.25,-101.5,14.77
2026-07-27 13:08:50.976,-0.15,0.52,1.06,177.25,-101.5,14.77
2026-07-27 13:08:50.977,-0.27,1.06,1.7,201.9,-54.69,94.42
2026-07-27 13:08:51.216,-0.26,1.23,2.4,155.52,-61.28,106.14
2026-07-27 13:08:51.217,-0.26,1.23,2.4,155.52,-61.28,106.14
2026-07-27 13:08:51.217,-0.0,0.73,2.42,41.93,-49.5,-25.51
2026-07-27 13:08:51.217,-0.0,0.73,2.42,41.93,-49.5,-25.51
2026-07-27 13:08:51.218,0.17,0.15,1.75,-53.41,13.85,-158.08
2026-07-27 13:08:51.218,0.17,0.15,1.75,-53.41,13.85,-158.08
2026-07-27 13:08:51.218,0.09,-0.06,1.12,-106.02,57.5,-159.55
2026-07-27 13:08:51.219,-0.09,0.1,0.93,-143.86,42.42,-64.82
2026-07-27 13:08:51.219,-0.09,0.1,0.93,-143.86,42.42,-64.82
2026-07-27 13:08:51.220,-0.25,0.32,0.91,-173.46,15.26,23.68
2026-07-27 13:08:51.220,-0.25,0.32,0.91,-173.46,15.26,23.68
2026-07-27 13:08:51.280,-0.33,0.36,0.78,-169.62,20.14,46.14
2026-07-27 13:08:51.301,-0.36,0.22,0.53,-128.23,44.37,15.56
2026-07-27 13:08:51.348,-0.36,0.22,0.53,-128.23,44.37,15.56
2026-07-27 13:08:51.395,-0.36,-0.0,0.27,-70.68,57.07,-23.07
2026-07-27 13:08:51.395,-0.36,-0.0,0.27,-70.68,57.07,-23.07
2026-07-27 13:08:51.396,-0.35,-0.18,0.12,0.67,42.66,-44.49
2026-07-27 13:08:51.397,-0.35,-0.18,0.12,0.67,42.66,-44.49
2026-07-27 13:08:51.397,-0.32,-0.28,0.09,91.8,10.44,-45.47
2026-07-27 13:08:51.456,-0.29,-0.22,0.17,189.21,-17.4,-22.16
2026-07-27 13:08:51.457,-0.29,-0.22,0.17,189.21,-17.4,-22.16
2026-07-27 13:08:51.516,-0.27,0.08,0.33,260.8,-34.85,29.11
2026-07-27 13:08:51.517,-0.27,0.08,0.33,260.8,-34.85,29.11
2026-07-27 13:08:51.517,-0.23,0.34,0.36,274.11,-45.96,86.43
2026-07-27 13:08:51.585,-0.23,0.34,0.36,274.11,-45.96,86.43
2026-07-27 13:08:51.593,-0.11,0.5,0.23,242.13,-63.78,121.46
2026-07-27 13:08:51.756,0.16,0.83,0.43,164.86,-106.75,127.14
2026-07-27 13:08:51.757,0.16,0.83,0.43,164.86,-106.75,127.14
2026-07-27 13:08:51.757,0.46,1.29,1.54,15.81,-141.97,101.99
2026-07-27 13:08:51.758,0.46,1.29,1.54,-116.27,-108.64,60.85
2026-07-27 13:08:51.758,0.55,1.34,2.63,-116.27,-108.64,60.85
2026-07-27 13:08:51.759,0.38,0.81,2.28,-130.0,-6.04,23.07
2026-07-27 13:08:51.759,0.38,0.81,2.28,-130.0,-6.04,23.07
2026-07-27 13:08:51.759,0.15,0.31,1.24,-123.78,97.23,9.64
2026-07-27 13:08:51.816,0.15,0.31,1.24,-123.78,97.23,9.64
2026-07-27 13:08:51.817,-0.01,0.13,0.81,-194.7,133.0,30.58
2026-07-27 13:08:51.817,-0.01,0.13,0.81,-251.89,104.92,66.53
2026-07-27 13:08:51.995,-0.06,0.13,0.92,-251.89,104.92,66.53
2026-07-27 13:08:51.996,-0.12,0.16,1.0,-220.64,73.49,86.67
2026-07-27 13:08:51.996,-0.12,0.16,1.0,-220.64,73.49,86.67
2026-07-27 13:08:51.996,-0.27,0.16,0.86,-135.99,70.07,76.72
2026-07-27 13:08:52.055,-0.27,0.16,0.86,-135.99,70.07,76.72
2026-07-27 13:08:52.056,-0.36,0.16,0.7,-71.9,66.35,54.57
2026-07-27 13:08:52.056,-0.3,0.09,0.76,-46.69,45.53,26.98
2026-07-27 13:08:52.072,-0.3,0.09,0.76,-46.69,45.53,26.98
2026-07-27 13:08:52.072,-0.13,-0.08,1.01,-1.16,22.28,-7.87
2026-07-27 13:08:52.072,-0.13,-0.08,1.01,-1.16,22.28,-7.87
2026-07-27 13:08:52.116,-0.07,-0.19,1.25,56.21,23.19,-40.59
2026-07-27 13:08:52.117,-0.07,-0.19,1.25,56.21,23.19,-40.59
2026-07-27 13:08:52.117,-0.21,-0.21,1.29,25.88,61.16,-38.45
2026-07-27 13:08:52.176,-0.35,-0.16,1.12,-38.88,100.4,10.5
2026-07-27 13:08:52.176,-0.35,-0.16,1.12,-38.88,100.4,10.5
2026-07-27 13:08:52.236,-0.45,0.0,0.76,23.62,117.07,68.48
2026-07-27 13:08:52.236,-0.45,0.0,0.76,23.62,117.07,68.48
2026-07-27 13:08:52.237,-0.51,0.13,0.31,156.19,111.94,95.83
2026-07-27 13:08:52.296,-0.51,0.13,0.31,156.19,111.94,95.83
2026-07-27 13:08:52.297,-0.56,0.09,0.04,159.24,76.78,74.34
2026-07-27 13:08:52.366,-0.59,-0.05,-0.02,14.28,9.89,38.09
2026-07-27 13:08:52.367,-0.59,-0.05,-0.02,14.28,9.89,38.09
2026-07-27 13:08:52.367,-0.57,-0.1,0.05,-117.98,-79.28,25.33
2026-07-27 13:08:52.416,-0.57,-0.1,0.05,-117.98,-79.28,25.33
2026-07-27 13:08:52.416,-0.5,0.12,0.26,-115.84,-139.28,20.26
2026-07-27 13:08:52.416,-0.5,0.12,0.26,-18.07,-143.92,2.62
2026-07-27 13:08:52.476,-0.4,0.44,0.53,-18.07,-143.92,2.62
2026-07-27 13:08:52.476,-0.27,0.57,0.77,58.96,-127.26,-26.25
2026-07-27 13:08:52.536,-0.27,0.57,0.77,58.96,-127.26,-26.25
2026-07-27 13:08:52.537,-0.11,0.5,1.03,71.23,-109.37,-54.2
2026-07-27 13:08:52.537,-0.11,0.5,1.03,71.23,-109.37,-54.2
2026-07-27 13:08:52.596,0.0,0.37,1.35,58.84,-87.16,-65.43
2026-07-27 13:08:52.596,0.07,0.28,1.61,65.61,-59.94,-58.65
2026-07-27 13:08:52.597,0.07,0.28,1.61,65.61,-59.94,-58.65
2026-07-27 13:08:52.716,0.12,0.17,1.75,61.65,-34.91,-43.7
2026-07-27 13:08:52.716,0.12,0.17,1.75,61.65,-34.91,-43.7
2026-07-27 13:08:52.717,0.17,-0.05,1.77,13.92,-11.35,-28.26
2026-07-27 13:08:52.717,0.17,-0.05,1.77,13.92,-11.35,-28.26
2026-07-27 13:08:52.717,0.15,-0.2,1.6,-34.18,17.58,-10.74
2026-07-27 13:08:52.777,0.03,-0.08,1.33,-41.08,46.26,12.63
2026-07-27 13:08:52.777,0.03,-0.08,1.33,-41.08,46.26,12.63
2026-07-27 13:08:52.961,-0.14,0.17,1.07,-42.6,60.55,32.96
2026-07-27 13:08:52.962,-0.14,0.17,1.07,-42.6,60.55,32.96
2026-07-27 13:08:52.962,-0.29,0.32,0.81,-59.75,59.81,37.17
2026-07-27 13:08:52.963,-0.29,0.32,0.81,-59.75,59.81,37.17
2026-07-27 13:08:52.963,-0.37,0.31,0.58,-71.29,49.32,23.44
2026-07-27 13:08:52.963,-0.37,0.2,0.47,-70.98,28.81,2.01
2026-07-27 13:08:52.963,-0.37,0.2,0.47,-70.98,28.81,2.01
2026-07-27 13:08:52.963,-0.31,0.05,0.51,-58.35,1.59,-12.7
2026-07-27 13:08:52.964,-0.31,0.05,0.51,-58.35,1.59,-12.7
2026-07-27 13:08:53.076,-0.25,-0.04,0.64,-30.33,-19.29,-14.34
2026-07-27 13:08:53.077,-0.25,-0.04,0.64,-30.33,-19.29,-14.34
2026-07-27 13:08:53.077,-0.22,0.01,0.83,4.7,-29.11,-7.63
2026-07-27 13:08:53.079,-0.21,0.09,1.02,24.84,-30.7,0.24
2026-07-27 13:08:53.079,-0.21,0.09,1.02,24.84,-30.7,0.24
2026-07-27 13:08:53.136,-0.21,0.11,1.08,28.56,-22.95,3.54
2026-07-27 13:08:53.136,-0.21,0.11,1.08,28.56,-22.95,3.54
2026-07-27 13:08:53.256,-0.19,0.06,1.03,28.38,-9.28,0.0
2026-07-27 13:08:53.256,-0.19,0.06,1.03,28.38,-9.28,0.0
2026-07-27 13:08:53.257,-0.18,0.0,0.99,18.19,-1.4,-5.74
2026-07-27 13:08:53.257,-0.18,0.0,0.99,18.19,-1.4,-5.74
2026-07-27 13:08:53.257,-0.17,-0.02,1.01,2.81,-1.89,-5.62
2026-07-27 13:08:53.258,-0.18,0.01,1.04,-0.61,-2.93,1.34
2026-07-27 13:08:53.318,-0.18,0.01,1.04,-0.61,-2.93,1.34
2026-07-27 13:08:53.318,-0.19,0.05,1.04,5.74,-1.53,7.45
2026-07-27 13:08:53.319,-0.19,0.05,1.04,5.74,-1.53,7.45
2026-07-27 13:08:53.376,-0.2,0.06,1.01,10.13,-0.73,7.93
2026-07-27 13:08:53.376,-0.2,0.06,1.01,10.13,-0.73,7.93
2026-07-27 13:08:53.437,-0.2,0.06,1.0,7.81,-2.69,5.0
2026-07-27 13:08:53.437,-0.2,0.06,1.0,7.81,-2.69,5.0
2026-07-27 13:08:53.438,-0.2,0.06,1.0,1.22,-5.0,2.2
2026-07-27 13:08:53.503,-0.2,0.07,0.98,-2.32,-5.43,0.73
2026-07-27 13:08:53.504,-0.2,0.07,0.98,-2.32,-5.43,0.73
2026-07-27 13:08:53.504,-0.21,0.07,0.97,-0.55,-4.52,0.24
2026-07-27 13:08:53.556,-0.21,0.07,0.97,-0.55,-4.52,0.24
2026-07-27 13:08:53.556,-0.21,0.08,0.95,2.87,-3.17,-0.06
2026-07-27 13:08:53.557,-0.21,0.08,0.95,2.87,-3.17,-0.06
2026-07-27 13:08:53.616,-0.22,0.09,0.94,7.14,-2.5,-1.1
2026-07-27 13:08:53.616,-0.22,0.09,0.94,7.14,-2.5,-1.1
2026-07-27 13:08:53.676,-0.22,0.09,0.94,12.02,-2.08,-3.72
2026-07-27 13:08:53.676,-0.21,0.09,0.95,14.65,-2.08,-7.14
2026-07-27 13:08:53.677,-0.21,0.09,0.95,14.65,-2.08,-7.14
2026-07-27 13:08:53.857,-0.2,0.1,0.97,11.84,-3.48,-9.16
2026-07-27 13:08:53.858,-0.2,0.1,0.97,11.84,-3.48,-9.16
2026-07-27 13:08:53.858,-0.19,0.1,0.99,5.19,-5.0,-9.52
2026-07-27 13:08:53.858,-0.18,0.09,1.0,0.0,-4.94,-9.7
2026-07-27 13:08:53.859,-0.18,0.09,1.0,0.0,-4.94,-9.7
2026-07-27 13:08:53.860,-0.17,0.09,1.01,-1.53,-3.6,-9.7
2026-07-27 13:08:53.860,-0.17,0.09,1.01,-1.53,-3.6,-9.7
2026-07-27 13:08:53.860,-0.16,0.09,1.01,-1.95,-2.2,-9.09
2026-07-27 13:08:53.919,-0.16,0.09,1.01,-1.95,-2.2,-9.09
2026-07-27 13:08:53.919,-0.16,0.08,0.99,-1.65,-1.1,-8.0
2026-07-27 13:08:53.919,-0.16,0.08,0.99,-1.65,-1.1,-8.0
2026-07-27 13:08:53.980,-0.16,0.08,0.98,0.18,-0.31,-6.71
2026-07-27 13:08:53.980,-0.17,0.09,0.97,2.26,0.37,-5.68
2026-07-27 13:08:54.036,-0.17,0.09,0.97,2.26,0.37,-5.68
2026-07-27 13:08:54.037,-0.17,0.1,0.96,3.17,0.37,-5.37
2026-07-27 13:08:54.037,-0.17,0.1,0.96,3.17,0.37,-5.37
2026-07-27 13:08:54.096,-0.17,0.1,0.97,1.46,-0.37,-5.55
2026-07-27 13:08:54.096,-0.17,0.1,0.97,1.46,-0.37,-5.55
2026-07-27 13:08:54.097,-0.17,0.09,0.98,-1.04,-1.16,-5.68
2026-07-27 13:08:54.157,-0.17,0.09,0.98,-1.04,-1.16,-5.68
2026-07-27 13:08:54.157,-0.17,0.09,0.99,-1.59,-0.98,-5.19
2026-07-27 13:08:54.337,-0.17,0.09,0.98,-0.67,-0.18,-4.39
2026-07-27 13:08:54.337,-0.17,0.09,0.98,-0.67,-0.18,-4.39
2026-07-27 13:08:54.337,-0.17,0.08,0.97,-0.12,0.43,-3.72
2026-07-27 13:08:54.338,-0.17,0.08,0.97,-0.12,0.43,-3.72
2026-07-27 13:08:54.338,-0.17,0.09,0.96,-0.67,0.55,-3.11
2026-07-27 13:08:54.338,-0.17,0.09,0.96,-0.67,0.55,-3.11
2026-07-27 13:08:54.339,-0.17,0.09,0.97,-0.24,0.31,-2.62
2026-07-27 13:08:54.339,-0.17,0.09,0.97,-0.24,0.31,-2.62
2026-07-27 13:08:54.339,-0.17,0.1,0.98,1.46,0.0,-2.75
2026-07-27 13:08:54.458,-0.17,0.1,0.98,1.46,-0.12,-3.3
2026-07-27 13:08:54.458,-0.17,0.09,0.98,1.46,-0.12,-3.3
2026-07-27 13:08:54.458,-0.17,0.08,0.98,0.37,0.06,-3.36
2026-07-27 13:08:54.459,-0.17,0.08,0.98,0.37,0.06,-3.36
2026-07-27 13:08:54.459,-0.16,0.08,0.98,0.24,0.12,-2.62
2026-07-27 13:08:54.516,-0.16,0.08,0.98,0.24,0.12,-2.62
2026-07-27 13:08:54.517,-0.16,0.08,0.98,1.1,0.18,-1.77
2026-07-27 13:08:54.517,-0.16,0.08,0.98,1.1,0.18,-1.77
2026-07-27 13:08:54.581,-0.16,0.08,0.96,2.93,0.18,-1.22
2026-07-27 13:08:54.581,-0.16,0.08,0.96,2.93,0.18,-1.22
2026-07-27 13:08:54.636,-0.16,0.08,0.95,5.98,-0.12,-0.24
2026-07-27 13:08:54.636,-0.17,0.09,0.95,8.24,-1.04,1.34
2026-07-27 13:08:54.637,-0.17,0.09,0.95,8.24,-1.04,1.34
2026-07-27 13:08:54.712,-0.18,0.11,0.97,7.14,-1.95,2.44
2026-07-27 13:08:54.713,-0.18,0.11,0.97,7.14,-1.95,2.44
2026-07-27 13:08:54.713,-0.18,0.11,0.99,4.09,-2.26,2.32
2026-07-27 13:08:54.758,-0.18,0.11,0.99,4.09,-2.26,2.32
2026-07-27 13:08:54.759,-0.18,0.11,0.99,2.32,-1.95,1.34
2026-07-27 13:08:54.759,-0.18,0.11,0.99,2.32,-1.95,1.34
2026-07-27 13:08:54.828,-0.18,0.1,0.99,1.04,-1.16,0.31
2026-07-27 13:08:54.830,-0.18,0.1,0.98,-0.85,-0.37,-0.31
2026-07-27 13:08:54.876,-0.18,0.1,0.98,-0.85,-0.37,-0.31
2026-07-27 13:08:54.877,-0.18,0.09,0.98,-2.26,-0.24,-0.73
2026-07-27 13:08:54.877,-0.18,0.09,0.98,-2.26,-0.24,-0.73
2026-07-27 13:08:54.936,-0.17,0.09,0.98,-2.56,-0.31,-0.85
2026-07-27 13:08:54.936,-0.17,0.09,0.98,-2.56,-0.31,-0.85
2026-07-27 13:08:54.937,-0.17,0.1,0.98,-0.92,-0.24,-0.55
2026-07-27 13:08:54.996,-0.17,0.1,0.98,-0.92,-0.24,-0.55
2026-07-27 13:08:54.996,-0.17,0.1,0.98,0.73,0.0,-0.31
2026-07-27 13:08:55.057,-0.17,0.1,0.98,0.67,0.24,-0.55
2026-07-27 13:08:55.058,-0.17,0.1,0.98,0.67,0.24,-0.55
2026-07-27 13:08:55.058,-0.16,0.1,0.97,0.98,0.06,-0.43
2026-07-27 13:08:55.121,-0.16,0.1,0.97,0.98,0.06,-0.43
2026-07-27 13:08:55.121,-0.17,0.1,0.97,1.65,-0.31,0.24
2026-07-27 13:08:55.122,-0.17,0.1,0.97,1.65,-0.31,0.24
2026-07-27 13:08:55.239,-0.18,0.11,0.97,0.92,-0.85,0.79
2026-07-27 13:08:55.240,-0.18,0.11,0.97,0.92,-0.85,0.79
2026-07-27 13:08:55.240,-0.18,0.11,0.98,0.43,-1.53,0.61
2026-07-27 13:08:55.241,-0.18,0.11,0.98,0.67,-1.83,-0.31
2026-07-27 13:08:55.241,-0.18,0.1,0.98,0.67,-1.83,-0.31
2026-07-27 13:08:55.298,-0.17,0.09,0.99,0.31,-1.95,-0.98
2026-07-27 13:08:55.299,-0.17,0.09,0.99,0.31,-1.95,-0.98
2026-07-27 13:08:55.299,-0.16,0.1,1.0,-1.1,-1.22,0.37
2026-07-27 13:08:55.416,-0.16,0.1,1.0,-1.1,-1.22,0.37
2026-07-27 13:08:55.418,-0.17,0.12,0.99,-9.58,0.0,2.44
2026-07-27 13:08:55.418,-0.17,0.12,0.99,-9.58,0.0,2.44
2026-07-27 13:08:55.420,-0.16,0.06,1.05,-26.79,11.78,-5.25
2026-07-27 13:08:55.420,-0.16,0.06,1.05,-46.51,41.81,-22.95
2026-07-27 13:08:55.420,-0.14,-0.08,1.21,-46.51,41.81,-22.95
2026-07-27 13:08:55.476,-0.12,-0.27,1.24,-82.95,43.76,-27.4
2026-07-27 13:08:55.476,-0.12,-0.27,1.24,-82.95,43.76,-27.4
2026-07-27 13:08:55.538,-0.1,-0.42,1.08,-136.17,6.53,-4.52
2026-07-27 13:08:55.538,-0.1,-0.42,1.08,-136.17,6.53,-4.52
2026-07-27 13:08:55.539,-0.12,-0.45,0.81,-177.67,-31.49,33.26
2026-07-27 13:08:55.596,-0.12,-0.45,0.81,-185.18,-73.67,64.33
2026-07-27 13:08:55.596,-0.15,-0.38,0.56,-185.18,-73.67,64.33
2026-07-27 13:08:55.792,-0.19,-0.21,0.51,-143.92,-115.78,69.82
2026-07-27 13:08:55.793,-0.19,-0.21,0.51,-143.92,-115.78,69.82
2026-07-27 13:08:55.793,-0.18,-0.04,0.62,-48.03,-130.98,45.1
2026-07-27 13:08:55.794,-0.09,-0.06,0.77,66.1,-112.12,7.81
2026-07-27 13:08:55.794,-0.09,-0.06,0.77,66.1,-112.12,7.81
2026-07-27 13:08:55.794,0.01,-0.01,1.04,152.83,-54.26,-28.93
2026-07-27 13:08:55.795,0.01,-0.01,1.04,152.83,-54.26,-28.93
2026-07-27 13:08:55.795,0.05,0.13,1.21,211.55,32.53,-44.8
2026-07-27 13:08:55.840,0.05,0.13,1.21,211.55,32.53,-44.8
2026-07-27 13:08:55.841,-0.02,0.06,1.06,146.91,80.81,-35.89
2026-07-27 13:08:55.841,-0.11,-0.11,0.93,26.92,50.78,-42.11
2026-07-27 13:08:55.896,-0.11,-0.11,0.93,26.92,50.78,-42.11
2026-07-27 13:08:55.955,-0.1,-0.15,0.92,15.56,-12.27,-100.95
2026-07-27 13:08:55.956,-0.1,-0.15,0.92,15.56,-12.27,-100.95
2026-07-27 13:08:55.956,-0.02,-0.04,0.95,28.75,-44.43,-185.06
2026-07-27 13:08:55.957,-0.02,-0.04,0.95,28.75,-44.43,-185.06
2026-07-27 13:08:56.016,0.05,0.06,0.99,12.76,-30.46,-213.5
2026-07-27 13:08:56.017,0.05,0.08,1.01,-0.18,-4.64,-164.67
2026-07-27 13:08:56.017,0.05,0.08,1.01,-0.18,-4.64,-164.67
2026-07-27 13:08:56.079,0.02,0.05,1.01,-3.23,6.53,-82.28
2026-07-27 13:08:56.080,0.02,0.05,1.01,-3.23,6.53,-82.28
2026-07-27 13:08:56.136,-0.0,-0.01,1.0,-1.46,5.25,-14.1
2026-07-27 13:08:56.136,-0.0,-0.01,1.0,-1.46,5.25,-14.1
2026-07-27 13:08:56.137,-0.0,-0.03,1.0,0.31,1.1,14.22
2026-07-27 13:08:56.196,0.0,-0.03,1.0,0.73,-0.98,12.39
2026-07-27 13:08:56.196,0.0,-0.03,1.0,0.73,-0.98,12.39
2026-07-27 13:08:56.196,0.01,-0.02,1.0,0.55,-0.98,3.36
2026-07-27 13:08:56.257,0.01,-0.02,1.0,0.55,-0.98,3.36
2026-07-27 13:08:56.257,0.01,-0.02,1.0,0.24,-0.43,-1.4
2026-07-27 13:08:56.378,0.01,-0.02,1.0,0.24,-0.43,-1.4
2026-07-27 13:08:56.379,0.0,-0.02,1.0,0.12,-0.06,-1.59
2026-07-27 13:08:56.380,0.0,-0.02,1.0,0.12,-0.06,-1.59
2026-07-27 13:08:56.380,0.0,-0.02,1.0,0.18,-0.06,-0.37
2026-07-27 13:08:56.380,0.0,-0.02,1.0,0.18,-0.06,0.37
2026-07-27 13:08:56.380,0.0,-0.02,1.0,0.18,-0.06,0.37
2026-07-27 13:08:56.436,0.0,-0.02,1.0,0.24,-0.12,0.43
2026-07-27 13:08:56.436,0.0,-0.02,1.0,0.24,-0.12,0.43
2026-07-27 13:08:56.501,0.0,-0.02,1.0,0.24,-0.12,0.31
2026-07-27 13:08:56.502,0.0,-0.02,1.0,0.24,-0.12,0.31
2026-07-27 13:08:56.504,0.0,-0.02,1.0,0.24,-0.12,0.18
2026-07-27 13:08:56.505,0.0,-0.02,1.0,0.24,-0.12,0.18
2026-07-27 13:08:56.556,0.0,-0.02,1.0,0.24,-0.18,0.18
2026-07-27 13:08:56.557,0.0,-0.02,1.0,0.24,-0.18,0.18
2026-07-27 13:08:56.679,0.0,-0.02,1.0,0.24,-0.18,0.24
2026-07-27 13:08:56.680,0.0,-0.02,1.0,0.24,-0.18,0.24
2026-07-27 13:08:56.680,0.0,-0.02,1.0,0.24,-0.18,0.24
2026-07-27 13:08:56.680,0.0,-0.02,1.0,0.24,-0.24,0.18
2026-07-27 13:08:56.680,0.0,-0.02,1.0,0.24,-0.24,0.18
2026-07-27 13:08:56.797,0.0,-0.02,1.0,0.24,-0.24,0.18
2026-07-27 13:08:56.798,0.0,-0.02,1.0,0.24,-0.24,0.18
2026-07-27 13:08:56.798,0.0,-0.02,1.0,0.24,-0.24,0.18
2026-07-27 13:08:56.799,0.0,-0.02,1.0,0.24,-0.24,0.18
2026-07-27 13:08:56.799,0.01,-0.02,1.0,0.24,-0.18,0.18
2026-07-27 13:08:56.799,0.0,-0.02,1.0,0.18,-0.12,0.18
2026-07-27 13:08:56.858,0.0,-0.02,1.0,0.18,-0.12,0.18
2026-07-27 13:08:56.858,0.0,-0.02,1.0,0.18,-0.12,0.24
2026-07-27 13:08:56.858,0.0,-0.02,1.0,0.18,-0.12,0.24
2026-07-27 13:08:56.977,0.0,-0.02,1.0,0.18,-0.12,0.24
2026-07-27 13:08:56.978,0.0,-0.02,1.0,0.18,-0.12,0.24
2026-07-27 13:08:56.978,0.0,-0.02,1.0,0.18,-0.12,0.18
2026-07-27 13:08:56.979,0.0,-0.02,1.0,0.18,-0.12,0.18
2026-07-27 13:08:56.979,0.0,-0.02,1.0,0.18,-0.12,0.18
2026-07-27 13:08:57.036,0.0,-0.02,1.0,0.18,-0.12,0.18
2026-07-27 13:08:57.036,0.0,-0.02,1.0,0.18,-0.12,0.18
2026-07-27 13:08:57.037,0.0,-0.02,1.0,0.24,-0.12,0.18
2026-07-27 13:08:57.163,0.0,-0.02,1.0,0.24,-0.12,0.18
2026-07-27 13:08:57.163,0.0,-0.02,1.0,0.24,-0.12,0.24
2026-07-27 13:08:57.163,0.0,-0.02,1.0,0.24,-0.12,0.24
2026-07-27 13:08:57.164,0.0,-0.02,1.0,0.24,-0.12,0.24
2026-07-27 13:08:57.164,0.0,-0.02,1.0,0.24,-0.12,0.24
2026-07-27 13:08:57.216,0.0,-0.02,1.0,0.24,-0.12,0.24
2026-07-27 13:08:57.216,0.0,-0.02,1.0,0.24,-0.12,0.18
2026-07-27 13:08:57.217,0.0,-0.02,1.0,0.24,-0.12,0.18
2026-07-27 13:08:57.337,0.0,-0.02,1.0,0.24,-0.12,0.18
2026-07-27 13:08:57.337,0.0,-0.02,1.0,0.24,-0.12,0.18
2026-07-27 13:08:57.338,0.0,-0.02,1.0,0.24,-0.12,0.18
2026-07-27 13:08:57.338,0.0,-0.02,1.0,0.24,-0.12,0.18
2026-07-27 13:08:57.338,0.0,-0.02,1.0,0.24,-0.18,0.18
2026-07-27 13:08:57.339,0.0,-0.02,1.0,0.24,-0.18,0.18
2026-07-27 13:08:57.398,0.0,-0.02,1.0,0.24,-0.12,0.24
2026-07-27 13:08:57.398,0.0,-0.02,1.0,0.24,-0.12,0.18
2026-07-27 13:08:57.457,0.0,-0.02,1.0,0.24,-0.12,0.18
2026-07-27 13:08:57.459,0.0,-0.02,1.0,0.24,-0.12,0.24
2026-07-27 13:08:57.459,0.0,-0.02,1.0,0.24,-0.12,0.24
2026-07-27 13:08:57.578,0.0,-0.02,1.0,0.18,-0.12,0.24
2026-07-27 13:08:57.578,0.0,-0.02,1.0,0.18,-0.12,0.24
2026-07-27 13:08:57.635,0.0,-0.02,1.0,0.18,-0.12,0.24
2026-07-27 13:08:57.636,0.0,-0.02,1.0,0.18,-0.12,0.24
2026-07-27 13:08:57.636,0.0,-0.02,1.0,0.24,-0.12,0.24
2026-07-27 13:08:57.637,0.0,-0.02,1.0,0.24,-0.12,0.24
2026-07-27 13:08:57.637,0.0,-0.02,1.0,0.24,-0.12,0.24
2026-07-27 13:08:57.637,0.0,-0.02,1.0,0.24,-0.12,0.24
2026-07-27 13:08:57.697,0.01,-0.02,1.0,0.24,-0.12,0.24
2026-07-27 13:08:57.697,0.0,-0.02,1.0,0.24,-0.12,0.24
2026-07-27 13:08:57.698,0.0,-0.02,1.0,0.24,-0.12,0.24
2026-07-27 13:08:57.756,0.0,-0.02,1.0,0.18,-0.12,0.24
2026-07-27 13:08:57.757,0.0,-0.02,1.0,0.18,-0.12,0.24
2026-07-27 13:08:57.757,0.0,-0.02,1.0,0.18,-0.12,0.24
2026-07-27 13:08:57.825,0.0,-0.02,1.0,0.18,-0.12,0.24
2026-07-27 13:08:57.826,0.0,-0.02,1.0,0.18,-0.12,0.24
2026-07-27 13:08:57.826,0.0,-0.02,1.0,0.18,-0.12,0.24
2026-07-27 13:08:58.176,0.0,-0.02,1.0,0.24,-0.18,0.24
2026-07-27 13:08:58.177,0.0,-0.02,1.0,0.18,-0.18,0.18
2026-07-27 13:08:58.177,0.0,-0.02,1.0,0.18,-0.18,0.18
2026-07-27 13:08:58.178,0.0,-0.02,1.0,0.18,-0.12,0.18
2026-07-27 13:08:58.179,0.0,-0.02,1.0,0.18,-0.12,0.18
2026-07-27 13:08:58.179,0.0,-0.02,1.0,0.24,-0.12,0.24
2026-07-27 13:08:58.180,0.0,-0.02,1.0,0.24,-0.12,0.24
2026-07-27 13:08:58.180,0.0,-0.02,1.0,0.24,-0.12,0.18
2026-07-27 13:08:58.181,0.0,-0.02,1.0,0.24,-0.12,0.18
2026-07-27 13:08:58.181,0.0,-0.02,1.0,0.24,-0.12,0.24
2026-07-27 13:08:58.181,0.0,-0.02,1.0,0.24,-0.12,0.24
2026-07-27 13:08:58.184,0.0,-0.02,1.0,0.24,-0.12,0.24
2026-07-27 13:08:58.184,0.0,-0.02,1.0,0.18,-0.12,0.24
2026-07-27 13:08:58.185,0.0,-0.02,1.0,0.18,-0.12,0.24
2026-07-27 13:08:58.186,0.0,-0.02,1.0,0.18,-0.12,0.24
2026-07-27 13:08:58.186,0.0,-0.02,1.0,0.18,-0.12,0.24
2026-07-27 13:08:58.243,0.0,-0.02,1.0,0.18,-0.12,0.24
2026-07-27 13:08:58.243,0.0,-0.02,1.0,0.18,-0.12,0.24
2026-07-27 13:08:58.249,0.0,-0.02,1.0,0.18,-0.12,0.24
2026-07-27 13:08:58.296,0.0,-0.02,1.0,0.18,-0.12,0.18
2026-07-27 13:08:58.296,0.0,-0.02,1.0,0.18,-0.12,0.18
2026-07-27 13:08:58.356,0.0,-0.02,1.0,0.24,-0.12,0.18
2026-07-27 13:08:58.356,0.0,-0.02,1.0,0.24,-0.12,0.18
2026-07-27 13:08:58.357,0.0,-0.02,1.0,0.18,-0.12,0.18
2026-07-27 13:08:58.538,0.0,-0.02,1.0,0.18,-0.12,0.18
2026-07-27 13:08:58.538,0.0,-0.02,1.0,0.18,-0.12,0.18
2026-07-27 13:08:58.539,0.0,-0.02,1.0,0.18,-0.12,0.18
2026-07-27 13:08:58.539,0.0,-0.02,1.0,0.18,-0.12,0.18
2026-07-27 13:08:58.539,0.0,-0.02,1.0,0.24,-0.12,0.18
2026-07-27 13:08:58.540,0.0,-0.02,1.0,0.24,-0.12,0.18
2026-07-27 13:08:58.540,0.0,-0.02,1.0,0.24,-0.12,0.18
2026-07-27 13:08:58.540,0.0,-0.02,1.0,0.24,-0.12,0.18
2026-07-27 13:08:58.656,0.0,-0.02,1.0,0.24,-0.12,0.18
2026-07-27 13:08:58.656,0.0,-0.02,1.0,0.24,-0.12,0.18
2026-07-27 13:08:58.657,0.0,-0.02,1.0,0.24,-0.18,0.18
2026-07-27 13:08:58.657,0.0,-0.02,1.0,0.24,-0.18,0.18
2026-07-27 13:08:58.658,0.0,-0.02,1.0,0.24,-0.18,0.18
2026-07-27 13:08:58.658,0.0,-0.02,1.0,0.24,-0.18,0.18
2026-07-27 13:08:58.776,0.0,-0.02,1.0,0.24,-0.12,0.18
2026-07-27 13:08:58.777,0.0,-0.02,1.0,0.18,-0.12,0.24
2026-07-27 13:08:58.777,0.0,-0.02,1.0,0.18,-0.12,0.24
2026-07-27 13:08:58.778,0.0,-0.02,1.0,0.18,-0.12,0.24
2026-07-27 13:08:58.778,0.0,-0.02,1.0,0.18,-0.12,0.24
2026-07-27 13:08:58.837,0.0,-0.02,1.0,0.18,-0.12,0.18
2026-07-27 13:08:58.838,0.0,-0.02,1.0,0.18,-0.12,0.18
2026-07-27 13:08:58.838,0.0,-0.02,1.0,0.18,-0.12,0.18
2026-07-27 13:08:58.898,0.0,-0.02,1.0,0.18,-0.12,0.18
2026-07-27 13:08:58.898,0.0,-0.02,1.0,0.18,-0.12,0.24
2026-07-27 13:08:59.016,0.0,-0.02,1.0,0.18,-0.12,0.24
2026-07-27 13:08:59.017,0.0,-0.02,1.0,0.18,-0.12,0.24
2026-07-27 13:08:59.018,0.0,-0.02,1.0,0.24,-0.12,0.18
2026-07-27 13:08:59.026,0.0,-0.02,1.0,0.24,-0.12,0.18
2026-07-27 13:08:59.027,0.01,-0.02,1.0,0.24,-0.12,0.18
2026-07-27 13:08:59.027,0.01,-0.02,1.0,0.24,-0.12,0.18
2026-07-27 13:08:59.077,0.01,-0.02,1.0,0.18,-0.12,0.18
2026-07-27 13:08:59.077,0.01,-0.02,1.0,0.18,-0.12,0.18
2026-07-27 13:08:59.077,0.0,-0.02,1.0,0.18,-0.06,0.18
2026-07-27 13:08:59.136,0.0,-0.02,1.0,0.18,-0.06,0.18
2026-07-27 13:08:59.137,0.0,-0.02,1.0,0.18,-0.06,0.18
2026-07-27 13:08:59.197,0.0,-0.02,1.0,0.18,-0.12,0.18
2026-07-27 13:08:59.197,0.0,-0.02,1.0,0.18,-0.12,0.18
2026-07-27 13:08:59.197,0.0,-0.02,1.0,0.18,-0.12,0.18
2026-07-27 13:08:59.256,0.0,-0.02,1.0,0.18,-0.12,0.18
2026-07-27 13:08:59.257,0.0,-0.02,1.0,0.18,-0.12,0.18
2026-07-27 13:08:59.258,0.0,-0.02,1.0,0.18,-0.12,0.18
2026-07-27 13:08:59.320,0.0,-0.02,1.0,0.18,-0.12,0.18
2026-07-27 13:08:59.325,0.0,-0.02,1.0,0.18,-0.12,0.18
2026-07-27 13:08:59.325,0.0,-0.02,1.0,0.18,-0.12,0.18
2026-07-27 13:08:59.376,0.0,-0.02,1.0,0.18,-0.12,0.18
2026-07-27 13:08:59.377,0.0,-0.02,1.0,0.18,-0.12,0.18
2026-07-27 13:08:59.378,0.0,-0.02,1.0,0.18,-0.12,0.18
2026-07-27 13:08:59.436,0.0,-0.02,1.0,0.18,-0.06,0.24
2026-07-27 13:08:59.437,0.01,-0.02,1.0,0.24,0.0,0.31
2026-07-27 13:08:59.437,0.01,-0.02,1.0,0.24,0.0,0.31
2026-07-27 13:08:59.616,0.0,-0.02,1.0,0.24,0.06,0.24
2026-07-27 13:08:59.616,0.0,-0.02,1.0,0.24,0.06,0.24
2026-07-27 13:08:59.617,0.0,-0.02,1.0,0.24,0.06,0.24
2026-07-27 13:08:59.618,0.0,-0.02,1.0,0.24,0.06,0.24
2026-07-27 13:08:59.618,0.0,-0.02,1.0,0.31,0.06,0.31
2026-07-27 13:08:59.619,0.0,-0.02,1.0,0.31,0.06,0.31
2026-07-27 13:08:59.619,0.0,-0.02,1.0,0.31,-0.06,0.31
2026-07-27 13:08:59.619,0.0,-0.02,1.0,0.24,-0.12,0.24
2026-07-27 13:08:59.680,0.0,-0.02,1.0,0.24,-0.12,0.24
2026-07-27 13:08:59.681,0.0,-0.02,1.0,0.24,-0.18,0.24
2026-07-27 13:08:59.736,0.0,-0.02,1.0,0.24,-0.18,0.24
2026-07-27 13:08:59.737,0.0,-0.02,1.0,0.18,-0.18,0.18
2026-07-27 13:08:59.737,0.0,-0.02,1.0,0.18,-0.18,0.18
2026-07-27 13:08:59.797,0.0,-0.02,1.0,0.24,-0.12,0.24
2026-07-27 13:08:59.798,0.0,-0.02,1.0,0.24,-0.12,0.24
2026-07-27 13:08:59.798,0.0,-0.02,1.0,0.24,-0.12,0.24
2026-07-27 13:08:59.856,0.0,-0.02,1.0,0.18,-0.12,0.18
2026-07-27 13:08:59.857,0.0,-0.02,1.0,0.18,-0.12,0.18
2026-07-27 13:08:59.916,0.0,-0.02,1.0,0.18,-0.12,0.18
2026-07-27 13:08:59.918,0.0,-0.02,1.0,0.18,-0.12,0.18
2026-07-27 13:08:59.919,0.0,-0.02,1.0,0.24,-0.12,0.18
2026-07-27 13:08:59.976,0.0,-0.02,1.0,0.24,-0.12,0.18
2026-07-27 13:08:59.977,0.0,-0.02,1.0,0.24,-0.12,0.24
2026-07-27 13:08:59.977,0.0,-0.02,1.0,0.18,-0.12,0.24
2026-07-27 13:09:00.037,0.0,-0.02,1.0,0.18,-0.12,0.24
2026-07-27 13:09:00.037,0.0,-0.02,1.0,0.18,-0.12,0.24
2026-07-27 13:09:00.037,0.0,-0.02,1.0,0.18,-0.12,0.24
2026-07-27 13:09:00.096,0.0,-0.02,1.0,0.18,-0.18,0.24
2026-07-27 13:09:00.097,0.0,-0.02,1.0,0.18,-0.18,0.24
2026-07-27 13:09:00.156,0.0,-0.02,1.0,0.18,-0.18,0.18
2026-07-27 13:09:00.156,0.0,-0.02,1.0,0.24,-0.12,0.18
2026-07-27 13:09:00.157,0.0,-0.02,1.0,0.24,-0.12,0.18
2026-07-27 13:09:00.216,0.0,-0.02,1.0,0.24,-0.12,0.18
2026-07-27 13:09:00.217,0.0,-0.02,1.0,0.24,-0.12,0.18
2026-07-27 13:09:00.217,0.0,-0.02,1.0,0.24,-0.12,0.18
2026-07-27 13:09:00.350,0.0,-0.02,1.0,0.24,-0.12,0.18
2026-07-27 13:09:00.350,0.0,-0.02,1.0,0.24,-0.12,0.24
2026-07-27 13:09:00.351,0.0,-0.02,1.0,0.24,-0.12,0.24
2026-07-27 13:09:00.351,0.0,-0.02,1.0,0.24,-0.12,0.24
2026-07-27 13:09:00.352,0.0,-0.02,1.0,0.18,-0.12,-0.37
2026-07-27 13:09:00.397,0.01,0.04,1.0,0.18,-0.12,-0.37
2026-07-27 13:09:00.397,0.02,0.08,1.02,-0.92,-0.24,-1.83
2026-07-27 13:09:00.399,0.02,0.08,1.02,-0.92,-0.24,-1.83
2026-07-27 13:09:00.456,-0.03,0.01,1.04,-25.45,-1.95,29.24
2026-07-27 13:09:00.456,-0.03,0.01,1.04,-25.45,-1.95,29.24
2026-07-27 13:09:00.517,-0.06,-0.02,1.07,-107.42,-5.07,77.39
2026-07-27 13:09:00.517,-0.06,-0.02,1.07,-107.42,-5.07,77.39
2026-07-27 13:09:00.518,-0.02,-0.09,1.17,-206.85,1.46,87.71
2026-07-27 13:09:00.576,-0.04,-0.35,1.23,-199.83,8.18,58.17
2026-07-27 13:09:00.577,-0.04,-0.35,1.23,-199.83,8.18,58.17
2026-07-27 13:09:00.577,-0.11,-0.58,1.14,-74.46,-4.27,12.08
2026-07-27 13:09:00.638,-0.11,-0.58,1.14,-74.46,-4.27,12.08
2026-07-27 13:09:00.639,-0.12,-0.59,1.06,23.93,-26.98,-10.25
2026-07-27 13:09:00.639,-0.12,-0.59,1.06,23.93,-26.98,-10.25
2026-07-27 13:09:00.696,-0.08,-0.48,1.1,30.15,-45.47,-3.42
2026-07-27 13:09:00.697,-0.03,-0.38,1.14,14.89,-49.32,-4.09
2026-07-27 13:09:00.756,-0.03,-0.38,1.14,14.89,-49.32,-4.09
2026-07-27 13:09:00.757,0.02,-0.32,1.06,36.38,-46.2,-26.37
2026-07-27 13:09:00.757,0.02,-0.32,1.06,36.38,-46.2,-26.37
2026-07-27 13:09:00.886,0.08,-0.26,0.89,64.09,-51.76,-39.86
2026-07-27 13:09:00.888,0.08,-0.26,0.89,64.09,-51.76,-39.86
2026-07-27 13:09:00.889,0.16,-0.22,0.71,55.73,-56.76,-25.02
2026-07-27 13:09:00.889,0.24,-0.23,0.57,22.46,-49.38,-1.4
2026-07-27 13:09:00.889,0.24,-0.23,0.57,22.46,-49.38,-1.4
2026-07-27 13:09:00.936,0.28,-0.25,0.51,-16.72,-32.47,7.75
2026-07-27 13:09:00.937,0.28,-0.25,0.51,-16.72,-32.47,7.75
2026-07-27 13:09:00.938,0.27,-0.27,0.53,-41.26,-14.4,3.72
2026-07-27 13:09:00.996,0.27,-0.27,0.53,-41.26,-14.4,3.72
2026-07-27 13:09:00.996,0.22,-0.33,0.58,-26.49,-3.36,-0.18
2026-07-27 13:09:01.060,0.22,-0.33,0.58,13.67,7.14,-4.15
2026-07-27 13:09:01.062,0.18,-0.37,0.65,13.67,7.14,-4.15
2026-07-27 13:09:01.063,0.17,-0.35,0.74,47.91,22.28,-11.47
2026-07-27 13:09:01.116,0.17,-0.35,0.74,47.91,22.28,-11.47
2026-07-27 13:09:01.117,0.17,-0.32,0.79,65.37,30.09,-16.85
2026-07-27 13:09:01.117,0.17,-0.32,0.79,65.37,30.09,-16.85
2026-07-27 13:09:01.238,0.18,-0.28,0.81,72.69,29.6,-20.14
2026-07-27 13:09:01.238,0.18,-0.28,0.81,78.98,28.08,-24.66
2026-07-27 13:09:01.239,0.17,-0.22,0.77,78.98,28.08,-24.66
2026-07-27 13:09:01.239,0.15,-0.13,0.77,75.99,30.58,-31.8
2026-07-27 13:09:01.239,0.15,-0.13,0.77,75.99,30.58,-31.8
2026-07-27 13:09:01.310,0.13,-0.01,0.87,57.86,43.27,-39.12
2026-07-27 13:09:01.311,0.13,-0.01,0.87,57.86,43.27,-39.12
2026-07-27 13:09:01.311,0.1,0.08,0.98,45.17,52.73,-39.79
2026-07-27 13:09:01.359,0.1,0.08,0.98,11.23,49.32,-40.83
2026-07-27 13:09:01.359,0.04,0.09,1.11,11.23,49.32,-40.83
2026-07-27 13:09:01.416,0.0,0.05,1.26,-56.34,52.12,-43.76
2026-07-27 13:09:01.417,0.0,0.05,1.26,-56.34,52.12,-43.76
2026-07-27 13:09:01.417,-0.03,-0.01,1.27,-78.92,59.45,-30.64
2026-07-27 13:09:01.476,-0.03,-0.01,1.27,-78.92,59.45,-30.64
2026-07-27 13:09:01.477,-0.08,-0.09,1.21,-48.52,55.85,-4.03
2026-07-27 13:09:01.477,-0.08,-0.09,1.21,-48.52,55.85,-4.03
2026-07-27 13:09:01.597,-0.13,-0.17,1.2,-22.89,49.93,14.1
2026-07-27 13:09:01.598,-0.15,-0.18,1.19,-5.31,39.49,16.6
2026-07-27 13:09:01.598,-0.15,-0.18,1.19,-5.31,39.49,16.6
2026-07-27 13:09:01.598,-0.15,-0.15,1.15,14.28,18.92,10.38
2026-07-27 13:09:01.599,-0.15,-0.15,1.15,14.28,18.92,10.38
2026-07-27 13:09:01.662,-0.14,-0.11,1.1,28.26,2.75,3.42
2026-07-27 13:09:01.662,-0.14,-0.11,1.1,28.26,2.75,3.42
2026-07-27 13:09:01.716,-0.12,-0.06,1.04,40.04,-6.16,-2.08
2026-07-27 13:09:01.717,-0.11,-0.04,0.99,44.25,-10.56,-4.88
2026-07-27 13:09:01.717,-0.11,-0.04,0.99,44.25,-10.56,-4.88
2026-07-27 13:09:01.776,-0.11,-0.05,0.95,22.77,-6.59,-3.54
2026-07-27 13:09:01.776,-0.11,-0.05,0.95,22.77,-6.59,-3.54
2026-07-27 13:09:01.777,-0.12,-0.06,0.96,-15.69,0.0,-2.5
2026-07-27 13:09:01.836,-0.12,-0.06,0.96,-42.18,3.3,-4.52
2026-07-27 13:09:01.837,-0.13,-0.08,1.0,-42.18,3.3,-4.52
2026-07-27 13:09:01.898,-0.13,-0.11,1.03,-44.19,5.43,-5.98
2026-07-27 13:09:01.898,-0.13,-0.11,1.03,-44.19,5.43,-5.98
2026-07-27 13:09:01.898,-0.14,-0.14,1.04,-29.36,7.39,-3.54
2026-07-27 13:09:01.957,-0.14,-0.14,1.04,-29.36,7.39,-3.54
2026-07-27 13:09:01.957,-0.14,-0.15,1.03,-10.44,7.02,-0.61
2026-07-27 13:09:01.958,-0.14,-0.15,1.03,-10.44,7.02,-0.61
2026-07-27 13:09:02.031,-0.15,-0.14,1.04,5.68,4.27,-0.12
2026-07-27 13:09:02.032,-0.15,-0.12,1.05,22.09,0.55,-0.24
2026-07-27 13:09:02.033,-0.15,-0.12,1.05,22.09,0.55,-0.24
2026-07-27 13:09:02.076,-0.16,-0.1,1.07,32.59,-0.79,-1.71
2026-07-27 13:09:02.077,-0.16,-0.1,1.07,32.59,-0.79,-1.71
2026-07-27 13:09:02.136,-0.16,-0.09,1.1,29.85,1.1,-2.56
2026-07-27 13:09:02.136,-0.16,-0.09,1.1,29.85,1.1,-2.56
2026-07-27 13:09:02.137,-0.16,-0.05,1.12,24.72,2.93,3.48
2026-07-27 13:09:02.196,-0.16,-0.05,1.12,24.72,2.93,3.48
2026-07-27 13:09:02.196,-0.17,-0.03,1.14,30.76,1.16,16.48
2026-07-27 13:09:02.256,-0.18,-0.03,1.12,54.26,-2.14,24.29
2026-07-27 13:09:02.256,-0.18,-0.03,1.12,54.26,-2.14,24.29
2026-07-27 13:09:02.257,-0.17,0.0,1.11,70.07,-1.95,16.78
2026-07-27 13:09:02.379,-0.17,0.0,1.11,70.07,-1.95,16.78
2026-07-27 13:09:02.380,-0.16,0.05,1.12,47.12,-0.61,1.4
2026-07-27 13:09:02.380,-0.16,0.05,1.12,47.12,-0.61,1.4
2026-07-27 13:09:02.381,-0.16,0.09,1.13,4.52,-2.87,-10.44
2026-07-27 13:09:02.381,-0.16,0.09,1.13,-23.68,-10.19,-13.18
2026-07-27 13:09:02.382,-0.16,0.11,1.13,-23.68,-10.19,-13.18
2026-07-27 13:09:02.436,-0.15,0.1,1.1,-31.86,-16.11,-12.94
2026-07-27 13:09:02.436,-0.15,0.1,1.1,-31.86,-16.11,-12.94
2026-07-27 13:09:02.556,-0.12,0.09,1.05,-35.83,-15.14,-15.93
2026-07-27 13:09:02.557,-0.12,0.09,1.05,-35.83,-15.14,-15.93
2026-07-27 13:09:02.558,-0.09,0.07,1.01,-47.67,-15.08,-16.66
2026-07-27 13:09:02.559,-0.09,0.07,1.01,-47.67,-15.08,-16.66
2026-07-27 13:09:02.559,-0.07,0.03,0.97,-58.53,-18.19,-10.5
2026-07-27 13:09:02.559,-0.06,-0.04,0.94,-56.34,-19.17,0.24
2026-07-27 13:09:02.620,-0.06,-0.04,0.94,-56.34,-19.17,0.24
2026-07-27 13:09:02.626,-0.07,-0.1,0.92,-45.78,-16.36,6.29
2026-07-27 13:09:02.676,-0.07,-0.1,0.92,-45.78,-16.36,6.29
2026-07-27 13:09:02.677,-0.06,-0.12,0.88,-38.02,-13.55,4.27
2026-07-27 13:09:02.677,-0.06,-0.12,0.88,-38.02,-13.55,4.27
2026-07-27 13:09:02.736,-0.03,-0.1,0.8,-31.92,-14.34,2.87
2026-07-27 13:09:02.736,-0.0,-0.11,0.74,-21.97,-15.56,7.63
2026-07-27 13:09:02.737,-0.0,-0.11,0.74,-21.97,-15.56,7.63
2026-07-27 13:09:02.802,0.0,-0.14,0.72,-12.82,-13.37,11.35
2026-07-27 13:09:02.802,0.0,-0.14,0.72,-12.82,-13.37,11.35
2026-07-27 13:09:02.857,0.0,-0.17,0.73,-4.88,-7.02,5.19
2026-07-27 13:09:02.858,0.0,-0.17,0.73,-4.88,-7.02,5.19
2026-07-27 13:09:02.858,0.01,-0.19,0.76,8.18,-0.06,-4.27
2026-07-27 13:09:02.919,0.02,-0.21,0.78,25.15,3.54,-6.96
2026-07-27 13:09:02.920,0.02,-0.21,0.78,25.15,3.54,-6.96
2026-07-27 13:09:02.979,0.03,-0.23,0.82,29.05,7.02,-11.29
2026-07-27 13:09:02.980,0.03,-0.23,0.82,29.05,7.02,-11.29
2026-07-27 13:09:02.980,-0.0,-0.19,0.93,6.71,15.01,-24.6
2026-07-27 13:09:03.098,-0.0,-0.19,0.93,6.71,15.01,-24.6
2026-07-27 13:09:03.098,-0.06,-0.13,1.04,-20.02,22.89,-31.43
2026-07-27 13:09:03.099,-0.06,-0.13,1.04,-20.02,22.89,-31.43
2026-07-27 13:09:03.099,-0.06,-0.13,1.04,-20.02,22.89,-31.43
2026-07-27 13:09:03.099,-0.06,-0.13,1.04,-20.02,22.89,-31.43
2026-07-27 13:09:03.099,-0.14,-0.13,1.06,-5.19,15.38,1.65
2026-07-27 13:09:03.156,-0.13,-0.16,0.96,14.59,3.3,17.7
2026-07-27 13:09:03.157,-0.13,-0.16,0.96,14.59,3.3,17.7
2026-07-27 13:09:03.157,-0.07,-0.17,0.81,26.43,-6.35,23.32
2026-07-27 13:09:03.216,-0.07,-0.17,0.81,26.43,-6.35,23.32
2026-07-27 13:09:03.217,0.01,-0.17,0.67,31.49,-9.64,23.56
2026-07-27 13:09:03.276,0.01,-0.17,0.67,31.49,-9.64,23.56
2026-07-27 13:09:03.277,0.07,-0.16,0.57,32.96,-6.41,23.8
2026-07-27 13:09:03.277,0.07,-0.16,0.57,27.89,-2.08,25.63
2026-07-27 13:09:03.396,0.07,-0.17,0.51,27.89,-2.08,25.63
2026-07-27 13:09:03.396,0.03,-0.14,0.47,37.41,1.04,18.86
2026-07-27 13:09:03.397,0.03,-0.14,0.47,37.41,1.04,18.86
2026-07-27 13:09:03.397,-0.04,-0.03,0.53,63.9,12.27,-2.26
2026-07-27 13:09:03.397,-0.04,-0.03,0.53,63.9,12.27,-2.26
2026-07-27 13:09:03.456,-0.16,0.1,0.75,72.14,36.07,-22.71
2026-07-27 13:09:03.457,-0.16,0.1,0.75,72.14,36.07,-22.71
2026-07-27 13:09:03.457,-0.27,0.19,1.02,64.7,56.46,-30.03
2026-07-27 13:09:03.516,-0.31,0.27,1.21,53.89,52.8,-24.9
2026-07-27 13:09:03.516,-0.31,0.27,1.21,53.89,52.8,-24.9
2026-07-27 13:09:03.578,-0.3,0.32,1.34,26.25,25.88,-12.76
2026-07-27 13:09:03.579,-0.3,0.32,1.34,26.25,25.88,-12.76
2026-07-27 13:09:03.581,-0.28,0.31,1.43,-14.77,7.81,-4.39
2026-07-27 13:09:03.889,-0.28,0.31,1.43,-38.88,11.84,1.16
2026-07-27 13:09:03.890,-0.27,0.23,1.48,-38.88,11.84,1.16
2026-07-27 13:09:03.890,-0.27,0.1,1.42,-28.44,13.85,15.81
2026-07-27 13:09:03.890,-0.27,0.1,1.42,-28.44,13.85,15.81
2026-07-27 13:09:03.891,-0.26,0.02,1.26,-2.5,3.91,31.86
2026-07-27 13:09:03.891,-0.26,0.02,1.26,-2.5,3.91,31.86
2026-07-27 13:09:03.891,-0.24,0.01,1.12,8.24,-9.28,37.84
2026-07-27 13:09:03.891,-0.22,0.03,1.04,-0.92,-20.81,34.85
2026-07-27 13:09:03.891,-0.22,0.03,1.04,-0.92,-20.81,34.85
2026-07-27 13:09:03.891,-0.19,0.05,0.99,-13.79,-26.55,25.02
2026-07-27 13:09:03.892,-0.19,0.05,0.99,-13.79,-26.55,25.02
2026-07-27 13:09:03.892,-0.15,0.06,0.96,-20.69,-24.84,13.37
2026-07-27 13:09:03.892,-0.15,0.06,0.96,-20.69,-24.84,13.37
2026-07-27 13:09:03.936,-0.13,0.07,0.98,-24.41,-19.78,4.46
2026-07-27 13:09:03.937,-0.14,0.05,1.02,-27.89,-13.18,0.55
2026-07-27 13:09:03.937,-0.14,0.05,1.02,-27.89,-13.18,0.55
2026-07-27 13:09:03.996,-0.16,0.02,1.02,-21.61,-7.75,1.1
2026-07-27 13:09:03.998,-0.16,0.02,1.02,-21.61,-7.75,1.1
2026-07-27 13:09:03.998,-0.18,-0.02,1.01,-6.41,-1.28,-0.24
2026-07-27 13:09:04.060,-0.18,-0.02,1.01,-6.41,-1.28,-0.24
2026-07-27 13:09:04.060,-0.18,-0.03,1.01,-5.62,3.54,-6.35
2026-07-27 13:09:04.125,-0.18,-0.03,1.01,-5.62,3.54,-6.35
2026-07-27 13:09:04.130,-0.16,-0.03,1.01,-25.51,-0.31,-8.3
2026-07-27 13:09:04.130,-0.14,-0.04,0.99,-48.83,-1.83,0.12
2026-07-27 13:09:04.176,-0.14,-0.04,0.99,-48.83,-1.83,0.12
2026-07-27 13:09:04.177,-0.12,-0.07,0.97,-64.39,2.01,12.15
2026-07-27 13:09:04.177,-0.12,-0.07,0.97,-64.39,2.01,12.15
2026-07-27 13:09:04.236,-0.12,-0.13,0.97,-66.1,-2.26,12.51
2026-07-27 13:09:04.236,-0.12,-0.13,0.97,-66.1,-2.26,12.51
2026-07-27 13:09:04.296,-0.12,-0.21,1.0,-61.65,-12.88,0.67
2026-07-27 13:09:04.297,-0.14,-0.25,0.99,-59.08,2.38,-0.67
2026-07-27 13:09:04.297,-0.14,-0.25,0.99,-59.08,2.38,-0.67
2026-07-27 13:09:04.355,-0.19,-0.25,0.96,-49.26,33.33,8.0
2026-07-27 13:09:04.356,-0.19,-0.25,0.96,-49.26,33.33,8.0
2026-07-27 13:09:04.356,-0.21,-0.25,0.98,-26.43,36.99,9.03
2026-07-27 13:09:04.418,-0.21,-0.25,0.98,-26.43,36.99,9.03
2026-07-27 13:09:04.418,-0.2,-0.25,1.04,5.37,19.53,5.0
2026-07-27 13:09:04.659,-0.18,-0.23,1.13,44.8,3.78,3.78
2026-07-27 13:09:04.660,-0.18,-0.23,1.13,44.8,3.78,3.78
2026-07-27 13:09:04.660,-0.2,-0.16,1.19,93.57,3.85,7.14
2026-07-27 13:09:04.660,-0.2,-0.16,1.19,93.57,3.85,7.14
2026-07-27 13:09:04.661,-0.26,-0.03,1.15,129.58,14.65,14.77
2026-07-27 13:09:04.661,-0.26,-0.03,1.15,129.58,14.65,14.77
2026-07-27 13:09:04.662,-0.3,0.14,1.11,121.83,2.5,20.63
2026-07-27 13:09:04.662,-0.3,0.14,1.11,121.83,2.5,20.63
2026-07-27 13:09:04.664,-0.24,0.22,1.12,65.0,-41.81,16.05
2026-07-27 13:09:04.664,-0.16,0.14,1.08,-10.5,-64.7,11.29
2026-07-27 13:09:04.664,-0.16,0.14,1.08,-10.5,-64.7,11.29
2026-07-27 13:09:04.721,-0.11,0.06,1.0,-69.21,-50.42,20.87
2026-07-27 13:09:04.722,-0.11,0.06,1.0,-69.21,-50.42,20.87
2026-07-27 13:09:04.723,-0.06,-0.02,0.98,-84.53,-34.85,24.23
2026-07-27 13:09:04.775,-0.06,-0.02,0.98,-84.53,-34.85,24.23
2026-07-27 13:09:04.776,-0.03,-0.08,0.98,-51.03,-18.37,10.38
2026-07-27 13:09:04.897,-0.05,-0.11,0.98,-12.7,1.46,6.23
2026-07-27 13:09:04.898,-0.05,-0.11,0.98,-12.7,1.46,6.23
2026-07-27 13:09:04.898,-0.1,-0.13,1.01,11.72,5.62,19.78
2026-07-27 13:09:04.898,-0.1,-0.13,1.01,11.72,5.62,19.78
2026-07-27 13:09:04.898,-0.08,-0.1,0.95,48.03,-20.57,37.23
2026-07-27 13:09:04.898,-0.08,-0.1,0.95,48.03,-20.57,37.23
2026-07-27 13:09:04.956,-0.01,-0.06,0.82,66.16,-44.74,40.65
2026-07-27 13:09:04.958,0.02,-0.06,0.78,19.59,-23.62,20.08
2026-07-27 13:09:05.016,0.02,-0.06,0.78,19.59,-23.62,20.08
2026-07-27 13:09:05.016,-0.02,-0.1,0.83,-48.89,10.25,-4.09
2026-07-27 13:09:05.016,-0.02,-0.1,0.83,-48.89,10.25,-4.09
2026-07-27 13:09:05.076,-0.05,-0.14,0.87,-65.12,15.69,-10.31
2026-07-27 13:09:05.077,-0.05,-0.14,0.87,-65.12,15.69,-10.31
2026-07-27 13:09:05.077,-0.07,-0.16,0.87,-26.61,6.84,-1.04
2026-07-27 13:09:05.196,-0.06,-0.13,0.88,18.25,6.59,10.19
2026-07-27 13:09:05.197,-0.06,-0.13,0.88,18.25,6.59,10.19
2026-07-27 13:09:05.197,-0.06,-0.08,0.9,37.84,11.84,12.88
2026-07-27 13:09:05.197,-0.06,-0.08,0.9,37.84,11.84,12.88
2026-07-27 13:09:05.198,-0.07,-0.04,0.92,37.29,10.5,11.66
2026-07-27 13:09:05.322,-0.07,-0.04,0.92,37.29,10.5,11.66
2026-07-27 13:09:05.322,-0.06,-0.0,0.95,30.21,2.62,17.88
2026-07-27 13:09:05.323,-0.04,0.05,0.97,20.14,-7.93,23.07
2026-07-27 13:09:05.323,-0.04,0.05,0.97,20.14,-7.93,23.07
2026-07-27 13:09:05.323,-0.03,0.06,0.99,8.12,-14.59,9.4
2026-07-27 13:09:05.376,-0.03,0.06,0.99,8.12,-14.59,9.4
2026-07-27 13:09:05.376,-0.04,0.05,1.01,-0.79,-13.98,-17.82
2026-07-27 13:09:05.377,-0.04,0.05,1.01,-0.79,-13.98,-17.82
2026-07-27 13:09:05.616,-0.04,0.05,1.02,-1.04,-6.77,-44.31
2026-07-27 13:09:05.617,-0.04,0.05,1.02,-1.04,-6.77,-44.31
2026-07-27 13:09:05.617,-0.04,0.04,1.02,17.03,-4.94,-79.47
2026-07-27 13:09:05.618,-0.06,0.08,1.04,43.09,-14.1,-132.63
2026-07-27 13:09:05.618,-0.06,0.08,1.04,43.09,-14.1,-132.63
2026-07-27 13:09:05.618,-0.1,0.12,1.05,18.01,-4.76,-175.29
2026-07-27 13:09:05.619,-0.1,0.12,1.05,18.01,-4.76,-175.29
2026-07-27 13:09:05.619,-0.11,0.05,1.03,-50.35,39.98,-189.51
2026-07-27 13:09:05.620,-0.11,0.05,1.03,-50.35,39.98,-189.51
2026-07-27 13:09:05.620,-0.16,-0.04,0.99,-85.94,91.43,-195.19
2026-07-27 13:09:05.621,-0.22,-0.08,0.96,-62.99,105.65,-200.68
2026-07-27 13:09:05.677,-0.22,-0.08,0.96,-62.99,105.65,-200.68
2026-07-27 13:09:05.677,-0.21,-0.13,0.95,-1.22,69.52,-209.29
2026-07-27 13:09:05.736,-0.21,-0.13,0.95,-1.22,69.52,-209.29
2026-07-27 13:09:05.737,-0.21,-0.16,0.93,50.35,22.58,-243.41
2026-07-27 13:09:05.797,-0.16,-0.14,0.95,65.49,0.06,-298.28
2026-07-27 13:09:05.797,-0.16,-0.14,0.95,65.49,0.06,-298.28
2026-07-27 13:09:05.798,-0.04,-0.15,0.99,49.01,0.0,-312.68
2026-07-27 13:09:05.856,-0.04,-0.15,0.99,49.01,0.0,-312.68
2026-07-27 13:09:05.856,0.01,-0.19,1.0,15.81,9.89,-274.66
2026-07-27 13:09:05.857,0.01,-0.19,1.0,15.81,9.89,-274.66
2026-07-27 13:09:05.922,-0.02,-0.22,0.97,0.61,21.3,-237.92
2026-07-27 13:09:05.924,-0.07,-0.21,0.98,10.68,28.2,-198.61
2026-07-27 13:09:05.976,-0.07,-0.21,0.98,10.68,28.2,-198.61
2026-07-27 13:09:05.976,-0.06,-0.19,0.98,19.17,15.26,-103.39
2026-07-27 13:09:05.977,-0.06,-0.19,0.98,19.17,15.26,-103.39
2026-07-27 13:09:06.036,-0.01,-0.17,0.93,19.41,-12.45,-3.78
2026-07-27 13:09:06.037,-0.01,-0.17,0.93,29.24,-28.69,4.88
2026-07-27 13:09:06.037,0.01,-0.14,0.91,29.24,-28.69,4.88
2026-07-27 13:09:06.096,-0.0,-0.13,0.94,38.57,-24.11,-36.5
2026-07-27 13:09:06.096,-0.0,-0.13,0.94,38.57,-24.11,-36.5
2026-07-27 13:09:06.216,-0.02,-0.13,0.98,28.26,-7.08,-51.88
2026-07-27 13:09:06.217,-0.02,-0.13,0.98,28.26,-7.08,-51.88
2026-07-27 13:09:06.217,-0.04,-0.14,1.01,9.46,9.46,-34.55
2026-07-27 13:09:06.217,-0.04,-0.14,1.01,-4.58,18.01,-5.0
2026-07-27 13:09:06.218,-0.06,-0.13,1.01,-4.58,18.01,-5.0
2026-07-27 13:09:06.218,-0.07,-0.13,1.01,-10.31,17.21,16.6
2026-07-27 13:09:06.276,-0.07,-0.13,1.01,-10.31,17.21,16.6
2026-07-27 13:09:06.276,-0.06,-0.14,1.01,-8.97,10.01,21.18
2026-07-27 13:09:06.337,-0.06,-0.14,1.01,-8.97,10.01,21.18
2026-07-27 13:09:06.337,-0.05,-0.15,1.0,-6.71,2.81,14.89
2026-07-27 13:09:06.337,-0.05,-0.15,1.0,-6.71,2.81,14.89
2026-07-27 13:09:06.396,-0.05,-0.16,0.99,-5.86,0.55,8.12
2026-07-27 13:09:06.397,-0.06,-0.17,0.98,-4.09,2.2,6.23
2026-07-27 13:09:06.397,-0.06,-0.17,0.98,-4.09,2.2,6.23
2026-07-27 13:09:06.459,-0.07,-0.16,0.98,-1.77,3.17,7.57
2026-07-27 13:09:06.459,-0.07,-0.16,0.98,-1.77,3.17,7.57
2026-07-27 13:09:06.636,-0.07,-0.15,0.99,-0.43,1.89,8.3
2026-07-27 13:09:06.636,-0.07,-0.15,0.99,-0.43,1.89,8.3
2026-07-27 13:09:06.637,-0.07,-0.15,0.99,0.98,0.31,7.14
2026-07-27 13:09:06.637,-0.07,-0.15,0.99,0.98,0.31,7.14
2026-07-27 13:09:06.637,-0.08,-0.15,1.0,2.38,0.12,4.15
2026-07-27 13:09:06.637,-0.09,-0.15,1.0,2.26,-0.06,-0.67
2026-07-27 13:09:06.638,-0.09,-0.15,1.0,2.26,-0.06,-0.67
2026-07-27 13:09:06.638,-0.07,-0.15,0.99,1.65,-2.08,-4.09
2026-07-27 13:09:06.639,-0.07,-0.15,0.99,1.65,-2.08,-4.09
2026-07-27 13:09:06.696,-0.06,-0.14,0.99,1.77,-3.85,-3.36
2026-07-27 13:09:06.696,-0.06,-0.14,0.99,1.77,-3.85,-3.36
2026-07-27 13:09:06.819,-0.06,-0.14,0.99,2.32,-3.17,-0.55
2026-07-27 13:09:06.819,-0.06,-0.14,0.99,2.32,-3.17,-0.55
2026-07-27 13:09:06.820,-0.06,-0.14,0.99,2.01,-2.14,1.04
2026-07-27 13:09:06.820,-0.06,-0.14,0.99,0.85,-1.77,0.85
2026-07-27 13:09:06.821,-0.06,-0.15,0.99,0.85,-1.77,0.85
2026-07-27 13:09:06.821,-0.06,-0.15,0.99,0.55,-0.18,0.43
2026-07-27 13:09:06.938,-0.06,-0.15,0.99,0.55,-0.18,0.43
2026-07-27 13:09:06.939,-0.07,-0.14,0.99,1.04,1.53,0.31
2026-07-27 13:09:06.939,-0.07,-0.14,0.99,1.04,1.53,0.31
2026-07-27 13:09:06.940,-0.06,-0.14,0.99,1.4,-0.12,-0.55
2026-07-27 13:09:06.940,-0.06,-0.14,0.99,1.4,-0.12,-0.55
2026-07-27 13:09:07.000,-0.06,-0.14,0.99,1.22,-2.99,-0.79
2026-07-27 13:09:07.000,-0.06,-0.14,0.99,-0.24,-2.75,1.71
2026-07-27 13:09:07.000,-0.06,-0.14,0.99,-0.24,-2.75,1.71
2026-07-27 13:09:07.056,-0.07,-0.15,0.99,-2.32,-0.61,4.94
2026-07-27 13:09:07.057,-0.07,-0.15,0.99,-2.32,-0.61,4.94
2026-07-27 13:09:07.074,-0.07,-0.16,0.99,-2.69,-0.61,5.37
2026-07-27 13:09:07.119,-0.07,-0.16,0.99,-2.69,-0.61,5.37
2026-07-27 13:09:07.119,-0.06,-0.16,0.98,-1.04,-2.44,5.13
2026-07-27 13:09:07.119,-0.06,-0.16,0.98,-1.04,-2.44,5.13
2026-07-27 13:09:07.295,-0.05,-0.16,0.98,-2.14,-3.05,10.86
2026-07-27 13:09:07.296,-0.05,-0.16,0.98,-8.61,-1.71,26.12
2026-07-27 13:09:07.297,-0.06,-0.16,0.98,-8.61,-1.71,26.12
2026-07-27 13:09:07.297,-0.07,-0.18,0.98,-19.59,-0.31,51.57
2026-07-27 13:09:07.297,-0.07,-0.18,0.98,-19.59,-0.31,51.57
2026-07-27 13:09:07.297,-0.07,-0.2,0.97,-36.38,-2.44,89.6
2026-07-27 13:09:07.298,-0.07,-0.2,0.97,-36.38,-2.44,89.6
2026-07-27 13:09:07.298,-0.06,-0.22,0.97,-56.21,-15.2,147.16
2026-07-27 13:09:07.356,-0.06,-0.22,0.97,-56.21,-15.2,147.16
2026-07-27 13:09:07.356,-0.04,-0.25,0.95,-69.34,-43.46,229.8
2026-07-27 13:09:07.656,-0.03,-0.29,0.91,-74.34,-83.13,321.9
2026-07-27 13:09:07.656,-0.03,-0.29,0.91,-74.34,-83.13,321.9
2026-07-27 13:09:07.657,-0.0,-0.35,0.88,-75.32,-123.9,390.69
2026-07-27 13:09:07.657,-0.0,-0.35,0.88,-75.32,-123.9,390.69
2026-07-27 13:09:07.658,0.02,-0.4,0.87,-60.06,-146.48,412.29
2026-07-27 13:09:07.658,0.01,-0.35,0.88,-15.26,-130.62,394.96
2026-07-27 13:09:07.659,0.01,-0.35,0.88,-15.26,-130.62,394.96
2026-07-27 13:09:07.659,0.0,-0.21,0.91,33.75,-86.91,363.77
2026-07-27 13:09:07.660,0.0,-0.21,0.91,33.75,-86.91,363.77
2026-07-27 13:09:07.660,-0.01,-0.12,0.96,53.28,-49.13,332.58
2026-07-27 13:09:07.661,-0.01,-0.12,0.96,53.28,-49.13,332.58
2026-07-27 13:09:07.661,-0.03,-0.05,1.01,46.14,-30.76,288.82
2026-07-27 13:09:07.661,-0.02,-0.02,1.07,30.15,-29.11,202.15
2026-07-27 13:09:07.716,-0.02,-0.02,1.07,30.15,-29.11,202.15
2026-07-27 13:09:07.717,-0.03,-0.02,1.1,21.91,-36.25,89.66
2026-07-27 13:09:07.717,-0.03,-0.02,1.1,21.91,-36.25,89.66
2026-07-27 13:09:07.777,-0.03,-0.0,1.1,22.28,-38.76,13.18
2026-07-27 13:09:07.777,-0.02,0.02,1.08,18.31,-33.45,-4.94
2026-07-27 13:09:07.897,-0.02,0.02,1.08,18.31,-33.45,-4.94
2026-07-27 13:09:07.898,-0.01,0.01,1.05,6.65,-24.6,3.72
2026-07-27 13:09:07.898,-0.01,0.01,1.05,6.65,-24.6,3.72
2026-07-27 13:09:07.898,-0.01,-0.02,1.02,-4.27,-13.12,8.91
2026-07-27 13:09:07.899,-0.01,-0.02,1.02,-4.27,-13.12,8.91
2026-07-27 13:09:07.899,0.0,-0.05,0.99,-6.96,-1.65,4.94
2026-07-27 13:09:07.956,0.01,-0.07,0.98,-4.21,3.78,-1.95
2026-07-27 13:09:07.956,0.01,-0.07,0.98,-4.21,3.78,-1.95
2026-07-27 13:09:08.016,0.01,-0.07,0.98,-0.24,4.46,-5.86
2026-07-27 13:09:08.019,0.01,-0.07,0.98,-0.24,4.46,-5.86
2026-07-27 13:09:08.019,0.01,-0.05,0.99,3.17,3.91,-7.14
2026-07-27 13:09:08.076,0.01,-0.05,0.99,3.17,3.91,-7.14
2026-07-27 13:09:08.077,0.01,-0.04,1.0,4.09,1.16,-6.35
2026-07-27 13:09:08.077,0.01,-0.04,1.0,4.09,1.16,-6.35
2026-07-27 13:09:08.136,0.02,-0.05,1.01,2.5,-3.17,-2.44
2026-07-27 13:09:08.137,0.02,-0.05,1.01,0.55,-5.55,3.3
2026-07-27 13:09:08.198,0.02,-0.05,1.0,0.55,-5.55,3.3
2026-07-27 13:09:08.199,0.02,-0.06,1.0,-0.12,-4.58,7.81
2026-07-27 13:09:08.199,0.02,-0.06,1.0,-0.12,-4.58,7.81
2026-07-27 13:09:08.256,0.02,-0.06,0.99,1.4,-2.56,5.55
2026-07-27 13:09:08.257,0.02,-0.06,0.99,1.4,-2.56,5.55
2026-07-27 13:09:08.257,0.03,-0.06,0.99,3.42,-3.36,-3.05
2026-07-27 13:09:08.318,0.03,-0.06,0.99,3.42,-3.36,-3.05
2026-07-27 13:09:08.318,0.03,-0.06,1.0,3.6,-7.26,-9.7
2026-07-27 13:09:08.376,0.04,-0.05,1.0,1.83,-9.83,-11.11
2026-07-27 13:09:08.377,0.04,-0.05,1.0,1.83,-9.83,-11.11
2026-07-27 13:09:08.377,0.04,-0.05,1.0,-0.18,-7.45,-10.56
2026-07-27 13:09:08.436,0.04,-0.05,1.0,-0.18,-7.45,-10.56
2026-07-27 13:09:08.437,0.04,-0.05,0.99,-1.22,-1.71,-11.23
2026-07-27 13:09:08.437,0.04,-0.05,0.99,-1.22,-1.71,-11.23
2026-07-27 13:09:08.559,0.04,-0.05,0.99,-2.01,3.11,-12.45
2026-07-27 13:09:08.559,0.04,-0.05,0.99,-2.01,3.11,-12.45
2026-07-27 13:09:08.559,0.03,-0.06,0.98,-3.3,7.51,-13.06
2026-07-27 13:09:08.559,0.03,-0.09,0.97,-6.04,13.43,-13.12
2026-07-27 13:09:08.560,0.03,-0.09,0.97,-6.04,13.43,-13.12
2026-07-27 13:09:08.616,0.02,-0.11,0.97,-10.07,18.68,-14.65
2026-07-27 13:09:08.616,0.02,-0.11,0.97,-10.07,18.68,-14.65
2026-07-27 13:09:08.617,0.02,-0.12,0.97,-12.39,19.59,-19.1
2026-07-27 13:09:08.676,0.02,-0.12,0.97,-12.39,19.59,-19.1
2026-07-27 13:09:08.676,0.02,-0.12,0.97,-9.03,12.39,-21.42
2026-07-27 13:09:08.677,0.02,-0.12,0.97,-4.09,-1.22,-17.33
2026-07-27 13:09:08.796,0.03,-0.1,0.97,-4.09,-1.22,-17.33
2026-07-27 13:09:08.796,0.05,-0.09,0.97,-4.88,-13.55,-9.58
2026-07-27 13:09:08.797,0.05,-0.09,0.97,-4.88,-13.55,-9.58
2026-07-27 13:09:08.797,0.07,-0.09,0.96,-7.69,-20.87,-1.22
2026-07-27 13:09:08.797,0.07,-0.09,0.96,-7.69,-20.87,-1.22
2026-07-27 13:09:08.856,0.07,-0.08,0.96,-6.23,-21.85,4.21
2026-07-27 13:09:08.856,0.07,-0.08,0.96,-6.23,-21.85,4.21
2026-07-27 13:09:08.857,0.05,-0.08,0.96,-2.38,-10.8,6.53
2026-07-27 13:09:08.916,0.04,-0.09,0.96,-0.18,11.29,10.93
2026-07-27 13:09:08.917,0.04,-0.09,0.96,-0.18,11.29,10.93
2026-07-27 13:09:08.987,0.04,-0.09,0.95,0.43,27.28,17.03
2026-07-27 13:09:08.988,0.04,-0.09,0.95,0.43,27.28,17.03
2026-07-27 13:09:08.988,0.02,-0.08,0.93,2.93,20.75,19.96
2026-07-27 13:09:09.037,0.02,-0.08,0.93,2.93,20.75,19.96
2026-07-27 13:09:09.037,-0.0,-0.06,0.93,9.28,-3.6,23.68
2026-07-27 13:09:09.096,-0.01,-0.05,0.94,16.48,-24.29,35.58
2026-07-27 13:09:09.156,-0.01,-0.05,0.94,16.48,-24.29,35.58
2026-07-27 13:09:09.160,0.0,-0.03,0.97,22.4,-27.53,48.34
2026-07-27 13:09:09.161,0.0,-0.03,0.97,22.4,-27.53,48.34
2026-07-27 13:09:09.161,0.01,-0.0,1.01,26.49,-19.23,48.34
2026-07-27 13:09:09.161,0.01,-0.0,1.01,26.49,-19.23,48.34
2026-07-27 13:09:09.216,0.01,0.02,1.05,28.69,-9.46,38.27
2026-07-27 13:09:09.217,-0.01,0.05,1.08,33.02,2.26,35.1
2026-07-27 13:09:09.217,-0.01,0.05,1.08,33.02,2.26,35.1
2026-07-27 13:09:09.276,-0.04,0.08,1.08,37.05,21.73,44.68
2026-07-27 13:09:09.278,-0.04,0.08,1.08,37.05,21.73,44.68
2026-07-27 13:09:09.337,-0.08,0.11,1.07,29.72,47.97,57.07
2026-07-27 13:09:09.337,-0.08,0.11,1.07,29.72,47.97,57.07
2026-07-27 13:09:09.338,-0.1,0.1,1.08,11.47,68.24,55.48
2026-07-27 13:09:09.456,-0.11,0.07,1.09,-6.9,67.75,28.87
2026-07-27 13:09:09.456,-0.11,0.07,1.09,-6.9,67.75,28.87
2026-07-27 13:09:09.457,-0.14,0.03,1.06,-23.8,37.35,-8.0
2026-07-27 13:09:09.458,-0.14,0.03,1.06,-23.8,37.35,-8.0
2026-07-27 13:09:09.459,-0.13,0.0,1.02,-34.55,-18.8,-33.87
2026-07-27 13:09:09.516,-0.13,0.0,1.02,-34.55,-18.8,-33.87
2026-07-27 13:09:09.517,-0.08,-0.01,0.99,-31.92,-64.03,-50.17
2026-07-27 13:09:09.517,-0.08,-0.01,0.99,-31.92,-64.03,-50.17
2026-07-27 13:09:09.636,-0.08,-0.01,0.99,-31.92,-64.03,-50.17
2026-07-27 13:09:09.638,-0.08,-0.01,0.99,-31.92,-64.03,-50.17
2026-07-27 13:09:09.638,-0.01,-0.05,0.88,-15.01,-4.7,-72.63
2026-07-27 13:09:09.706,-0.06,-0.08,0.85,-7.45,69.15,-70.13
2026-07-27 13:09:09.706,-0.06,-0.08,0.85,-7.45,69.15,-70.13
2026-07-27 13:09:09.707,-0.21,-0.08,0.87,-0.55,135.86,-69.46
2026-07-27 13:09:09.709,-0.21,-0.08,0.87,-0.55,135.86,-69.46
2026-07-27 13:09:09.709,-0.38,-0.07,0.93,-6.77,150.7,-64.64
2026-07-27 13:09:09.756,-0.48,-0.06,1.0,-20.45,110.29,-35.03
2026-07-27 13:09:09.757,-0.48,-0.06,1.0,-20.45,110.29,-35.03
2026-07-27 13:09:09.816,-0.47,-0.04,1.06,-34.3,30.27,8.12
2026-07-27 13:09:09.817,-0.47,-0.04,1.06,-34.3,30.27,8.12
2026-07-27 13:09:09.817,-0.34,-0.05,1.1,-66.89,-73.61,27.53
2026-07-27 13:09:09.877,-0.34,-0.05,1.1,-66.89,-73.61,27.53
2026-07-27 13:09:09.877,-0.19,-0.15,1.08,-96.13,-146.85,9.22
2026-07-27 13:09:09.878,-0.1,-0.26,0.97,-74.1,-126.53,-18.98
2026-07-27 13:09:09.936,-0.1,-0.26,0.97,-74.1,-126.53,-18.98
2026-07-27 13:09:09.936,-0.11,-0.29,0.9,-15.81,-31.86,-32.78
2026-07-27 13:09:09.997,-0.11,-0.29,0.9,-15.81,-31.86,-32.78
2026-07-27 13:09:09.998,-0.17,-0.26,0.88,37.72,52.12,-39.12
2026-07-27 13:09:09.999,-0.17,-0.26,0.88,78.8,51.51,-46.75
2026-07-27 13:09:10.118,-0.23,-0.18,0.87,78.8,51.51,-46.75
2026-07-27 13:09:10.124,-0.17,-0.11,0.98,100.59,-35.28,-58.53
2026-07-27 13:09:10.125,-0.17,-0.11,0.98,100.59,-35.28,-58.53
2026-07-27 13:09:10.125,-0.04,-0.06,1.14,93.99,-90.45,-72.69
2026-07-27 13:09:10.126,-0.04,-0.06,1.14,93.99,-90.45,-72.69
2026-07-27 13:09:10.176,0.01,-0.03,1.11,78.43,-34.73,-76.17
2026-07-27 13:09:10.178,0.01,0.0,1.04,54.2,37.35,-64.45
2026-07-27 13:09:10.179,0.01,0.0,1.04,54.2,37.35,-64.45
2026-07-27 13:09:10.238,-0.03,0.05,1.03,34.73,59.63,-62.68
2026-07-27 13:09:10.238,-0.03,0.05,1.03,34.73,59.63,-62.68
2026-07-27 13:09:10.297,-0.12,0.05,0.97,22.58,54.14,-70.13
2026-07-27 13:09:10.298,-0.12,0.05,0.97,22.58,54.14,-70.13
2026-07-27 13:09:10.298,-0.17,0.01,0.93,-17.15,26.37,-50.35
2026-07-27 13:09:10.368,-0.12,-0.04,0.97,-69.7,-3.17,-8.42
2026-07-27 13:09:10.369,-0.12,-0.04,0.97,-69.7,-3.17,-8.42
2026-07-27 13:09:10.369,-0.07,-0.08,1.01,-93.38,-12.57,20.63
2026-07-27 13:09:10.418,-0.07,-0.08,1.01,-93.38,-12.57,20.63
2026-07-27 13:09:10.419,-0.07,-0.12,1.0,-85.82,-10.07,23.13
2026-07-27 13:09:10.419,-0.07,-0.12,1.0,-85.82,-10.07,23.13
2026-07-27 13:09:10.476,-0.06,-0.19,1.04,-77.33,-8.0,14.4
2026-07-27 13:09:10.477,-0.08,-0.3,1.1,-83.13,26.18,20.39
2026-07-27 13:09:10.536,-0.08,-0.3,1.1,-83.13,26.18,20.39
2026-07-27 13:09:10.536,-0.24,-0.39,1.08,-77.15,76.23,26.73
2026-07-27 13:09:10.536,-0.24,-0.39,1.08,-77.15,76.23,26.73
2026-07-27 13:09:10.596,-0.39,-0.46,1.08,-50.17,69.09,3.6
2026-07-27 13:09:10.597,-0.39,-0.46,1.08,-50.17,69.09,3.6
2026-07-27 13:09:10.658,-0.4,-0.49,1.06,-21.24,4.27,-19.23
2026-07-27 13:09:10.659,-0.31,-0.46,1.01,10.01,-60.85,-15.26
2026-07-27 13:09:10.659,-0.31,-0.46,1.01,10.01,-60.85,-15.26
2026-07-27 13:09:10.716,-0.2,-0.37,0.95,31.8,-81.12,1.95
2026-07-27 13:09:10.717,-0.2,-0.37,0.95,31.8,-81.12,1.95
2026-07-27 13:09:10.717,-0.12,-0.31,0.88,56.7,-79.35,19.65
2026-07-27 13:09:10.835,-0.12,-0.31,0.88,56.7,-79.35,19.65
2026-07-27 13:09:10.837,-0.04,-0.27,0.81,116.39,-87.16,18.68
2026-07-27 13:09:10.838,0.0,-0.12,0.79,230.22,-94.73,-5.19
2026-07-27 13:09:10.838,0.0,-0.12,0.79,230.22,-94.73,-5.19
2026-07-27 13:09:10.838,0.05,0.24,0.72,430.24,-129.7,-19.78
2026-07-27 13:09:10.959,0.05,0.24,0.72,430.24,-129.7,-19.78
2026-07-27 13:09:10.960,0.2,0.57,0.52,600.59,-156.74,-23.93
2026-07-27 13:09:10.960,0.2,0.57,0.52,600.59,-156.74,-23.93
2026-07-27 13:09:10.960,0.28,0.76,0.24,579.1,-99.18,-19.1
2026-07-27 13:09:10.960,0.26,0.92,0.02,429.63,-21.91,-8.06
2026-07-27 13:09:11.018,0.26,0.92,0.02,429.63,-21.91,-8.06
2026-07-27 13:09:11.019,0.25,0.94,-0.05,253.85,13.79,-5.55
2026-07-27 13:09:11.019,0.25,0.94,-0.05,253.85,13.79,-5.55
2026-07-27 13:09:11.136,0.22,0.93,-0.08,96.01,19.53,-8.18
2026-07-27 13:09:11.136,0.19,0.98,-0.11,2.26,4.58,-17.7
2026-07-27 13:09:11.136,0.19,0.98,-0.11,2.26,4.58,-17.7
2026-07-27 13:09:11.197,0.18,1.01,-0.11,-27.65,-6.16,-21.73
2026-07-27 13:09:11.197,0.18,1.01,-0.11,-27.65,-6.16,-21.73
2026-07-27 13:09:11.198,0.17,1.01,-0.09,-25.82,-0.92,-18.92
2026-07-27 13:09:11.199,0.17,1.01,-0.09,-25.82,-0.92,-18.92
2026-07-27 13:09:11.199,0.14,1.02,-0.04,-18.31,12.21,-16.42
2026-07-27 13:09:11.256,0.14,1.02,-0.04,-18.31,12.21,-16.42
2026-07-27 13:09:11.257,0.12,1.0,-0.01,-8.0,21.97,-10.19
2026-07-27 13:09:11.329,0.11,0.98,0.0,-0.24,20.02,-3.66
2026-07-27 13:09:11.329,0.11,0.98,0.0,-0.24,20.02,-3.66
2026-07-27 13:09:11.436,0.11,0.98,-0.01,-4.58,11.35,-4.52
2026-07-27 13:09:11.436,0.11,0.98,-0.01,-4.58,11.35,-4.52
2026-07-27 13:09:11.436,0.12,0.98,-0.01,-9.34,9.4,-7.57
2026-07-27 13:09:11.437,0.12,0.98,-0.01,-9.34,9.4,-7.57
2026-07-27 13:09:11.437,0.11,0.97,0.01,-4.21,12.57,-7.08
2026-07-27 13:09:11.440,0.11,0.97,0.01,-4.21,12.57,-7.08
2026-07-27 13:09:11.498,0.11,0.97,0.01,-0.49,9.28,-5.8
2026-07-27 13:09:11.498,0.11,0.98,-0.0,-2.44,2.26,-5.55
2026-07-27 13:09:11.498,0.11,0.98,-0.0,-2.44,2.26,-5.55
2026-07-27 13:09:11.556,0.11,0.99,-0.01,-1.71,-1.04,-4.94
2026-07-27 13:09:11.557,0.11,0.99,-0.01,-1.71,-1.04,-4.94
2026-07-27 13:09:11.557,0.1,1.0,-0.02,3.72,0.0,-2.5
2026-07-27 13:09:11.616,0.1,1.0,-0.02,3.72,0.0,-2.5
2026-07-27 13:09:11.617,0.1,0.99,-0.01,8.91,3.72,0.98
2026-07-27 13:09:11.621,0.1,0.99,-0.01,8.91,3.72,0.98
2026-07-27 13:09:11.676,0.1,0.98,-0.01,2.01,3.42,1.16
2026-07-27 13:09:11.677,0.09,1.0,0.02,-24.29,-5.8,-4.58
2026-07-27 13:09:11.746,0.09,1.0,0.02,-24.29,-5.8,-4.58
2026-07-27 13:09:11.746,0.09,1.01,0.1,-81.73,-22.16,-14.1
2026-07-27 13:09:11.747,0.09,1.01,0.1,-81.73,-22.16,-14.1
2026-07-27 13:09:11.796,0.09,1.0,0.21,-177.31,-39.31,-22.89
2026-07-27 13:09:11.797,0.08,0.95,0.41,-284.67,-42.11,-22.89
2026-07-27 13:09:11.858,0.08,0.95,0.41,-284.67,-42.11,-22.89
2026-07-27 13:09:11.858,0.07,0.79,0.62,-374.63,-25.39,-12.15
2026-07-27 13:09:11.858,0.07,0.79,0.62,-374.63,-25.39,-12.15
2026-07-27 13:09:11.916,0.06,0.52,0.8,-414.86,1.04,-5.25
2026-07-27 13:09:11.917,0.06,0.52,0.8,-414.86,1.04,-5.25
2026-07-27 13:09:11.917,0.04,0.26,0.92,-392.76,23.93,-22.71
2026-07-27 13:09:11.976,0.03,0.05,0.99,-334.53,35.89,-51.45
2026-07-27 13:09:11.977,0.03,0.05,0.99,-334.53,35.89,-51.45
2026-07-27 13:09:12.037,-0.01,-0.12,1.04,-237.92,32.65,-47.55
2026-07-27 13:09:12.038,-0.01,-0.12,1.04,-237.92,32.65,-47.55
2026-07-27 13:09:12.038,-0.02,-0.2,1.03,-100.52,5.86,-15.2
2026-07-27 13:09:12.097,0.04,-0.16,0.96,19.29,-28.69,3.05
2026-07-27 13:09:12.098,0.04,-0.16,0.96,19.29,-28.69,3.05
2026-07-27 13:09:12.158,0.07,-0.08,0.94,55.97,-34.79,0.31
2026-07-27 13:09:12.158,0.07,-0.08,0.94,55.97,-34.79,0.31
2026-07-27 13:09:12.158,0.05,-0.05,0.98,18.49,-10.93,-9.28
2026-07-27 13:09:12.216,0.05,-0.05,0.98,18.49,-10.93,-9.28
2026-07-27 13:09:12.217,0.03,-0.06,1.01,-21.61,8.18,-15.44
2026-07-27 13:09:12.218,0.03,-0.06,1.01,-19.29,5.68,-11.47
2026-07-27 13:09:12.276,0.03,-0.09,1.0,-19.29,5.68,-11.47
2026-07-27 13:09:12.277,0.05,-0.11,0.98,4.15,-3.36,-3.66
2026-07-27 13:09:12.337,0.05,-0.11,0.98,4.15,-3.36,-3.66
2026-07-27 13:09:12.338,0.06,-0.09,0.99,21.18,-3.6,-0.31
2026-07-27 13:09:12.338,0.06,-0.09,0.99,21.18,-3.6,-0.31
2026-07-27 13:09:12.396,0.05,-0.01,1.02,37.05,0.85,4.46
2026-07-27 13:09:12.396,0.05,-0.01,1.02,37.05,0.85,4.46
2026-07-27 13:09:12.396,0.05,0.07,1.04,58.72,-2.81,13.49
2026-07-27 13:09:12.516,0.07,0.12,1.06,69.64,-15.93,32.53
2026-07-27 13:09:12.517,0.07,0.12,1.06,69.64,-15.93,32.53
2026-07-27 13:09:12.518,0.07,0.08,1.04,14.83,-15.93,65.43
2026-07-27 13:09:12.518,0.07,0.08,1.04,14.83,-15.93,65.43
2026-07-27 13:09:12.519,0.05,-0.04,0.99,-61.34,1.28,90.82
2026-07-27 13:09:12.576,0.05,-0.04,0.99,-61.34,1.28,90.82
2026-07-27 13:09:12.577,0.04,-0.09,0.99,-38.76,-2.75,81.91
2026-07-27 13:09:12.638,0.08,-0.05,0.99,38.7,-30.64,36.25
2026-07-27 13:09:12.638,0.08,-0.05,0.99,38.7,-30.64,36.25
2026-07-27 13:09:12.639,0.14,0.03,1.0,61.4,-37.96,-16.24
2026-07-27 13:09:12.696,0.14,0.03,1.0,61.4,-37.96,-16.24
2026-07-27 13:09:12.697,0.14,0.08,1.02,39.98,-19.59,-33.45
2026-07-27 13:09:12.697,0.14,0.08,1.02,39.98,-19.59,-33.45
2026-07-27 13:09:12.758,0.11,0.1,1.02,17.76,-2.56,-22.4
2026-07-27 13:09:12.758,0.08,0.06,1.0,-25.51,13.37,-24.84
2026-07-27 13:09:12.759,0.08,0.06,1.0,-25.51,13.37,-24.84
2026-07-27 13:09:12.816,0.05,-0.01,0.98,-110.23,38.94,-52.43
2026-07-27 13:09:12.817,0.05,-0.01,0.98,-110.23,38.94,-52.43
2026-07-27 13:09:12.877,0.0,-0.09,0.97,-191.1,57.68,-85.63
2026-07-27 13:09:12.877,0.0,-0.09,0.97,-191.1,57.68,-85.63
2026-07-27 13:09:12.878,-0.02,-0.19,0.98,-236.21,41.14,-115.84
2026-07-27 13:09:12.937,0.11,-0.38,0.84,-276.31,-7.2,-144.9
2026-07-27 13:09:12.945,0.11,-0.38,0.84,-276.31,-7.2,-144.9
2026-07-27 13:09:12.996,0.25,-0.65,0.6,-321.23,-24.05,-132.57
2026-07-27 13:09:13.013,0.25,-0.65,0.6,-321.23,-24.05,-132.57
2026-07-27 13:09:13.013,0.24,-0.85,0.45,-329.96,21.85,-75.2
2026-07-27 13:09:13.116,0.16,-0.95,0.38,-276.98,67.44,-24.29
2026-07-27 13:09:13.117,0.16,-0.95,0.38,-276.98,67.44,-24.29
2026-07-27 13:09:13.117,0.1,-0.99,0.33,-198.67,68.42,2.26
2026-07-27 13:09:13.118,0.1,-0.99,0.33,-198.67,68.42,2.26
2026-07-27 13:09:13.118,0.1,-1.02,0.26,-120.06,33.08,12.21
2026-07-27 13:09:13.236,0.1,-1.02,0.26,-120.06,33.08,12.21
2026-07-27 13:09:13.237,0.14,-1.01,0.19,-46.08,-11.66,12.57
2026-07-27 13:09:13.237,0.18,-0.97,0.17,4.39,-34.24,8.91
2026-07-27 13:09:13.238,0.18,-0.97,0.17,4.39,-34.24,8.91
2026-07-27 13:09:13.238,0.16,-0.95,0.19,20.63,-25.51,8.73
2026-07-27 13:09:13.238,0.16,-0.95,0.19,20.63,-25.51,8.73
2026-07-27 13:09:13.296,0.1,-0.97,0.24,13.06,-6.41,11.35
2026-07-27 13:09:13.296,0.1,-0.97,0.24,13.06,-6.41,11.35
2026-07-27 13:09:13.357,0.08,-0.97,0.26,5.0,2.08,11.23
2026-07-27 13:09:13.357,0.08,-0.97,0.26,0.85,2.62,10.07
2026-07-27 13:09:13.357,0.09,-0.95,0.26,0.85,2.62,10.07
2026-07-27 13:09:13.429,0.1,-0.96,0.24,-3.05,0.92,11.11
2026-07-27 13:09:13.429,0.1,-0.96,0.24,-3.05,0.92,11.11
2026-07-27 13:09:13.429,0.09,-0.99,0.24,-3.17,-1.46,12.33
2026-07-27 13:09:13.476,0.09,-0.99,0.24,-3.17,-1.46,12.33
2026-07-27 13:09:13.476,0.07,-1.01,0.23,0.0,-3.6,12.02
2026-07-27 13:09:13.536,0.07,-1.01,0.23,0.0,-3.6,12.02
2026-07-27 13:09:13.536,0.06,-0.99,0.23,4.58,-5.86,9.16
2026-07-27 13:09:13.537,0.07,-0.96,0.24,9.46,-5.49,4.82
2026-07-27 13:09:13.596,0.07,-0.96,0.24,9.46,-5.49,4.82
2026-07-27 13:09:13.597,0.07,-0.95,0.25,11.41,-2.81,2.62
2026-07-27 13:09:13.597,0.07,-0.95,0.25,11.41,-2.81,2.62
2026-07-27 13:09:13.656,0.07,-0.97,0.25,16.72,-6.53,5.43
2026-07-27 13:09:13.657,0.07,-0.97,0.25,16.72,-6.53,5.43
2026-07-27 13:09:13.725,0.07,-1.0,0.26,36.5,-18.07,14.83
2026-07-27 13:09:13.727,0.07,-1.0,0.26,90.52,-30.82,30.09
2026-07-27 13:09:13.728,0.07,-1.03,0.32,90.52,-30.82,30.09
2026-07-27 13:09:13.776,0.05,-0.9,0.51,242.8,-58.47,52.92
2026-07-27 13:09:13.776,0.05,-0.9,0.51,242.8,-58.47,52.92
2026-07-27 13:09:13.897,0.03,-0.59,0.75,431.82,-95.89,69.52
2026-07-27 13:09:13.898,0.07,-0.36,0.89,428.77,-82.09,60.06
2026-07-27 13:09:13.898,0.07,-0.36,0.89,428.77,-82.09,60.06
2026-07-27 13:09:13.957,0.04,-0.21,0.99,290.16,-22.58,54.02
2026-07-27 13:09:13.957,0.04,-0.21,0.99,290.16,-22.58,54.02
2026-07-27 13:09:13.957,0.01,-0.03,1.03,232.6,-0.79,69.95
2026-07-27 13:09:13.957,0.01,-0.03,1.03,232.6,-0.79,69.95
2026-07-27 13:09:13.957,0.06,0.11,0.97,212.34,-15.32,69.52
2026-07-27 13:09:14.017,0.08,0.2,0.95,136.96,-11.96,39.06
2026-07-27 13:09:14.017,0.08,0.2,0.95,136.96,-11.96,39.06
2026-07-27 13:09:14.018,0.07,0.19,0.97,36.07,4.15,1.46
2026-07-27 13:09:14.136,0.07,0.19,0.97,36.07,4.15,1.46
2026-07-27 13:09:14.141,0.06,0.14,0.98,-32.71,13.61,-24.84
2026-07-27 13:09:14.141,0.06,0.14,0.98,-32.71,13.61,-24.84
2026-07-27 13:09:14.142,0.04,0.1,0.99,-51.09,16.42,-31.31
2026-07-27 13:09:14.142,0.03,0.07,1.0,-34.55,11.47,-21.3
2026-07-27 13:09:14.198,0.03,0.07,1.0,-34.55,11.47,-21.3
2026-07-27 13:09:14.198,0.03,0.06,1.0,-12.57,3.48,-9.46
2026-07-27 13:09:14.199,0.03,0.06,1.0,-12.57,3.48,-9.46
2026-07-27 13:09:14.256,0.02,0.07,1.01,-0.55,-2.44,-3.85
2026-07-27 13:09:14.256,0.02,0.07,1.01,-0.55,-2.44,-3.85
2026-07-27 13:09:14.319,0.03,0.09,1.03,4.76,-10.07,-3.23
2026-07-27 13:09:14.319,0.04,0.09,1.07,7.45,-23.32,-6.71
2026-07-27 13:09:14.319,0.04,0.09,1.07,7.45,-23.32,-6.71
2026-07-27 13:09:14.436,0.05,0.09,1.13,6.47,-44.49,-10.56
2026-07-27 13:09:14.438,0.05,0.09,1.13,6.47,-44.49,-10.56
2026-07-27 13:09:14.438,0.06,0.13,1.2,4.76,-84.35,-13.67
2026-07-27 13:09:14.438,0.06,0.13,1.2,4.76,-84.35,-13.67
2026-07-27 13:09:14.448,0.15,0.16,1.17,22.4,-163.27,-15.93
2026-07-27 13:09:14.496,0.15,0.16,1.17,68.18,-273.38,-8.18
2026-07-27 13:09:14.497,0.36,0.18,0.97,68.18,-273.38,-8.18
2026-07-27 13:09:14.497,0.59,0.17,0.71,99.12,-342.1,10.01
2026-07-27 13:09:14.566,0.59,0.17,0.71,99.12,-342.1,10.01
2026-07-27 13:09:14.566,0.72,0.17,0.5,72.14,-318.42,19.35
2026-07-27 13:09:14.567,0.72,0.17,0.5,72.14,-318.42,19.35
2026-07-27 13:09:14.617,0.79,0.21,0.3,-0.92,-248.17,-0.43
2026-07-27 13:09:14.617,0.88,0.25,0.15,-67.5,-187.26,-43.76
2026-07-27 13:09:14.856,0.88,0.25,0.15,-67.5,-187.26,-43.76
2026-07-27 13:09:14.861,0.94,0.26,0.17,-78.92,-132.57,-71.59
2026-07-27 13:09:14.861,0.94,0.26,0.17,-78.92,-132.57,-71.59
2026-07-27 13:09:14.861,0.92,0.25,0.26,-37.41,-79.22,-65.0
2026-07-27 13:09:14.861,0.92,0.25,0.26,-37.41,-79.22,-65.0
2026-07-27 13:09:14.862,0.85,0.29,0.22,14.47,-51.03,-46.94
2026-07-27 13:09:14.862,0.82,0.35,0.05,37.17,-44.43,-31.68
2026-07-27 13:09:14.862,0.82,0.35,0.05,37.17,-44.43,-31.68
2026-07-27 13:09:14.862,0.85,0.39,-0.06,24.54,-28.44,-17.52
2026-07-27 13:09:14.863,0.85,0.39,-0.06,24.54,-28.44,-17.52
2026-07-27 13:09:14.863,0.92,0.41,0.06,4.7,5.92,-7.02
2026-07-27 13:09:14.981,0.92,0.41,0.06,4.7,5.92,-7.02
2026-07-27 13:09:14.982,0.95,0.42,0.25,-1.46,34.3,-3.3
2026-07-27 13:09:14.982,0.93,0.41,0.34,-1.95,37.35,-0.85
2026-07-27 13:09:14.983,0.93,0.41,0.34,-1.95,37.35,-0.85
2026-07-27 13:09:14.984,0.9,0.37,0.31,-5.74,24.72,4.21
2026-07-27 13:09:15.036,0.9,0.37,0.31,-5.74,24.72,4.21
2026-07-27 13:09:15.036,0.9,0.35,0.26,-9.28,14.47,7.57
2026-07-27 13:09:15.037,0.9,0.35,0.26,-9.28,14.47,7.57
2026-07-27 13:09:15.096,0.92,0.36,0.25,-12.45,15.99,8.3
2026-07-27 13:09:15.096,0.92,0.36,0.25,-22.03,29.17,8.3
2026-07-27 13:09:15.216,0.95,0.34,0.23,-22.03,29.17,8.3
2026-07-27 13:09:15.217,0.96,0.33,0.26,-39.86,57.86,5.8
2026-07-27 13:09:15.217,0.96,0.33,0.26,-39.86,57.86,5.8
2026-07-27 13:09:15.218,0.94,0.31,0.31,-52.31,109.74,6.9
2026-07-27 13:09:15.218,0.94,0.31,0.31,-52.31,109.74,6.9
2026-07-27 13:09:15.219,0.85,0.28,0.34,-43.7,199.65,25.09
2026-07-27 13:09:15.278,0.63,0.28,0.41,-1.53,330.08,55.42
2026-07-27 13:09:15.279,0.63,0.28,0.41,-1.53,330.08,55.42
2026-07-27 13:09:15.336,0.27,0.31,0.54,47.12,435.55,94.06
2026-07-27 13:09:15.337,0.27,0.31,0.54,47.12,435.55,94.06
2026-07-27 13:09:15.337,-0.16,0.27,0.8,31.56,460.51,133.18
2026-07-27 13:09:15.405,-0.16,0.27,0.8,31.56,460.51,133.18
2026-07-27 13:09:15.405,-0.49,0.17,1.13,-37.72,416.02,128.3
2026-07-27 13:09:15.457,-0.62,0.19,1.3,-61.04,317.69,68.3
2026-07-27 13:09:15.457,-0.62,0.19,1.3,-61.04,317.69,68.3
2026-07-27 13:09:15.458,-0.55,0.27,1.23,-28.93,175.9,8.85
2026-07-27 13:09:15.580,-0.55,0.27,1.23,-28.93,175.9,8.85
2026-07-27 13:09:15.580,-0.33,0.23,0.95,-5.8,39.0,-6.23
2026-07-27 13:09:15.580,-0.33,0.23,0.95,-5.8,39.0,-6.23
2026-07-27 13:09:15.581,-0.19,0.12,0.74,-2.87,-22.77,7.39
2026-07-27 13:09:15.581,-0.24,0.09,0.75,-0.98,-12.94,9.64
2026-07-27 13:09:15.581,-0.24,0.09,0.75,-0.98,-12.94,9.64
2026-07-27 13:09:15.696,-0.36,0.12,0.88,4.15,4.82,0.37
2026-07-27 13:09:15.697,-0.36,0.12,0.88,4.15,4.82,0.37
2026-07-27 13:09:15.697,-0.43,0.12,0.95,2.87,1.34,-0.06
2026-07-27 13:09:15.697,-0.43,0.12,0.95,2.87,1.34,-0.06
2026-07-27 13:09:15.698,-0.41,0.12,0.95,-2.08,-7.08,1.4
2026-07-27 13:09:15.756,-0.38,0.15,0.94,-7.02,-5.55,-3.97
2026-07-27 13:09:15.758,-0.38,0.15,0.94,-7.02,-5.55,-3.97
2026-07-27 13:09:15.816,-0.35,0.18,0.93,-11.78,3.42,-7.45
2026-07-27 13:09:15.816,-0.35,0.18,0.93,-11.78,3.42,-7.45
2026-07-27 13:09:15.816,-0.35,0.17,0.92,-13.79,13.12,-1.71
2026-07-27 13:09:15.938,-0.35,0.17,0.92,-13.79,13.12,-1.71
2026-07-27 13:09:15.995,-0.37,0.14,0.92,-11.17,17.76,7.75
2026-07-27 13:09:15.996,-0.37,0.14,0.92,-5.55,15.08,8.61
2026-07-27 13:09:15.996,-0.39,0.11,0.91,-5.55,15.08,8.61
2026-07-27 13:09:15.997,-0.41,0.11,0.91,-1.22,11.6,1.1
2026-07-27 13:09:15.997,-0.41,0.11,0.91,-1.22,11.6,1.1
2026-07-27 13:09:15.997,-0.42,0.11,0.92,-3.05,12.02,-6.1
2026-07-27 13:09:15.998,-0.42,0.11,0.92,-3.05,12.02,-6.1
2026-07-27 13:09:16.056,-0.4,0.12,0.9,-11.47,7.32,-11.72
2026-07-27 13:09:16.056,-0.4,0.12,0.9,-11.47,7.32,-11.72
2026-07-27 13:09:16.057,-0.37,0.11,0.9,-26.37,-12.57,-16.24
2026-07-27 13:09:16.176,-0.37,0.11,0.9,-26.37,-12.57,-16.24
2026-07-27 13:09:16.177,-0.37,0.11,0.9,-26.37,-12.57,-16.24
2026-07-27 13:09:16.177,-0.37,0.11,0.9,-26.37,-12.57,-16.24
2026-07-27 13:09:16.178,-0.3,0.03,0.96,-37.66,-91.92,-15.93
2026-07-27 13:09:16.178,-0.2,0.02,0.97,-13.37,-129.82,-29.17
2026-07-27 13:09:16.178,-0.2,0.02,0.97,-13.37,-129.82,-29.17
2026-07-27 13:09:16.243,-0.09,0.02,0.97,14.83,-151.92,-32.65
2026-07-27 13:09:16.243,-0.09,0.02,0.97,14.83,-151.92,-32.65
2026-07-27 13:09:16.362,0.02,0.03,0.96,26.67,-142.15,-15.93
2026-07-27 13:09:16.362,0.02,0.03,0.96,26.67,-142.15,-15.93
2026-07-27 13:09:16.362,0.07,0.03,0.95,14.71,-96.5,-3.11
2026-07-27 13:09:16.362,0.09,0.05,0.94,-1.89,-50.48,-7.69
2026-07-27 13:09:16.362,0.09,0.05,0.94,-1.89,-50.48,-7.69
2026-07-27 13:09:16.476,0.1,0.07,0.92,-2.01,-29.85,-21.48
2026-07-27 13:09:16.477,0.1,0.07,0.92,-2.01,-29.85,-21.48
2026-07-27 13:09:16.477,0.1,0.07,0.88,9.52,-23.56,-27.04
2026-07-27 13:09:16.478,0.1,0.07,0.88,9.52,-23.56,-27.04
2026-07-27 13:09:16.478,0.11,0.05,0.81,21.36,-19.04,-22.34
2026-07-27 13:09:16.479,0.13,0.06,0.75,36.01,-10.5,-20.94
2026-07-27 13:09:16.536,0.13,0.06,0.75,36.01,-10.5,-20.94
2026-07-27 13:09:16.537,0.12,0.09,0.71,49.13,8.18,-23.5
2026-07-27 13:09:16.596,0.12,0.09,0.71,49.13,8.18,-23.5
2026-07-27 13:09:16.596,0.11,0.17,0.68,57.98,34.06,-26.67
2026-07-27 13:09:16.597,0.11,0.17,0.68,57.98,34.06,-26.67
2026-07-27 13:09:16.656,0.09,0.25,0.64,70.8,55.79,-26.92
2026-07-27 13:09:16.657,0.03,0.28,0.64,81.3,74.52,-16.17
2026-07-27 13:09:16.657,0.03,0.28,0.64,81.3,74.52,-16.17
2026-07-27 13:09:16.719,-0.06,0.2,0.63,85.57,90.88,-2.38
2026-07-27 13:09:16.719,-0.06,0.2,0.63,85.57,90.88,-2.38
2026-07-27 13:09:16.836,-0.19,0.11,0.59,84.35,103.27,3.42
2026-07-27 13:09:16.836,-0.19,0.11,0.59,63.05,133.42,-25.63
2026-07-27 13:09:16.837,-0.34,0.27,0.68,63.05,133.42,-25.63
2026-07-27 13:09:16.837,-0.67,0.68,1.09,52.37,168.64,-74.77
2026-07-27 13:09:16.837,-0.67,0.68,1.09,52.37,168.64,-74.77
2026-07-27 13:09:16.896,-1.0,1.01,1.45,90.76,154.3,-82.95
2026-07-27 13:09:16.897,-1.0,1.01,1.45,90.76,154.3,-82.95
2026-07-27 13:09:16.897,-1.01,1.02,1.42,96.98,80.99,-42.3
2026-07-27 13:09:16.956,-0.79,0.85,1.23,47.24,24.29,1.34
2026-07-27 13:09:16.956,-0.79,0.85,1.23,47.24,24.29,1.34
2026-07-27 13:09:16.957,-0.54,0.62,0.91,6.16,15.99,14.16
2026-07-27 13:09:17.076,-0.54,0.62,0.91,6.16,15.99,14.16
2026-07-27 13:09:17.076,-0.38,0.39,0.55,-6.84,5.68,20.39
2026-07-27 13:09:17.077,-0.38,0.39,0.55,-6.84,5.68,20.39
2026-07-27 13:09:17.077,-0.36,0.37,0.41,6.53,-18.13,43.52
2026-07-27 13:09:17.077,-0.36,0.37,0.41,6.53,-18.13,43.52
2026-07-27 13:09:17.136,-0.43,0.54,0.49,26.06,-37.35,70.37
2026-07-27 13:09:17.136,-0.42,0.72,0.55,48.52,-49.93,81.91
2026-07-27 13:09:17.137,-0.42,0.72,0.55,48.52,-49.93,81.91
2026-07-27 13:09:17.196,-0.33,0.76,0.54,60.0,-49.87,73.24
2026-07-27 13:09:17.196,-0.33,0.76,0.54,60.0,-49.87,73.24
2026-07-27 13:09:17.256,-0.27,0.69,0.58,40.34,-32.78,51.39
2026-07-27 13:09:17.256,-0.27,0.69,0.58,12.45,-21.3,28.44
2026-07-27 13:09:17.256,-0.25,0.65,0.64,12.45,-21.3,28.44
2026-07-27 13:09:17.319,-0.21,0.67,0.7,0.43,-25.94,12.27
2026-07-27 13:09:17.319,-0.21,0.67,0.7,0.43,-25.94,12.27
2026-07-27 13:09:17.320,-0.19,0.7,0.72,-20.45,-35.64,6.53
2026-07-27 13:09:17.376,-0.19,0.7,0.72,-20.45,-35.64,6.53
2026-07-27 13:09:17.376,-0.2,0.67,0.69,-71.72,-42.85,15.75
2026-07-27 13:09:17.440,-0.2,0.67,0.69,-191.41,-83.74,48.03
2026-07-27 13:09:17.442,-0.11,0.51,0.74,-191.41,-83.74,48.03
2026-07-27 13:09:17.442,0.05,0.34,0.92,-308.59,-144.84,62.32
2026-07-27 13:09:17.498,0.05,0.34,0.92,-308.59,-144.84,62.32
2026-07-27 13:09:17.499,0.08,0.25,1.03,-247.56,-108.15,30.52
2026-07-27 13:09:17.499,0.08,0.25,1.03,-247.56,-108.15,30.52
2026-07-27 13:09:17.556,-0.01,0.24,1.0,-79.71,-1.53,-4.33
2026-07-27 13:09:17.556,-0.07,0.25,0.96,14.65,51.33,-18.86
2026-07-27 13:09:17.736,-0.07,0.25,0.96,14.65,51.33,-18.86
2026-07-27 13:09:17.737,-0.03,0.24,0.96,16.97,45.78,-17.76
2026-07-27 13:09:17.737,-0.03,0.24,0.96,16.97,45.78,-17.76
2026-07-27 13:09:17.737,-0.02,0.19,0.97,-12.57,34.55,-8.18
2026-07-27 13:09:17.738,-0.02,0.19,0.97,-12.57,34.55,-8.18
2026-07-27 13:09:17.739,-0.06,0.16,0.97,-26.79,24.6,-3.72
2026-07-27 13:09:17.739,-0.09,0.17,0.97,-23.13,2.26,-11.78
2026-07-27 13:09:17.740,-0.09,0.17,0.97,-23.13,2.26,-11.78
2026-07-27 13:09:17.863,-0.08,0.17,0.99,-16.54,-16.05,-22.58
2026-07-27 13:09:17.865,-0.08,0.17,0.99,-16.54,-16.05,-22.58
2026-07-27 13:09:17.865,-0.05,0.15,0.99,-11.96,-24.41,-26.49
2026-07-27 13:09:17.866,-0.02,0.13,0.99,-8.85,-28.08,-22.52
2026-07-27 13:09:17.866,-0.02,0.13,0.99,-8.85,-28.08,-22.52
2026-07-27 13:09:17.916,0.0,0.13,0.99,-6.41,-27.04,-12.88
2026-07-27 13:09:17.920,0.0,0.13,0.99,-6.41,-27.04,-12.88
2026-07-27 13:09:17.921,0.01,0.13,1.0,-4.82,-25.51,-2.32
2026-07-27 13:09:17.976,0.01,0.13,1.0,-4.82,-25.51,-2.32
2026-07-27 13:09:17.976,0.02,0.13,0.98,-3.66,-25.94,3.05
2026-07-27 13:09:18.096,0.03,0.13,0.98,-1.89,-21.18,0.92
2026-07-27 13:09:18.096,0.03,0.13,0.98,-1.89,-21.18,0.92
2026-07-27 13:09:18.096,0.04,0.13,0.99,0.31,-12.7,-4.33
2026-07-27 13:09:18.097,0.04,0.13,0.99,0.31,-12.7,-4.33
2026-07-27 13:09:18.097,0.05,0.13,1.0,1.16,-8.12,-8.06
2026-07-27 13:09:18.097,0.05,0.13,1.0,1.16,-8.12,-8.06
2026-07-27 13:09:18.157,0.06,0.13,1.0,-1.89,-7.14,-9.95
2026-07-27 13:09:18.157,0.06,0.13,1.0,-1.89,-7.14,-9.95
2026-07-27 13:09:18.282,0.06,0.13,1.0,-7.08,-5.25,-10.5
2026-07-27 13:09:18.283,0.06,0.12,0.99,-10.5,-1.1,-10.62
2026-07-27 13:09:18.283,0.06,0.12,0.99,-10.5,-1.1,-10.62
2026-07-27 13:09:18.284,0.05,0.11,0.98,-10.19,1.71,-11.17
2026-07-27 13:09:18.284,0.05,0.11,0.98,-10.19,1.71,-11.17
2026-07-27 13:09:18.284,0.05,0.1,0.99,-6.77,1.22,-12.51
2026-07-27 13:09:18.336,0.05,0.1,0.99,-6.77,1.22,-12.51
2026-07-27 13:09:18.338,0.05,0.11,1.0,-3.3,0.43,-15.32
2026-07-27 13:09:18.338,0.05,0.11,1.0,0.24,-0.85,-19.41
2026-07-27 13:09:18.396,0.05,0.1,1.0,0.24,-0.85,-19.41
2026-07-27 13:09:18.397,0.05,0.1,0.99,4.21,-3.54,-21.85
2026-07-27 13:09:18.458,0.05,0.1,0.99,4.21,-3.54,-21.85
2026-07-27 13:09:18.460,0.05,0.11,0.99,5.31,-6.16,-20.32
2026-07-27 13:09:18.460,0.05,0.11,0.99,5.31,-6.16,-20.32
2026-07-27 13:09:18.576,0.06,0.11,0.99,2.75,-8.61,-16.66
2026-07-27 13:09:18.577,0.06,0.11,0.99,2.75,-8.61,-16.66
2026-07-27 13:09:18.577,0.06,0.11,0.99,-0.18,-10.01,-13.55
2026-07-27 13:09:18.578,0.07,0.11,0.99,-0.79,-7.57,-12.57
2026-07-27 13:09:18.578,0.07,0.11,0.99,-0.79,-7.57,-12.57
2026-07-27 13:09:18.636,0.07,0.11,0.99,-0.18,-4.46,-15.01
2026-07-27 13:09:18.638,0.07,0.11,0.99,-0.18,-4.46,-15.01
2026-07-27 13:09:18.638,0.07,0.11,0.99,-0.73,-4.21,-19.84
2026-07-27 13:09:18.709,0.07,0.11,0.99,-0.73,-4.21,-19.84
2026-07-27 13:09:18.710,0.06,0.12,0.99,-2.56,-4.52,-26.37
2026-07-27 13:09:18.710,0.06,0.12,0.99,-3.48,-7.69,-36.38
2026-07-27 13:09:18.816,0.06,0.11,1.0,-3.48,-7.69,-36.38
2026-07-27 13:09:18.820,0.07,0.11,0.99,-2.69,-16.78,-44.62
2026-07-27 13:09:18.821,0.07,0.11,0.99,-2.69,-16.78,-44.62
2026-07-27 13:09:18.821,0.09,0.11,0.99,-2.44,-22.64,-45.1
2026-07-27 13:09:18.821,0.09,0.11,0.99,-2.44,-22.64,-45.1
2026-07-27 13:09:18.936,0.1,0.11,0.99,-2.93,-18.92,-39.37
2026-07-27 13:09:18.937,0.1,0.11,0.99,-3.11,-12.88,-34.42
2026-07-27 13:09:18.937,0.1,0.11,0.99,-3.11,-12.88,-34.42
2026-07-27 13:09:18.938,0.11,0.11,1.0,-1.46,-10.74,-34.79
2026-07-27 13:09:18.938,0.11,0.11,1.0,-1.46,-10.74,-34.79
2026-07-27 13:09:18.998,0.12,0.11,1.0,3.3,-14.65,-34.91
2026-07-27 13:09:18.998,0.12,0.11,1.0,3.3,-14.65,-34.91
2026-07-27 13:09:18.998,0.14,0.12,0.99,9.64,-25.15,-30.88
2026-07-27 13:09:19.126,0.14,0.12,0.99,9.64,-25.15,-30.88
2026-07-27 13:09:19.126,0.16,0.14,0.98,16.36,-36.93,-25.02
2026-07-27 13:09:19.126,0.18,0.16,0.97,19.9,-43.46,-19.47
2026-07-27 13:09:19.126,0.18,0.16,0.97,19.9,-43.46,-19.47
2026-07-27 13:09:19.127,0.21,0.17,0.97,17.15,-41.08,-13.55
2026-07-27 13:09:19.177,0.21,0.17,0.97,17.15,-41.08,-13.55
2026-07-27 13:09:19.177,0.23,0.17,0.97,12.88,-28.93,-5.98
2026-07-27 13:09:19.178,0.23,0.17,0.97,12.88,-28.93,-5.98
2026-07-27 13:09:19.236,0.24,0.17,0.96,11.35,-13.43,1.1
2026-07-27 13:09:19.237,0.3,0.18,0.96,12.27,12.27,10.8
2026-07-27 13:09:19.237,0.3,0.18,0.96,12.27,12.27,10.8
2026-07-27 13:09:19.296,0.23,0.2,0.96,17.76,78.37,42.97
2026-07-27 13:09:19.296,0.23,0.2,0.96,17.76,78.37,42.97
2026-07-27 13:09:19.356,0.02,0.24,0.96,22.77,136.66,76.11
2026-07-27 13:09:19.357,0.02,0.24,0.96,22.77,136.66,76.11
2026-07-27 13:09:19.357,-0.07,0.26,0.98,17.03,118.71,66.65
2026-07-27 13:09:19.476,-0.06,0.25,0.97,4.27,56.88,31.68
2026-07-27 13:09:19.477,-0.06,0.25,0.97,4.27,56.88,31.68
2026-07-27 13:09:19.477,-0.01,0.23,0.95,-6.23,7.63,6.96
2026-07-27 13:09:19.479,-0.01,0.23,0.95,-6.23,7.63,6.96
2026-07-27 13:09:19.479,0.02,0.21,0.95,-8.79,-10.31,4.27
2026-07-27 13:09:19.776,0.02,0.21,0.95,-8.79,-10.31,4.27
2026-07-27 13:09:19.776,0.03,0.19,0.95,-4.09,-15.26,15.62
2026-07-27 13:09:19.777,0.03,0.19,0.95,-4.09,-15.26,15.62
2026-07-27 13:09:19.777,0.03,0.19,0.95,-4.09,-15.26,15.62
2026-07-27 13:09:19.778,0.03,0.19,0.95,-4.09,-15.26,15.62
2026-07-27 13:09:19.778,0.05,0.18,0.98,2.2,-25.02,19.41
2026-07-27 13:09:19.778,0.05,0.18,0.98,2.2,-25.02,19.41
2026-07-27 13:09:19.779,0.06,0.19,0.98,4.46,-14.83,11.78
2026-07-27 13:09:19.779,0.05,0.2,0.97,2.56,0.24,7.32
2026-07-27 13:09:19.779,0.05,0.2,0.97,2.56,0.24,7.32
2026-07-27 13:09:19.780,0.04,0.21,0.97,-0.49,7.87,-1.77
2026-07-27 13:09:19.780,0.04,0.21,0.97,-0.49,7.87,-1.77
2026-07-27 13:09:19.782,0.04,0.22,0.97,0.06,7.2,-15.44
2026-07-27 13:09:19.782,0.04,0.22,0.97,-1.16,4.21,-21.06
2026-07-27 13:09:19.837,0.04,0.23,0.98,-1.16,4.21,-21.06
2026-07-27 13:09:19.844,0.04,0.22,0.98,-6.29,-0.73,-16.48
2026-07-27 13:09:19.844,0.04,0.22,0.98,-6.29,-0.73,-16.48
2026-07-27 13:09:19.956,0.04,0.21,0.97,-11.41,-8.12,-7.2
2026-07-27 13:09:19.957,0.04,0.21,0.97,-11.41,-8.12,-7.2
2026-07-27 13:09:19.960,0.05,0.19,0.98,-14.65,-9.95,0.37
2026-07-27 13:09:19.960,0.05,0.19,0.98,-14.65,-9.95,0.37
2026-07-27 13:09:19.960,0.06,0.18,0.99,-15.5,0.43,3.97
2026-07-27 13:09:20.020,0.05,0.17,0.99,-11.47,17.94,10.38
2026-07-27 13:09:20.021,0.05,0.17,0.99,-11.47,17.94,10.38
2026-07-27 13:09:20.021,0.02,0.17,0.99,-2.26,32.35,15.62
2026-07-27 13:09:20.076,0.02,0.17,0.99,-2.26,32.35,15.62
2026-07-27 13:09:20.076,-0.02,0.17,0.99,7.69,34.06,9.89
2026-07-27 13:09:20.137,-0.02,0.17,0.99,7.69,34.06,9.89
2026-07-27 13:09:20.138,-0.03,0.17,0.99,13.73,22.83,-4.21
2026-07-27 13:09:20.139,-0.03,0.17,0.99,13.12,10.5,-15.32
2026-07-27 13:09:20.196,-0.03,0.18,0.97,13.12,10.5,-15.32
2026-07-27 13:09:20.197,-0.03,0.19,0.96,9.34,7.75,-16.11
2026-07-27 13:09:20.197,-0.03,0.19,0.96,9.34,7.75,-16.11
2026-07-27 13:09:20.256,-0.03,0.19,0.95,7.63,14.1,-10.31
2026-07-27 13:09:20.256,-0.03,0.19,0.95,7.63,14.1,-10.31
2026-07-27 13:09:20.317,-0.05,0.2,0.96,6.96,19.23,-5.74
2026-07-27 13:09:20.317,-0.05,0.2,0.96,6.96,19.23,-5.74
2026-07-27 13:09:20.318,-0.06,0.2,0.96,5.92,13.67,-8.48
2026-07-27 13:09:20.376,-0.06,0.2,0.96,10.07,-3.48,-15.01
2026-07-27 13:09:20.377,-0.06,0.2,0.96,10.07,-3.48,-15.01
2026-07-27 13:09:20.377,-0.03,0.23,0.96,22.64,-26.06,-8.36
2026-07-27 13:09:20.562,-0.03,0.23,0.96,22.64,-26.06,-8.36
2026-07-27 13:09:20.562,-0.01,0.26,0.97,23.86,-32.78,5.92
2026-07-27 13:09:20.562,-0.01,0.26,0.97,23.86,-32.78,5.92
2026-07-27 13:09:20.563,-0.02,0.26,0.97,5.86,-3.66,11.96
2026-07-27 13:09:20.563,-0.05,0.24,0.97,-9.58,37.11,7.32
2026-07-27 13:09:20.563,-0.05,0.24,0.97,-9.58,37.11,7.32
2026-07-27 13:09:20.617,-0.09,0.22,0.97,-10.31,57.92,-6.77
2026-07-27 13:09:20.618,-0.09,0.22,0.97,-10.31,57.92,-6.77
2026-07-27 13:09:20.618,-0.12,0.23,0.97,1.71,61.34,-20.57
2026-07-27 13:09:20.618,-0.12,0.23,0.97,1.71,61.34,-20.57
2026-07-27 13:09:20.680,-0.17,0.25,0.96,13.06,53.1,-28.32
2026-07-27 13:09:20.680,-0.21,0.26,0.95,13.67,38.09,-31.13
2026-07-27 13:09:20.681,-0.21,0.26,0.95,13.67,38.09,-31.13
2026-07-27 13:09:20.736,-0.24,0.26,0.93,6.77,26.06,-30.7
2026-07-27 13:09:20.736,-0.24,0.26,0.93,6.77,26.06,-30.7
2026-07-27 13:09:20.737,-0.25,0.24,0.93,-0.92,15.81,-27.47
2026-07-27 13:09:20.856,-0.25,0.24,0.93,-0.92,15.81,-27.47
2026-07-27 13:09:20.857,-0.26,0.22,0.93,-3.85,3.91,-22.22
2026-07-27 13:09:20.857,-0.25,0.22,0.93,-0.49,-9.03,-20.57
2026-07-27 13:09:20.857,-0.25,0.22,0.93,-0.49,-9.03,-20.57
2026-07-27 13:09:20.857,-0.24,0.22,0.93,3.72,-20.02,-24.6
2026-07-27 13:09:20.921,-0.24,0.22,0.93,3.72,-20.02,-24.6
2026-07-27 13:09:20.922,-0.22,0.21,0.94,2.38,-23.56,-29.3
2026-07-27 13:09:20.922,-0.22,0.21,0.94,2.38,-23.56,-29.3
2026-07-27 13:09:20.982,-0.21,0.21,0.95,-0.79,-21.61,-31.25
2026-07-27 13:09:20.982,-0.2,0.21,0.95,-0.73,-18.31,-28.75
2026-07-27 13:09:21.037,-0.2,0.21,0.95,-0.73,-18.31,-28.75
2026-07-27 13:09:21.037,-0.19,0.2,0.95,0.24,-13.79,-22.34
2026-07-27 13:09:21.038,-0.19,0.2,0.95,0.24,-13.79,-22.34
2026-07-27 13:09:21.096,-0.19,0.2,0.95,0.55,-8.54,-15.32
2026-07-27 13:09:21.096,-0.19,0.2,0.95,0.55,-8.54,-15.32
2026-07-27 13:09:21.159,-0.2,0.2,0.95,2.5,-5.49,-10.99
2026-07-27 13:09:21.161,-0.2,0.21,0.96,6.04,-5.86,-10.5
2026-07-27 13:09:21.162,-0.2,0.21,0.96,6.04,-5.86,-10.5
2026-07-27 13:09:21.216,-0.19,0.21,0.96,9.28,-6.35,-12.15
2026-07-27 13:09:21.217,-0.19,0.21,0.96,9.28,-6.35,-12.15
2026-07-27 13:09:21.218,-0.18,0.21,0.95,12.57,-5.25,-11.78
2026-07-27 13:09:21.280,-0.18,0.21,0.95,12.57,-5.25,-11.78
2026-07-27 13:09:21.280,-0.18,0.23,0.94,16.72,-1.77,-6.71
2026-07-27 13:09:21.281,-0.18,0.23,0.94,16.72,-1.77,-6.71
2026-07-27 13:09:21.396,-0.19,0.24,0.94,17.27,5.49,-0.98
2026-07-27 13:09:21.397,-0.21,0.25,0.94,11.41,14.77,0.73
2026-07-27 13:09:21.397,-0.21,0.25,0.94,11.41,14.77,0.73
2026-07-27 13:09:21.456,-0.23,0.25,0.94,5.43,20.2,-1.28
2026-07-27 13:09:21.456,-0.23,0.25,0.94,5.43,20.2,-1.28
2026-07-27 13:09:21.456,-0.23,0.25,0.93,2.93,15.62,-5.31
2026-07-27 13:09:21.456,-0.23,0.25,0.93,2.93,15.62,-5.31
2026-07-27 13:09:21.457,-0.23,0.25,0.93,0.85,3.17,-6.71
2026-07-27 13:09:21.577,-0.22,0.24,0.93,-0.12,-9.95,-2.44
2026-07-27 13:09:21.577,-0.22,0.24,0.93,-0.12,-9.95,-2.44
2026-07-27 13:09:21.578,-0.2,0.24,0.94,1.53,-16.17,5.98
2026-07-27 13:09:21.578,-0.2,0.24,0.94,1.53,-16.17,5.98
2026-07-27 13:09:21.578,-0.19,0.25,0.94,3.54,-12.21,14.04
2026-07-27 13:09:21.636,-0.19,0.25,0.94,3.54,-12.21,14.04
2026-07-27 13:09:21.636,-0.2,0.26,0.94,4.15,-3.05,16.54
2026-07-27 13:09:21.637,-0.2,0.26,0.94,4.15,-3.05,16.54
2026-07-27 13:09:21.756,-0.21,0.26,0.93,1.65,4.09,12.57
2026-07-27 13:09:21.757,-0.21,0.26,0.93,-0.98,0.98,6.96
2026-07-27 13:09:21.760,-0.21,0.26,0.93,-0.98,0.98,6.96
2026-07-27 13:09:21.760,-0.19,0.26,0.94,-1.95,-11.78,5.74
2026-07-27 13:09:21.760,-0.19,0.26,0.94,-1.95,-11.78,5.74
2026-07-27 13:09:21.816,-0.16,0.25,0.94,-3.72,-19.29,11.9
2026-07-27 13:09:21.817,-0.15,0.25,0.93,-4.52,-14.95,21.55
2026-07-27 13:09:21.875,-0.15,0.25,0.93,-4.52,-14.95,21.55
2026-07-27 13:09:21.876,-0.15,0.25,0.93,-2.87,-9.16,26.06
2026-07-27 13:09:21.877,-0.15,0.25,0.93,-2.87,-9.16,26.06
2026-07-27 13:09:21.936,-0.13,0.26,0.96,-2.69,-3.23,21.97
2026-07-27 13:09:21.937,-0.13,0.26,0.96,-2.69,-3.23,21.97
2026-07-27 13:09:21.937,-0.12,0.26,0.97,-9.95,-3.3,4.27
2026-07-27 13:09:21.997,-0.12,0.26,0.97,-15.87,-21.91,-18.07
2026-07-27 13:09:21.997,-0.12,0.23,0.97,-15.87,-21.91,-18.07
2026-07-27 13:09:22.058,-0.13,0.22,0.96,-8.54,-13.92,-24.23
2026-07-27 13:09:22.058,-0.13,0.22,0.96,-8.54,-13.92,-24.23
2026-07-27 13:09:22.059,-0.18,0.23,0.95,0.61,38.7,-21.73
2026-07-27 13:09:22.116,-0.18,0.23,0.95,0.61,38.7,-21.73
2026-07-27 13:09:22.117,-0.24,0.23,0.94,0.49,73.3,-28.02
2026-07-27 13:09:22.118,-0.24,0.23,0.94,-8.3,67.44,-27.89
2026-07-27 13:09:22.176,-0.27,0.2,0.92,-8.3,67.44,-27.89
2026-07-27 13:09:22.176,-0.28,0.18,0.91,-22.58,45.47,-6.41
2026-07-27 13:09:22.236,-0.28,0.18,0.91,-22.58,45.47,-6.41
2026-07-27 13:09:22.237,-0.28,0.18,0.9,-34.12,25.82,24.78
2026-07-27 13:09:22.237,-0.28,0.18,0.9,-34.12,25.82,24.78
2026-07-27 13:09:22.303,-0.28,0.17,0.89,-33.57,14.89,50.35
2026-07-27 13:09:22.304,-0.3,0.17,0.91,-22.03,16.66,63.42
2026-07-27 13:09:22.304,-0.3,0.17,0.91,-22.03,16.66,63.42
2026-07-27 13:09:22.356,-0.34,0.19,0.93,-7.87,27.34,60.91
2026-07-27 13:09:22.357,-0.34,0.19,0.93,-7.87,27.34,60.91
2026-07-27 13:09:22.423,-0.37,0.21,0.94,3.05,35.58,41.93
2026-07-27 13:09:22.425,-0.37,0.21,0.94,3.05,35.58,41.93
2026-07-27 13:09:22.425,-0.39,0.21,0.92,8.97,41.93,19.41
2026-07-27 13:09:22.477,-0.39,0.23,0.91,14.89,41.2,8.61
2026-07-27 13:09:22.478,-0.39,0.23,0.91,14.89,41.2,8.61
2026-07-27 13:09:22.536,-0.38,0.26,0.91,24.29,27.77,9.7
2026-07-27 13:09:22.536,-0.38,0.26,0.91,24.29,27.77,9.7
2026-07-27 13:09:22.537,-0.38,0.28,0.9,31.74,17.33,10.07
2026-07-27 13:09:22.656,-0.38,0.28,0.9,31.74,17.33,10.07
2026-07-27 13:09:22.657,-0.41,0.31,0.89,39.67,11.84,7.63
2026-07-27 13:09:22.657,-0.41,0.31,0.89,56.88,-4.15,13.67
2026-07-27 13:09:22.658,-0.41,0.35,0.88,56.88,-4.15,13.67
2026-07-27 13:09:22.659,-0.38,0.4,0.84,81.73,-28.38,22.58
2026-07-27 13:09:22.659,-0.38,0.4,0.84,81.73,-28.38,22.58
2026-07-27 13:09:22.720,-0.33,0.46,0.78,100.16,-49.44,11.35
2026-07-27 13:09:22.723,-0.33,0.46,0.78,100.16,-49.44,11.35
2026-07-27 13:09:22.778,-0.29,0.52,0.75,103.33,-61.83,-27.34
2026-07-27 13:09:22.779,-0.32,0.58,0.72,102.23,-54.87,-76.48
2026-07-27 13:09:22.779,-0.32,0.58,0.72,102.23,-54.87,-76.48
2026-07-27 13:09:22.836,-0.4,0.59,0.69,92.29,-27.4,-97.11
2026-07-27 13:09:22.837,-0.4,0.59,0.69,92.29,-27.4,-97.11
2026-07-27 13:09:22.900,-0.42,0.57,0.67,55.3,-3.11,-63.6
2026-07-27 13:09:22.900,-0.42,0.57,0.67,55.3,-3.11,-63.6
2026-07-27 13:09:22.901,-0.38,0.55,0.67,8.0,8.0,-6.59
2026-07-27 13:09:22.956,-0.32,0.55,0.68,-16.78,6.71,44.98
2026-07-27 13:09:22.957,-0.32,0.55,0.68,-16.78,6.71,44.98
2026-07-27 13:09:23.017,-0.26,0.56,0.7,-11.78,-7.75,84.29
2026-07-27 13:09:23.019,-0.26,0.56,0.7,-11.78,-7.75,84.29
2026-07-27 13:09:23.020,-0.22,0.58,0.71,7.57,-26.31,96.13
2026-07-27 13:09:23.077,-0.22,0.58,0.71,7.57,-26.31,96.13
2026-07-27 13:09:23.078,-0.18,0.62,0.73,20.63,-34.91,82.95
2026-07-27 13:09:23.078,-0.18,0.62,0.73,20.63,-34.91,82.95
2026-07-27 13:09:23.256,-0.18,0.62,0.73,20.63,-34.91,82.95
2026-07-27 13:09:23.256,-0.18,0.62,0.73,20.63,-34.91,82.95
2026-07-27 13:09:23.257,-0.15,0.66,0.72,5.07,-12.39,78.12
2026-07-27 13:09:23.257,-0.12,0.62,0.71,-1.83,-4.03,95.46
2026-07-27 13:09:23.258,-0.12,0.62,0.71,-1.83,-4.03,95.46
2026-07-27 13:09:23.258,-0.05,0.58,0.75,0.98,-11.66,118.23
2026-07-27 13:09:23.258,-0.05,0.58,0.75,0.98,-11.66,118.23
2026-07-27 13:09:23.259,0.03,0.56,0.82,3.48,-32.04,95.15
2026-07-27 13:09:23.259,0.03,0.56,0.82,3.48,-32.04,95.15
2026-07-27 13:09:23.376,0.09,0.59,0.85,-3.42,-57.86,12.33
2026-07-27 13:09:23.377,0.09,0.59,0.85,-13.92,-63.17,-48.1
2026-07-27 13:09:23.379,0.12,0.64,0.81,-13.92,-63.17,-48.1
2026-07-27 13:09:23.379,0.09,0.69,0.73,-16.24,-29.05,-47.18
2026-07-27 13:09:23.379,0.09,0.69,0.73,-16.24,-29.05,-47.18
2026-07-27 13:09:23.496,0.02,0.72,0.69,-6.35,17.21,-14.77
2026-07-27 13:09:23.496,0.02,0.72,0.69,-6.35,17.21,-14.77
2026-07-27 13:09:23.497,-0.01,0.75,0.68,8.97,41.38,20.32
2026-07-27 13:09:23.497,-0.01,0.75,0.68,15.81,36.62,41.08
2026-07-27 13:09:23.497,0.02,0.74,0.7,15.81,36.62,41.08
2026-07-27 13:09:23.616,0.04,0.7,0.71,10.74,13.49,39.37
2026-07-27 13:09:23.617,0.04,0.7,0.71,10.74,13.49,39.37
2026-07-27 13:09:23.618,0.07,0.66,0.73,2.26,-15.69,20.81
2026-07-27 13:09:23.618,0.07,0.66,0.73,2.26,-15.69,20.81
2026-07-27 13:09:23.620,0.11,0.63,0.74,-1.71,-36.01,4.27
2026-07-27 13:09:23.676,0.11,0.63,0.74,-1.71,-36.01,4.27
2026-07-27 13:09:23.676,0.14,0.65,0.73,1.46,-31.49,-1.71
2026-07-27 13:09:23.677,0.12,0.68,0.72,6.29,-7.57,-2.38
2026-07-27 13:09:23.736,0.12,0.68,0.72,6.29,-7.57,-2.38
2026-07-27 13:09:23.737,0.09,0.7,0.7,7.69,15.14,-0.73
2026-07-27 13:09:23.738,0.09,0.7,0.7,7.69,15.14,-0.73
2026-07-27 13:09:23.796,0.08,0.7,0.7,6.35,22.16,2.2
2026-07-27 13:09:23.797,0.08,0.7,0.7,4.33,13.79,3.48
2026-07-27 13:09:23.861,0.09,0.69,0.7,4.33,13.79,3.48
2026-07-27 13:09:23.862,0.09,0.68,0.7,3.48,0.18,1.65
2026-07-27 13:09:23.862,0.09,0.68,0.7,3.48,0.18,1.65
2026-07-27 13:09:23.919,0.1,0.68,0.71,3.91,-7.81,-1.22
2026-07-27 13:09:23.919,0.1,0.68,0.71,3.91,-7.81,-1.22
2026-07-27 13:09:23.977,0.1,0.69,0.71,4.76,-6.47,-1.34
2026-07-27 13:09:23.978,0.1,0.69,0.71,4.76,-6.47,-1.34
2026-07-27 13:09:23.978,0.09,0.7,0.7,5.43,-1.71,1.16
2026-07-27 13:09:24.096,0.09,0.7,0.7,5.19,0.06,2.26
2026-07-27 13:09:24.096,0.09,0.7,0.69,5.19,0.06,2.26
2026-07-27 13:09:24.096,0.09,0.7,0.69,4.03,-1.89,0.98
2026-07-27 13:09:24.096,0.09,0.7,0.69,4.03,-1.89,0.98
2026-07-27 13:09:24.097,0.1,0.7,0.69,3.3,-4.09,-0.31
