Timestamp,AccX,AccY,AccZ,GyroX,GyroY,GyroZ
2026-07-27 13:32:19.304,0.01,-0.15,1.03,-23.44,11.78,-11.66
2026-07-27 13:32:19.305,0.06,-0.3,1.05,-88.93,-41.99,-56.09
2026-07-27 13:32:19.306,0.06,-0.3,1.05,-88.93,-41.99,-56.09
2026-07-27 13:32:19.307,0.15,-0.37,0.97,-110.41,-63.23,-74.4
2026-07-27 13:32:19.307,0.15,-0.37,0.97,-110.41,-63.23,-74.4
2026-07-27 13:32:19.478,0.21,-0.39,0.9,-93.2,-48.28,-62.07
2026-07-27 13:32:19.479,0.21,-0.38,0.87,-28.87,-5.13,-23.5
2026-07-27 13:32:19.480,0.21,-0.38,0.87,-28.87,-5.13,-23.5
2026-07-27 13:32:19.481,0.18,-0.35,0.85,26.92,25.7,11.05
2026-07-27 13:32:19.506,0.18,-0.35,0.85,26.92,25.7,11.05
2026-07-27 13:32:19.506,0.16,-0.34,0.85,37.11,27.59,26.25
2026-07-27 13:32:19.506,0.16,-0.34,0.85,37.11,27.59,26.25
2026-07-27 13:32:19.506,0.14,-0.36,0.86,18.55,16.85,27.89
2026-07-27 13:32:19.506,0.1,-0.38,0.89,4.7,14.34,25.57
2026-07-27 13:32:19.507,0.1,-0.38,0.89,4.7,14.34,25.57
2026-07-27 13:32:19.540,0.05,-0.39,0.92,4.94,19.71,23.86
2026-07-27 13:32:19.541,0.05,-0.39,0.92,4.94,19.71,23.86
2026-07-27 13:32:19.658,-0.0,-0.4,0.94,8.48,19.53,22.28
2026-07-27 13:32:19.659,-0.0,-0.4,0.94,8.48,19.53,22.28
2026-07-27 13:32:19.659,-0.02,-0.39,0.97,9.46,9.09,18.25
2026-07-27 13:32:19.660,-0.02,-0.39,0.97,5.13,-1.59,11.66
2026-07-27 13:32:19.660,0.01,-0.38,1.01,5.13,-1.59,11.66
2026-07-27 13:32:19.660,0.04,-0.38,0.98,-6.9,-5.37,5.92
2026-07-27 13:32:19.720,0.04,-0.38,0.98,-6.9,-5.37,5.92
2026-07-27 13:32:19.720,0.06,-0.41,0.9,-17.33,-3.3,4.33
2026-07-27 13:32:20.199,0.06,-0.41,0.9,-17.33,-3.3,4.33
2026-07-27 13:32:20.200,0.05,-0.46,0.82,-15.44,2.38,6.59
2026-07-27 13:32:20.201,0.05,-0.46,0.82,-15.44,2.38,6.59
2026-07-27 13:32:20.201,0.02,-0.5,0.81,0.98,11.35,10.13
2026-07-27 13:32:20.202,-0.02,-0.49,0.85,32.04,30.7,11.96
2026-07-27 13:32:20.202,-0.02,-0.49,0.85,32.04,30.7,11.96
2026-07-27 13:32:20.202,-0.06,-0.42,0.9,77.27,66.59,10.44
2026-07-27 13:32:20.203,-0.06,-0.42,0.9,77.27,66.59,10.44
2026-07-27 13:32:20.204,-0.1,-0.32,0.94,105.41,91.06,8.97
2026-07-27 13:32:20.204,-0.1,-0.32,0.94,105.41,91.06,8.97
2026-07-27 13:32:20.205,-0.11,-0.24,0.95,85.57,74.58,11.84
2026-07-27 13:32:20.206,-0.13,-0.22,0.97,33.57,35.77,17.33
2026-07-27 13:32:20.206,-0.13,-0.22,0.97,33.57,35.77,17.33
2026-07-27 13:32:20.207,-0.18,-0.21,1.07,-28.08,4.39,26.73
2026-07-27 13:32:20.207,-0.18,-0.21,1.07,-28.08,4.39,26.73
2026-07-27 13:32:20.208,-0.29,-0.23,1.17,-93.26,-17.15,45.65
2026-07-27 13:32:20.208,-0.29,-0.23,1.17,-93.26,-17.15,45.65
2026-07-27 13:32:20.209,-0.34,-0.35,1.1,-148.8,-19.04,63.35
2026-07-27 13:32:20.210,-0.34,-0.35,1.1,-140.26,5.49,53.47
2026-07-27 13:32:20.210,-0.25,-0.58,0.84,-140.26,5.49,53.47
2026-07-27 13:32:20.211,-0.12,-0.72,0.63,-62.26,20.08,13.37
2026-07-27 13:32:20.211,-0.12,-0.72,0.63,-62.26,20.08,13.37
2026-07-27 13:32:20.567,-0.09,-0.66,0.55,-0.43,9.22,-14.89
2026-07-27 13:32:20.567,-0.09,-0.66,0.55,-0.43,9.22,-14.89
2026-07-27 13:32:20.568,-0.15,-0.52,0.54,7.87,-11.96,-8.73
2026-07-27 13:32:20.569,-0.15,-0.52,0.54,-10.44,-37.23,13.06
2026-07-27 13:32:20.569,-0.22,-0.42,0.58,-10.44,-37.23,13.06
2026-07-27 13:32:20.569,-0.29,-0.31,0.64,-15.87,-47.97,35.1
2026-07-27 13:32:20.570,-0.29,-0.31,0.64,-15.87,-47.97,35.1
2026-07-27 13:32:20.570,-0.37,-0.14,0.64,16.6,-40.53,52.12
2026-07-27 13:32:20.570,-0.37,-0.14,0.64,16.6,-40.53,52.12
2026-07-27 13:32:20.570,-0.38,-0.02,1.2,41.87,-64.7,60.67
2026-07-27 13:32:20.571,-0.38,-0.02,1.2,41.87,-64.7,60.67
2026-07-27 13:32:20.572,-0.16,-0.01,1.48,21.0,-113.16,39.43
2026-07-27 13:32:20.572,0.13,-0.17,0.96,8.79,-150.94,10.01
2026-07-27 13:32:20.572,0.13,-0.17,0.96,8.79,-150.94,10.01
2026-07-27 13:32:20.573,0.37,-0.66,0.8,-7.02,-154.6,7.02
2026-07-27 13:32:20.573,0.37,-0.66,0.8,-7.02,-154.6,7.02
2026-07-27 13:32:20.860,0.49,-1.04,0.81,18.01,-102.48,23.56
2026-07-27 13:32:20.861,0.49,-1.04,0.81,18.01,-102.48,23.56
2026-07-27 13:32:20.862,0.29,-0.64,0.85,69.03,-36.99,50.9
2026-07-27 13:32:20.862,0.02,-0.05,1.03,24.78,-9.28,41.99
2026-07-27 13:32:20.863,0.02,-0.05,1.03,24.78,-9.28,41.99
2026-07-27 13:32:20.864,0.02,-0.08,1.08,-34.0,-29.6,-3.48
2026-07-27 13:32:20.865,0.02,-0.08,1.08,-34.0,-29.6,-3.48
2026-07-27 13:32:20.865,0.23,-0.38,0.97,-29.05,-57.68,-30.03
2026-07-27 13:32:20.865,0.23,-0.38,0.97,-29.05,-57.68,-30.03
2026-07-27 13:32:20.865,0.37,-0.41,0.89,-20.26,-45.41,-17.64
2026-07-27 13:32:20.868,0.38,-0.24,0.99,20.45,4.88,31.49
2026-07-27 13:32:20.869,0.38,-0.24,0.99,20.45,4.88,31.49
2026-07-27 13:32:20.869,0.45,-0.19,1.21,150.45,58.23,116.15
2026-07-27 13:32:20.984,0.45,-0.19,1.21,150.45,58.23,116.15
2026-07-27 13:32:20.985,0.53,0.08,1.08,308.65,91.67,195.07
2026-07-27 13:32:20.987,0.53,0.08,1.08,308.65,91.67,195.07
2026-07-27 13:32:20.989,0.39,0.71,0.56,475.89,104.92,188.23
2026-07-27 13:32:20.989,0.21,1.11,0.18,572.63,97.11,108.58
2026-07-27 13:32:21.161,0.21,1.11,0.18,572.63,97.11,108.58
2026-07-27 13:32:21.161,0.27,1.03,0.23,488.59,51.51,44.01
2026-07-27 13:32:21.162,0.27,1.03,0.23,488.59,51.51,44.01
2026-07-27 13:32:21.164,0.44,0.82,0.42,314.21,-12.33,26.92
2026-07-27 13:32:21.165,0.49,0.72,0.5,183.72,-45.84,44.37
2026-07-27 13:32:21.165,0.49,0.72,0.5,183.72,-45.84,44.37
2026-07-27 13:32:21.166,0.44,0.73,0.44,105.9,-40.77,76.35
2026-07-27 13:32:21.166,0.44,0.73,0.44,105.9,-40.77,76.35
2026-07-27 13:32:21.284,0.43,0.78,0.33,59.69,-22.95,97.78
2026-07-27 13:32:21.285,0.47,0.81,0.2,36.5,-8.24,105.47
2026-07-27 13:32:21.289,0.47,0.81,0.2,36.5,-8.24,105.47
2026-07-27 13:32:21.290,0.48,0.91,0.04,14.53,15.62,105.47
2026-07-27 13:32:21.292,0.48,0.91,0.04,14.53,15.62,105.47
2026-07-27 13:32:21.521,0.41,1.12,-0.12,7.39,67.38,102.97
2026-07-27 13:32:21.521,0.41,1.12,-0.12,7.39,67.38,102.97
2026-07-27 13:32:21.522,0.33,1.27,-0.1,-6.16,105.22,98.88
2026-07-27 13:32:21.522,0.34,1.2,0.12,-96.5,88.01,85.14
2026-07-27 13:32:21.523,0.34,1.2,0.12,-96.5,88.01,85.14
2026-07-27 13:32:21.523,0.41,1.05,0.27,-198.18,62.5,74.22
2026-07-27 13:32:21.530,0.41,1.05,0.27,-198.18,62.5,74.22
2026-07-27 13:32:21.533,0.46,0.95,0.25,-193.79,75.07,76.84
2026-07-27 13:32:21.533,0.46,0.95,0.25,-193.79,75.07,76.84
2026-07-27 13:32:21.533,0.49,0.88,0.21,-89.17,111.15,82.09
2026-07-27 13:32:21.820,0.53,0.79,0.19,50.42,145.08,92.29
2026-07-27 13:32:21.822,0.53,0.79,0.19,50.42,145.08,92.29
2026-07-27 13:32:21.822,0.5,0.77,0.09,190.0,166.02,110.84
2026-07-27 13:32:21.824,0.5,0.77,0.09,190.0,166.02,110.84
2026-07-27 13:32:21.824,0.4,0.83,-0.1,296.2,171.57,120.85
2026-07-27 13:32:21.826,0.4,0.83,-0.1,293.27,163.27,113.1
2026-07-27 13:32:21.827,0.31,0.89,-0.2,293.27,163.27,113.1
2026-07-27 13:32:21.827,0.28,0.9,-0.16,204.59,138.24,96.13
2026-07-27 13:32:21.831,0.28,0.9,-0.16,204.59,138.24,96.13
2026-07-27 13:32:21.831,0.32,0.95,-0.11,136.9,103.27,80.69
2026-07-27 13:32:21.832,0.32,0.95,-0.11,136.9,103.27,80.69
2026-07-27 13:32:21.832,0.42,1.0,-0.02,91.43,82.82,70.5
2026-07-27 13:32:21.832,0.49,1.02,0.07,55.3,92.77,65.86
2026-07-27 13:32:21.832,0.49,1.02,0.07,55.3,92.77,65.86
2026-07-27 13:32:21.939,0.49,1.03,0.05,68.85,129.27,66.35
2026-07-27 13:32:21.941,0.49,1.03,0.05,68.85,129.27,66.35
2026-07-27 13:32:21.941,0.43,1.05,-0.08,123.9,168.76,64.82
2026-07-27 13:32:21.942,0.43,1.05,-0.08,162.35,176.09,55.42
2026-07-27 13:32:21.943,0.39,1.06,-0.15,162.35,176.09,55.42
2026-07-27 13:32:22.121,0.42,1.03,-0.13,155.21,132.87,46.33
2026-07-27 13:32:22.121,0.42,1.03,-0.13,155.21,132.87,46.33
2026-07-27 13:32:22.122,0.47,1.02,-0.03,117.37,53.22,49.13
2026-07-27 13:32:22.122,0.47,1.02,-0.03,117.37,53.22,49.13
2026-07-27 13:32:22.123,0.4,1.22,0.86,34.79,-29.91,58.9
2026-07-27 13:32:22.124,0.32,1.12,1.28,-53.89,-32.1,42.79
2026-07-27 13:32:22.125,0.32,1.12,1.28,-53.89,-32.1,42.79
2026-07-27 13:32:22.300,0.62,0.22,0.11,76.35,-16.72,21.67
2026-07-27 13:32:22.300,0.62,0.22,0.11,76.35,-16.72,21.67
2026-07-27 13:32:22.301,0.93,0.01,-0.49,274.96,-46.94,33.39
2026-07-27 13:32:22.302,0.93,0.01,-0.49,274.96,-46.94,33.39
2026-07-27 13:32:22.302,0.81,0.57,-0.39,234.74,-8.67,61.58
2026-07-27 13:32:22.303,0.65,0.81,-0.38,71.66,53.89,81.85
2026-07-27 13:32:22.303,0.65,0.81,-0.38,71.66,53.89,81.85
2026-07-27 13:32:22.304,0.77,0.78,-0.07,1.77,68.05,52.92
2026-07-27 13:32:22.559,0.77,0.78,-0.07,1.77,68.05,52.92
2026-07-27 13:32:22.560,1.11,0.46,0.2,110.23,106.57,-28.5
2026-07-27 13:32:22.560,1.11,0.46,0.2,110.23,106.57,-28.5
2026-07-27 13:32:22.560,1.25,0.19,0.03,338.87,218.02,-103.33
2026-07-27 13:32:22.561,0.99,0.33,-0.33,489.2,313.29,-128.78
2026-07-27 13:32:22.561,0.99,0.33,-0.33,489.2,313.29,-128.78
2026-07-27 13:32:22.562,0.68,0.65,-0.37,391.42,289.12,-111.57
2026-07-27 13:32:22.563,0.68,0.65,-0.37,391.42,289.12,-111.57
2026-07-27 13:32:22.563,0.5,0.81,-0.18,157.23,172.3,-64.76
2026-07-27 13:32:22.563,0.54,0.77,0.13,7.02,41.75,-15.87
2026-07-27 13:32:22.563,0.54,0.77,0.13,7.02,41.75,-15.87
2026-07-27 13:32:22.782,0.68,0.7,0.35,100.16,-26.98,0.0
2026-07-27 13:32:22.782,0.68,0.7,0.35,100.16,-26.98,0.0
2026-07-27 13:32:22.783,0.71,0.79,0.34,226.32,-37.72,24.05
2026-07-27 13:32:22.785,0.71,0.79,0.34,226.32,-37.72,24.05
2026-07-27 13:32:22.785,0.74,1.14,0.27,86.55,-39.18,90.15
2026-07-27 13:32:22.785,0.75,1.56,0.09,-109.99,-17.52,131.16
2026-07-27 13:32:22.839,0.75,1.56,0.09,-109.99,-17.52,131.16
2026-07-27 13:32:22.840,0.65,1.73,-0.24,-166.38,11.23,102.17
2026-07-27 13:32:22.841,0.65,1.73,-0.24,-166.38,11.23,102.17
2026-07-27 13:32:22.844,0.61,1.6,-0.54,-184.81,5.31,32.59
2026-07-27 13:32:22.844,0.61,1.6,-0.54,-184.81,5.31,32.59
2026-07-27 13:32:22.844,0.79,1.38,-0.68,-231.57,-26.92,-40.28
2026-07-27 13:32:22.845,1.06,1.23,-0.65,-281.07,-50.96,-88.81
2026-07-27 13:32:22.962,1.06,1.23,-0.65,-281.07,-50.96,-88.81
2026-07-27 13:32:22.988,1.09,1.11,-0.59,-283.75,-31.49,-101.07
2026-07-27 13:32:22.988,1.09,1.11,-0.59,-283.75,-31.49,-101.07
2026-07-27 13:32:22.988,0.86,0.99,-0.64,-225.46,33.94,-99.85
2026-07-27 13:32:22.988,0.61,0.86,-0.72,-139.22,93.93,-115.54
2026-07-27 13:32:23.020,0.61,0.86,-0.72,-139.22,93.93,-115.54
2026-07-27 13:32:23.020,0.45,0.73,-0.74,-69.82,102.91,-139.53
2026-07-27 13:32:23.204,0.45,0.73,-0.74,-69.82,102.91,-139.53
2026-07-27 13:32:23.205,0.33,0.6,-0.73,-46.02,63.72,-142.15
2026-07-27 13:32:23.205,0.33,0.6,-0.73,-46.02,63.72,-142.15
2026-07-27 13:32:23.206,0.33,0.6,-0.73,-46.02,63.72,-142.15
2026-07-27 13:32:23.206,0.33,0.6,-0.73,-46.02,63.72,-142.15
2026-07-27 13:32:23.206,0.15,0.48,-0.59,-77.76,-54.38,-87.04
2026-07-27 13:32:23.207,0.23,0.51,-0.4,-108.15,-101.01,-64.27
2026-07-27 13:32:23.208,0.23,0.51,-0.4,-108.15,-101.01,-64.27
2026-07-27 13:32:23.258,0.45,0.53,-0.09,-174.38,-127.2,-50.96
2026-07-27 13:32:23.259,0.45,0.53,-0.09,-174.38,-127.2,-50.96
2026-07-27 13:32:23.260,0.7,0.47,0.27,-247.07,-131.47,-52.61
2026-07-27 13:32:23.329,0.88,0.4,0.52,-232.91,-112.12,-65.92
2026-07-27 13:32:23.331,0.88,0.4,0.52,-232.91,-112.12,-65.92
2026-07-27 13:32:23.562,0.98,0.4,0.64,-113.28,-70.62,-68.54
2026-07-27 13:32:23.562,0.98,0.4,0.64,-113.28,-70.62,-68.54
2026-07-27 13:32:23.562,1.09,0.46,0.71,23.44,-37.54,-40.47
2026-07-27 13:32:23.563,1.09,0.46,0.71,122.01,-36.93,14.53
2026-07-27 13:32:23.570,1.27,0.56,0.72,122.01,-36.93,14.53
2026-07-27 13:32:23.570,1.43,0.66,0.66,195.13,-77.76,96.07
2026-07-27 13:32:23.570,1.43,0.66,0.66,195.13,-77.76,96.07
2026-07-27 13:32:23.590,1.41,0.59,0.55,223.69,-152.16,210.14
2026-07-27 13:32:23.593,1.41,0.59,0.55,223.69,-152.16,210.14
2026-07-27 13:32:23.593,1.24,0.39,0.55,166.93,-166.69,274.17
2026-07-27 13:32:23.593,1.07,0.28,0.48,92.65,-86.91,240.66
2026-07-27 13:32:23.921,1.07,0.28,0.48,92.65,-86.91,240.66
2026-07-27 13:32:23.922,1.0,0.29,0.21,85.14,-3.42,176.7
2026-07-27 13:32:23.925,1.0,0.29,0.21,85.14,-3.42,176.7
2026-07-27 13:32:23.926,0.93,0.38,-0.04,133.06,31.74,120.54
2026-07-27 13:32:23.926,0.93,0.38,-0.04,133.06,31.74,120.54
2026-07-27 13:32:23.927,0.85,0.48,-0.18,178.1,37.96,76.72
2026-07-27 13:32:23.928,0.73,0.58,-0.2,183.59,47.0,42.85
2026-07-27 13:32:23.929,0.73,0.58,-0.2,183.59,47.0,42.85
2026-07-27 13:32:23.929,0.61,0.65,-0.16,161.56,55.85,7.51
2026-07-27 13:32:23.929,0.61,0.65,-0.16,161.56,55.85,7.51
2026-07-27 13:32:23.930,0.55,0.63,-0.11,132.75,49.56,-28.81
2026-07-27 13:32:23.930,0.55,0.63,-0.11,132.75,49.56,-28.81
2026-07-27 13:32:23.930,0.59,0.57,-0.07,101.07,35.95,-47.73
2026-07-27 13:32:23.932,0.72,0.5,-0.03,67.38,15.81,-48.22
2026-07-27 13:32:23.933,0.72,0.5,-0.03,67.38,15.81,-48.22
2026-07-27 13:32:23.933,0.87,0.43,0.04,42.3,-31.56,-43.33
2026-07-27 13:32:24.039,0.87,0.43,0.04,42.3,-31.56,-43.33
2026-07-27 13:32:24.039,0.94,0.42,0.09,27.04,-66.16,-22.95
2026-07-27 13:32:24.040,0.95,0.47,0.05,30.58,-36.44,3.66
2026-07-27 13:32:24.040,0.95,0.47,0.05,30.58,-36.44,3.66
2026-07-27 13:32:24.041,0.92,0.47,0.03,44.31,6.77,14.95
2026-07-27 13:32:24.220,0.92,0.47,0.03,44.31,6.77,14.95
2026-07-27 13:32:24.220,0.96,0.37,0.06,45.1,4.64,11.35
2026-07-27 13:32:24.221,0.96,0.37,0.06,45.1,4.64,11.35
2026-07-27 13:32:24.222,1.17,0.21,0.08,28.87,-13.61,11.66
2026-07-27 13:32:24.222,1.17,0.21,0.08,28.87,-13.61,11.66
2026-07-27 13:32:24.223,1.39,0.1,0.24,8.48,-25.15,41.63
2026-07-27 13:32:24.224,1.38,0.12,0.47,13.43,-36.01,86.18
2026-07-27 13:32:24.225,1.38,0.12,0.47,13.43,-36.01,86.18
2026-07-27 13:32:24.345,1.22,0.26,0.52,17.46,-26.0,121.7
2026-07-27 13:32:24.356,1.22,0.26,0.52,17.46,-26.0,121.7
2026-07-27 13:32:24.357,1.15,0.34,0.44,-20.63,4.64,125.24
2026-07-27 13:32:24.357,1.15,0.34,0.44,-20.63,4.64,125.24
2026-07-27 13:32:24.357,1.2,0.28,0.32,-77.58,40.71,73.67
2026-07-27 13:32:24.704,1.2,0.21,0.15,-120.91,75.56,-23.8
2026-07-27 13:32:24.705,1.2,0.21,0.15,-120.91,75.56,-23.8
2026-07-27 13:32:24.705,1.11,0.2,0.03,-154.42,108.09,-114.5
2026-07-27 13:32:24.706,1.11,0.2,0.03,-154.42,108.09,-114.5
2026-07-27 13:32:24.762,1.02,0.21,0.04,-182.07,134.77,-151.73
2026-07-27 13:32:24.762,1.02,0.21,0.04,-160.64,146.73,-163.88
2026-07-27 13:32:24.763,0.91,0.33,0.11,-160.64,146.73,-163.88
2026-07-27 13:32:24.764,0.8,0.49,0.07,-65.25,124.08,-141.97
2026-07-27 13:32:24.879,0.8,0.49,0.07,-65.25,124.08,-141.97
2026-07-27 13:32:24.882,0.71,0.53,-0.03,0.61,72.2,-73.79
2026-07-27 13:32:24.882,0.71,0.53,-0.03,0.61,72.2,-73.79
2026-07-27 13:32:24.883,0.67,0.53,-0.1,-13.49,49.62,-10.8
2026-07-27 13:32:24.883,0.66,0.54,-0.03,-34.18,79.96,19.47
2026-07-27 13:32:24.883,0.66,0.54,-0.03,-34.18,79.96,19.47
2026-07-27 13:32:24.884,0.64,0.49,0.12,-27.65,93.99,18.49
2026-07-27 13:32:24.885,0.64,0.49,0.12,-27.65,93.99,18.49
2026-07-27 13:32:24.885,0.68,0.39,0.25,-10.5,37.11,10.74
2026-07-27 13:32:24.885,0.68,0.39,0.25,-10.5,37.11,10.74
2026-07-27 13:32:24.885,0.78,0.31,0.31,1.46,-35.28,8.61
2026-07-27 13:32:24.886,0.91,0.22,0.3,17.82,-66.53,7.51
2026-07-27 13:32:24.889,0.91,0.22,0.3,17.82,-66.53,7.51
2026-07-27 13:32:24.889,1.09,0.07,0.3,-8.54,-74.71,31.62
2026-07-27 13:32:24.890,1.09,0.07,0.3,-8.54,-74.71,31.62
2026-07-27 13:32:24.890,1.2,-0.01,0.43,-86.3,-90.52,88.99
2026-07-27 13:32:24.943,1.2,-0.01,0.43,-86.3,-90.52,88.99
2026-07-27 13:32:24.944,1.12,-0.02,0.6,-88.99,-112.43,116.88
2026-07-27 13:32:25.302,1.04,-0.06,0.73,-32.96,-116.82,96.07
2026-07-27 13:32:25.303,1.04,-0.06,0.73,-32.96,-116.82,96.07
2026-07-27 13:32:25.304,1.03,-0.16,0.75,-32.84,-91.92,77.64
2026-07-27 13:32:25.304,1.03,-0.16,0.75,-32.84,-91.92,77.64
2026-07-27 13:32:25.304,1.05,-0.16,0.64,-57.86,-49.07,81.91
2026-07-27 13:32:25.305,1.05,-0.16,0.64,-57.86,-49.07,81.91
2026-07-27 13:32:25.305,1.01,-0.01,0.47,-42.66,0.49,86.43
2026-07-27 13:32:25.306,0.9,0.14,0.3,0.67,47.18,62.19
2026-07-27 13:32:25.306,0.9,0.14,0.3,0.67,47.18,62.19
2026-07-27 13:32:25.306,0.83,0.18,0.25,24.41,78.19,11.35
2026-07-27 13:32:25.307,0.83,0.18,0.25,24.41,78.19,11.35
2026-07-27 13:32:25.307,0.77,0.13,0.29,2.99,92.71,-41.75
2026-07-27 13:32:25.308,0.77,0.13,0.29,-36.07,83.86,-70.5
2026-07-27 13:32:25.308,0.7,0.07,0.37,-36.07,83.86,-70.5
2026-07-27 13:32:25.308,0.69,0.12,0.43,-38.27,41.99,-69.27
2026-07-27 13:32:25.309,0.69,0.12,0.43,-38.27,41.99,-69.27
2026-07-27 13:32:25.364,0.73,0.22,0.46,-27.89,-9.46,-57.01
2026-07-27 13:32:25.366,0.73,0.22,0.46,-27.89,-9.46,-57.01
2026-07-27 13:32:25.369,0.81,0.11,0.55,-105.9,-24.29,-31.19
2026-07-27 13:32:26.155,0.89,-0.21,0.61,-241.76,5.74,-3.66
2026-07-27 13:32:26.168,0.89,-0.21,0.61,-241.76,5.74,-3.66
2026-07-27 13:32:26.169,0.94,-0.41,0.58,-279.97,32.1,-15.62
2026-07-27 13:32:26.169,0.94,-0.41,0.58,-279.97,32.1,-15.62
2026-07-27 13:32:26.169,0.97,-0.44,0.52,-236.33,24.78,-47.0
2026-07-27 13:32:26.169,0.97,-0.44,0.52,-236.33,24.78,-47.0
2026-07-27 13:32:26.170,1.02,-0.44,0.45,-185.3,4.64,-46.81
2026-07-27 13:32:26.170,1.05,-0.44,0.36,-124.76,-10.8,-13.79
2026-07-27 13:32:26.171,1.05,-0.44,0.36,-124.76,-10.8,-13.79
2026-07-27 13:32:26.172,0.95,-0.52,0.31,-112.85,-30.33,27.83
2026-07-27 13:32:26.442,0.95,-0.52,0.31,-112.85,-30.33,27.83
2026-07-27 13:32:26.443,0.77,-0.62,0.35,-174.07,-51.21,61.34
2026-07-27 13:32:26.444,0.77,-0.62,0.35,-174.07,-51.21,61.34
2026-07-27 13:32:26.444,0.71,-0.61,0.35,-217.47,-42.36,59.45
2026-07-27 13:32:26.445,0.83,-0.57,0.21,-188.84,1.16,24.96
2026-07-27 13:32:26.446,0.83,-0.57,0.21,-188.84,1.16,24.96
2026-07-27 13:32:26.446,1.07,-0.59,0.09,-126.04,31.74,6.41
2026-07-27 13:32:26.446,1.07,-0.59,0.09,-126.04,31.74,6.41
2026-07-27 13:32:26.446,1.17,-0.69,0.19,-62.38,44.68,3.78
2026-07-27 13:32:26.447,1.17,-0.69,0.19,-62.38,44.68,3.78
2026-07-27 13:32:26.447,1.01,-0.47,0.62,2.2,101.62,-67.63
2026-07-27 13:32:26.447,0.78,0.05,0.93,48.4,149.96,-147.64
2026-07-27 13:32:26.448,0.78,0.05,0.93,48.4,149.96,-147.64
2026-07-27 13:32:26.448,0.72,0.3,0.84,30.27,128.91,-102.66
2026-07-27 13:32:26.449,0.72,0.3,0.84,30.27,128.91,-102.66
2026-07-27 13:32:26.452,0.78,0.3,0.63,-34.18,104.68,-8.06
2026-07-27 13:32:26.453,0.78,0.3,0.63,-34.18,104.68,-8.06
2026-07-27 13:32:26.453,0.82,0.22,0.48,-84.66,109.86,35.71
2026-07-27 13:32:26.454,0.82,0.22,0.48,-92.22,111.51,28.02
2026-07-27 13:32:26.454,0.79,0.16,0.39,-92.22,111.51,28.02
2026-07-27 13:32:26.456,0.73,0.14,0.37,-70.31,81.05,-4.94
2026-07-27 13:32:26.456,0.73,0.14,0.37,-70.31,81.05,-4.94
2026-07-27 13:32:26.456,0.71,0.1,0.41,-53.77,42.54,-39.55
2026-07-27 13:32:26.456,0.71,0.1,0.41,-53.77,42.54,-39.55
2026-07-27 13:32:26.458,0.77,0.08,0.47,-44.74,30.15,-64.45
2026-07-27 13:32:26.458,0.77,0.08,0.47,-44.74,30.15,-64.45
2026-07-27 13:32:26.459,0.91,0.09,0.47,-6.16,25.7,-88.38
2026-07-27 13:32:26.459,1.1,0.13,0.43,39.55,-9.16,-116.09
2026-07-27 13:32:26.460,1.1,0.13,0.43,39.55,-9.16,-116.09
2026-07-27 13:32:26.460,1.24,0.19,0.42,36.87,-51.45,-140.75
2026-07-27 13:32:26.460,1.24,0.19,0.42,36.87,-51.45,-140.75
2026-07-27 13:32:26.461,1.31,0.03,0.43,-31.8,-69.4,-163.27
2026-07-27 13:32:26.462,1.31,0.03,0.43,-31.8,-69.4,-163.27
2026-07-27 13:32:26.462,1.34,-0.34,0.46,-138.92,-75.93,-167.66
2026-07-27 13:32:26.477,1.34,-0.34,0.46,-211.85,-57.68,-135.56
2026-07-27 13:32:26.481,1.3,-0.61,0.3,-211.85,-57.68,-135.56
2026-07-27 13:32:26.482,1.21,-0.76,-0.06,-242.31,-26.73,-54.93
2026-07-27 13:32:26.503,1.21,-0.76,-0.06,-242.31,-26.73,-54.93
2026-07-27 13:32:26.503,0.89,-0.77,-0.43,-276.06,-126.65,122.01
2026-07-27 13:32:26.504,0.89,-0.77,-0.43,-276.06,-126.65,122.01
2026-07-27 13:32:26.568,0.5,-0.53,-0.63,-278.2,-316.71,237.49
2026-07-27 13:32:26.568,0.57,-0.06,-0.55,-224.18,-342.71,42.05
2026-07-27 13:32:26.569,0.57,-0.06,-0.55,-224.18,-342.71,42.05
2026-07-27 13:32:26.746,0.89,0.24,-0.37,-104.13,-235.6,-179.5
2026-07-27 13:32:26.919,0.89,0.24,-0.37,-104.13,-235.6,-179.5
2026-07-27 13:32:26.920,1.0,0.09,-0.29,9.89,-138.67,-131.77
2026-07-27 13:32:26.920,0.97,-0.13,-0.26,43.95,-61.46,-0.85
2026-07-27 13:32:26.921,0.97,-0.13,-0.26,43.95,-61.46,-0.85
2026-07-27 13:32:26.921,1.06,-0.21,-0.22,43.09,4.09,68.85
2026-07-27 13:32:26.922,1.06,-0.21,-0.22,43.09,4.09,68.85
2026-07-27 13:32:26.923,1.06,-0.25,-0.13,32.71,71.66,87.34
2026-07-27 13:32:26.923,1.06,-0.25,-0.13,32.71,71.66,87.34
2026-07-27 13:32:26.924,0.96,-0.3,-0.1,59.81,114.75,85.14
2026-07-27 13:32:26.924,0.91,-0.39,-0.15,124.08,108.09,81.97
2026-07-27 13:32:27.100,0.91,-0.39,-0.15,124.08,108.09,81.97
2026-07-27 13:32:27.101,0.91,-0.42,-0.2,163.02,87.22,41.5
2026-07-27 13:32:27.101,0.91,-0.42,-0.2,163.02,87.22,41.5
2026-07-27 13:32:27.102,0.88,-0.32,-0.15,131.23,102.66,-61.52
2026-07-27 13:32:27.102,0.88,-0.32,-0.15,42.6,146.3,-131.77
2026-07-27 13:32:27.102,0.83,-0.31,-0.07,42.6,146.3,-131.77
2026-07-27 13:32:27.103,0.85,-0.67,-0.05,-53.28,154.36,-92.53
2026-07-27 13:32:27.103,0.85,-0.67,-0.05,-53.28,154.36,-92.53
2026-07-27 13:32:27.103,0.85,-0.95,0.0,-90.88,124.33,-0.67
2026-07-27 13:32:27.106,0.85,-0.95,0.0,-90.88,124.33,-0.67
2026-07-27 13:32:27.107,0.91,-0.68,0.07,-36.32,87.22,59.39
2026-07-27 13:32:27.108,1.07,-0.29,0.09,11.35,63.54,60.06
2026-07-27 13:32:27.400,1.07,-0.29,0.09,11.35,63.54,60.06
2026-07-27 13:32:27.400,1.05,-0.25,0.13,-29.3,74.95,10.5
2026-07-27 13:32:27.401,1.05,-0.25,0.13,-29.3,74.95,10.5
2026-07-27 13:32:27.402,0.83,-0.44,0.25,-93.2,88.2,-39.55
2026-07-27 13:32:27.402,0.71,-0.48,0.42,-103.94,83.62,-53.59
2026-07-27 13:32:27.403,0.71,-0.48,0.42,-103.94,83.62,-53.59
2026-07-27 13:32:27.403,0.8,-0.25,0.5,-69.46,58.9,-56.03
2026-07-27 13:32:27.404,0.8,-0.25,0.5,-69.46,58.9,-56.03
2026-07-27 13:32:27.404,0.97,0.08,0.51,-32.59,-4.09,-55.18
2026-07-27 13:32:27.405,0.97,0.08,0.51,-32.59,-4.09,-55.18
2026-07-27 13:32:27.405,1.02,0.35,0.56,9.09,-73.12,-40.83
2026-07-27 13:32:27.406,1.01,0.45,0.59,49.8,-100.59,-26.25
2026-07-27 13:32:27.406,1.01,0.45,0.59,49.8,-100.59,-26.25
2026-07-27 13:32:27.458,1.02,0.37,0.55,50.35,-91.61,-21.85
2026-07-27 13:32:27.459,1.02,0.37,0.55,50.35,-91.61,-21.85
2026-07-27 13:32:27.582,1.02,0.13,0.43,6.1,-70.86,-15.5
2026-07-27 13:32:27.583,1.02,0.13,0.43,6.1,-70.86,-15.5
2026-07-27 13:32:27.583,1.02,0.13,0.43,6.1,-70.86,-15.5
2026-07-27 13:32:27.584,1.02,0.13,0.43,6.1,-70.86,-15.5
2026-07-27 13:32:27.584,1.01,-0.37,-0.0,-37.05,-68.91,31.19
2026-07-27 13:32:27.596,1.01,-0.37,-0.0,11.96,-87.46,78.25
2026-07-27 13:32:27.819,1.04,-0.48,-0.12,11.96,-87.46,78.25
2026-07-27 13:32:27.820,1.04,-0.53,-0.22,92.41,-91.8,119.38
2026-07-27 13:32:27.830,1.04,-0.53,-0.22,92.41,-91.8,119.38
2026-07-27 13:32:27.834,0.99,-0.57,-0.32,141.78,-68.24,140.81
2026-07-27 13:32:27.834,0.99,-0.57,-0.32,141.78,-68.24,140.81
2026-07-27 13:32:27.834,0.85,-0.73,-0.28,97.84,-13.85,116.88
2026-07-27 13:32:27.835,0.59,-0.86,-0.32,60.85,14.83,58.23
2026-07-27 13:32:27.835,0.59,-0.86,-0.32,60.85,14.83,58.23
2026-07-27 13:32:27.939,0.66,-0.81,-0.31,79.35,-15.08,28.5
2026-07-27 13:32:27.940,0.66,-0.81,-0.31,79.35,-15.08,28.5
2026-07-27 13:32:27.942,1.04,-0.6,0.02,58.72,-40.22,26.73
2026-07-27 13:32:27.943,1.04,-0.6,0.02,58.72,-40.22,26.73
2026-07-27 13:32:27.944,1.14,-0.46,0.31,13.79,-33.87,11.11
2026-07-27 13:32:27.945,0.79,-0.53,0.19,32.23,0.73,-8.48
2026-07-27 13:32:27.946,0.79,-0.53,0.19,32.23,0.73,-8.48
2026-07-27 13:32:27.946,0.48,-0.57,0.11,79.77,54.38,1.34
2026-07-27 13:32:28.240,0.48,-0.57,0.11,79.77,54.38,1.34
2026-07-27 13:32:28.241,0.49,-0.57,0.22,62.81,81.48,23.44
2026-07-27 13:32:28.243,0.49,-0.57,0.22,62.81,81.48,23.44
2026-07-27 13:32:28.243,0.65,-0.69,0.2,10.07,89.36,26.55
2026-07-27 13:32:28.244,0.65,-0.69,0.2,10.07,89.36,26.55
2026-07-27 13:32:28.245,0.65,-0.69,0.2,10.07,89.36,26.55
2026-07-27 13:32:28.246,0.65,-0.69,0.2,10.07,89.36,26.55
2026-07-27 13:32:28.247,0.77,-0.67,0.16,-85.57,21.73,17.52
2026-07-27 13:32:28.247,0.76,-0.68,0.1,-129.64,-16.42,8.3
2026-07-27 13:32:28.248,0.76,-0.68,0.1,-129.64,-16.42,8.3
2026-07-27 13:32:28.248,0.74,-0.73,0.03,-130.07,-26.43,-1.83
2026-07-27 13:32:28.249,0.74,-0.73,0.03,-130.07,-26.43,-1.83
2026-07-27 13:32:28.250,0.71,-0.75,0.0,-84.35,-28.81,-3.54
2026-07-27 13:32:28.250,0.71,-0.75,0.0,-84.35,-28.81,-3.54
2026-07-27 13:32:28.663,0.7,-0.74,-0.03,-36.8,-42.05,4.09
2026-07-27 13:32:28.664,0.73,-0.69,-0.05,-14.47,-55.91,10.13
2026-07-27 13:32:28.665,0.73,-0.69,-0.05,-14.47,-55.91,10.13
2026-07-27 13:32:28.665,0.74,-0.68,-0.08,-25.76,-42.66,7.51
2026-07-27 13:32:28.665,0.74,-0.68,-0.08,-25.76,-42.66,7.51
2026-07-27 13:32:28.666,0.71,-0.72,-0.12,-47.0,-8.54,0.49
2026-07-27 13:32:28.666,0.71,-0.72,-0.12,-47.0,-8.54,0.49
2026-07-27 13:32:28.667,0.69,-0.73,-0.14,-49.26,3.3,5.13
2026-07-27 13:32:28.667,0.69,-0.73,-0.14,-49.26,3.3,5.13
2026-07-27 13:32:28.668,0.7,-0.71,-0.16,-30.64,-9.09,13.79
2026-07-27 13:32:28.669,0.69,-0.72,-0.17,-5.49,-19.96,10.25
2026-07-27 13:32:28.669,0.69,-0.72,-0.17,-5.49,-19.96,10.25
2026-07-27 13:32:28.670,0.69,-0.72,-0.19,11.35,-26.98,4.21
2026-07-27 13:32:28.670,0.69,-0.72,-0.19,11.35,-26.98,4.21
2026-07-27 13:32:28.673,0.7,-0.71,-0.19,11.84,-26.61,2.69
2026-07-27 13:32:28.674,0.7,-0.71,-0.19,11.84,-26.61,2.69
2026-07-27 13:32:28.675,0.68,-0.72,-0.19,2.14,-16.3,0.24
2026-07-27 13:32:28.675,0.67,-0.73,-0.2,-5.25,-6.65,0.79
2026-07-27 13:32:28.675,0.67,-0.73,-0.2,-5.25,-6.65,0.79
2026-07-27 13:32:28.841,0.66,-0.72,-0.2,-7.75,-5.25,9.95
2026-07-27 13:32:28.849,0.66,-0.72,-0.2,-7.75,-5.25,9.95
2026-07-27 13:32:28.849,0.66,-0.72,-0.19,-10.74,-9.58,16.72
2026-07-27 13:32:28.850,0.66,-0.72,-0.19,-10.74,-9.58,16.72
2026-07-27 13:32:28.850,0.67,-0.72,-0.21,-14.16,-11.72,12.27
2026-07-27 13:32:28.850,0.67,-0.72,-0.21,-14.16,-11.72,12.27
2026-07-27 13:32:28.851,0.66,-0.72,-0.26,-11.6,-5.86,1.83
2026-07-27 13:32:29.200,0.66,-0.72,-0.26,-5.49,4.33,-4.58
2026-07-27 13:32:29.206,0.66,-0.72,-0.26,-5.49,4.33,-4.58
2026-07-27 13:32:29.211,0.66,-0.72,-0.24,-2.75,10.07,-3.48
2026-07-27 13:32:29.218,0.66,-0.72,-0.24,-2.75,10.07,-3.48
2026-07-27 13:32:29.218,0.67,-0.72,-0.23,-4.88,9.77,0.18
2026-07-27 13:32:29.219,0.67,-0.72,-0.23,-4.88,9.77,0.18
2026-07-27 13:32:29.219,0.66,-0.72,-0.23,-11.66,6.35,2.32
2026-07-27 13:32:29.220,0.66,-0.72,-0.23,-15.26,3.23,2.14
2026-07-27 13:32:29.220,0.66,-0.72,-0.25,-15.26,3.23,2.14
2026-07-27 13:32:29.221,0.66,-0.72,-0.25,-9.95,2.87,0.61
2026-07-27 13:32:29.221,0.66,-0.72,-0.25,-9.95,2.87,0.61
2026-07-27 13:32:29.221,0.66,-0.72,-0.25,-2.69,3.3,-0.55
2026-07-27 13:32:29.221,0.66,-0.72,-0.25,-2.69,3.3,-0.55
2026-07-27 13:32:29.221,0.66,-0.72,-0.25,0.24,3.36,-0.43
2026-07-27 13:32:29.221,0.66,-0.72,-0.25,0.24,3.36,-0.43
2026-07-27 13:32:29.221,0.66,-0.72,-0.25,-1.34,3.05,0.61
2026-07-27 13:32:29.221,0.66,-0.72,-0.25,-3.66,2.32,0.67
2026-07-27 13:32:29.258,0.67,-0.72,-0.25,-3.66,2.32,0.67
2026-07-27 13:32:29.259,0.67,-0.72,-0.25,-4.09,1.34,-0.37
2026-07-27 13:32:29.559,0.67,-0.72,-0.25,-4.09,1.34,-0.37
2026-07-27 13:32:29.559,0.67,-0.72,-0.25,-3.3,1.34,-0.85
2026-07-27 13:32:29.560,0.67,-0.72,-0.25,-3.3,1.34,-0.85
2026-07-27 13:32:29.561,0.67,-0.71,-0.25,-2.44,2.32,-0.37
2026-07-27 13:32:29.561,0.67,-0.71,-0.25,-1.22,3.11,-0.24
2026-07-27 13:32:29.562,0.67,-0.71,-0.25,-1.22,3.11,-0.24
2026-07-27 13:32:29.562,0.67,-0.71,-0.25,0.18,3.3,-0.92
2026-07-27 13:32:29.563,0.67,-0.71,-0.25,0.18,3.3,-0.92
2026-07-27 13:32:29.563,0.67,-0.71,-0.24,0.92,3.05,-1.34
2026-07-27 13:32:29.619,0.67,-0.71,-0.24,0.92,3.05,-1.34
2026-07-27 13:32:29.620,0.67,-0.71,-0.24,0.73,2.01,-1.1
2026-07-27 13:32:29.620,0.67,-0.71,-0.24,0.73,2.01,-1.1
2026-07-27 13:32:29.621,0.67,-0.71,-0.24,0.24,0.85,-0.67
2026-07-27 13:32:29.621,0.67,-0.71,-0.24,0.24,0.85,-0.67
2026-07-27 13:32:29.622,0.67,-0.71,-0.25,0.06,0.55,-0.67
2026-07-27 13:32:29.622,0.67,-0.71,-0.25,0.18,0.79,-1.34
2026-07-27 13:32:29.623,0.67,-0.71,-0.25,0.18,0.79,-1.34
2026-07-27 13:32:29.681,0.67,-0.71,-0.24,0.37,1.46,-1.89
2026-07-27 13:32:29.685,0.67,-0.71,-0.24,0.37,1.46,-1.89
2026-07-27 13:32:30.099,0.67,-0.71,-0.24,0.37,2.2,-1.77
2026-07-27 13:32:30.100,0.67,-0.71,-0.24,0.37,2.2,-1.77
2026-07-27 13:32:30.101,0.68,-0.71,-0.24,-0.31,2.38,-0.98
2026-07-27 13:32:30.101,0.68,-0.71,-0.24,-0.31,2.38,-0.98
2026-07-27 13:32:30.102,0.68,-0.71,-0.24,-1.53,2.26,0.31
2026-07-27 13:32:30.103,0.68,-0.71,-0.24,-2.44,2.44,1.4
2026-07-27 13:32:30.104,0.68,-0.71,-0.24,-2.44,2.44,1.4
2026-07-27 13:32:30.104,0.68,-0.71,-0.23,-2.38,3.17,1.71
2026-07-27 13:32:30.105,0.68,-0.71,-0.23,-2.38,3.17,1.71
2026-07-27 13:32:30.106,0.68,-0.71,-0.23,-1.59,4.39,1.34
2026-07-27 13:32:30.106,0.68,-0.71,-0.23,-1.59,4.39,1.34
2026-07-27 13:32:30.107,0.68,-0.71,-0.24,-0.67,5.55,0.67
2026-07-27 13:32:30.108,0.68,-0.71,-0.24,-0.67,5.55,0.67
2026-07-27 13:32:30.108,0.68,-0.71,-0.24,0.06,5.68,0.0
2026-07-27 13:32:30.109,0.68,-0.71,-0.24,0.06,4.76,-0.12
2026-07-27 13:32:30.109,0.68,-0.71,-0.23,0.06,4.76,-0.12
2026-07-27 13:32:30.110,0.68,-0.71,-0.23,-0.67,3.3,0.37
2026-07-27 13:32:30.110,0.68,-0.71,-0.23,-0.67,3.3,0.37
2026-07-27 13:32:30.111,0.68,-0.7,-0.23,-1.28,2.2,0.73
2026-07-27 13:32:30.111,0.68,-0.7,-0.23,-1.28,2.2,0.73
2026-07-27 13:32:30.279,0.68,-0.71,-0.23,-1.1,2.2,0.55
2026-07-27 13:32:30.280,0.68,-0.71,-0.23,-1.1,2.2,0.55
2026-07-27 13:32:30.281,0.68,-0.71,-0.23,-0.06,2.87,-0.37
2026-07-27 13:32:30.281,0.68,-0.71,-0.23,1.1,3.78,-1.1
2026-07-27 13:32:30.283,0.68,-0.71,-0.23,1.1,3.78,-1.1
2026-07-27 13:32:30.300,0.68,-0.71,-0.23,0.61,4.33,-0.67
2026-07-27 13:32:30.301,0.68,-0.71,-0.23,0.61,4.33,-0.67
2026-07-27 13:32:30.301,0.69,-0.71,-0.22,-1.71,4.21,0.49
2026-07-27 13:32:30.459,0.69,-0.71,-0.22,-1.71,4.21,0.49
2026-07-27 13:32:30.459,0.69,-0.71,-0.22,-3.54,3.78,1.28
2026-07-27 13:32:30.460,0.69,-0.71,-0.22,-3.54,3.78,1.28
2026-07-27 13:32:30.460,0.69,-0.71,-0.22,-3.05,3.05,1.1
2026-07-27 13:32:30.461,0.69,-0.7,-0.22,-0.55,2.62,0.06
2026-07-27 13:32:30.461,0.69,-0.7,-0.22,-0.55,2.62,0.06
2026-07-27 13:32:30.461,0.69,-0.7,-0.22,2.14,3.17,-1.04
2026-07-27 13:32:30.463,0.69,-0.7,-0.22,2.14,3.17,-1.04
2026-07-27 13:32:30.519,0.69,-0.71,-0.22,2.99,4.09,-1.28
2026-07-27 13:32:30.519,0.69,-0.71,-0.22,2.99,4.09,-1.28
2026-07-27 13:32:30.585,0.69,-0.71,-0.21,2.01,4.21,-0.92
2026-07-27 13:32:30.587,0.69,-0.71,-0.21,2.01,4.21,-0.92
2026-07-27 13:32:30.587,0.69,-0.71,-0.21,0.49,3.91,-0.49
2026-07-27 13:32:30.701,0.69,-0.7,-0.21,-0.49,3.48,-0.18
2026-07-27 13:32:30.702,0.69,-0.7,-0.21,-0.49,3.48,-0.18
2026-07-27 13:32:30.702,0.69,-0.7,-0.21,-0.49,3.11,-0.12
2026-07-27 13:32:30.703,0.69,-0.7,-0.21,-0.49,3.11,-0.12
2026-07-27 13:32:30.940,0.69,-0.7,-0.21,0.37,2.81,-0.12
2026-07-27 13:32:31.062,0.69,-0.7,-0.21,0.37,2.81,-0.12
2026-07-27 13:32:31.195,0.69,-0.71,-0.2,1.71,2.62,-0.12
2026-07-27 13:32:31.195,0.69,-0.71,-0.2,1.71,2.62,-0.12
2026-07-27 13:32:31.196,0.69,-0.71,-0.2,2.69,2.69,-0.18
2026-07-27 13:32:31.196,0.69,-0.71,-0.2,2.62,2.87,0.06
2026-07-27 13:32:31.197,0.69,-0.71,-0.2,2.62,2.87,0.06
2026-07-27 13:32:31.197,0.7,-0.7,-0.2,1.95,2.93,0.37
2026-07-27 13:32:31.197,0.7,-0.7,-0.2,1.95,2.93,0.37
2026-07-27 13:32:31.197,0.7,-0.7,-0.19,1.34,2.75,0.0
2026-07-27 13:32:32.216,0.7,-0.7,-0.19,1.34,2.75,0.0
2026-07-27 13:32:32.216,0.7,-0.71,-0.19,1.1,2.44,-0.67
2026-07-27 13:32:32.216,0.7,-0.71,-0.19,1.1,2.44,-0.67
2026-07-27 13:32:32.221,0.7,-0.71,-0.19,1.16,2.32,-0.61
2026-07-27 13:32:32.221,0.7,-0.71,-0.19,1.4,2.26,-0.18
2026-07-27 13:32:32.221,0.7,-0.71,-0.19,1.4,2.26,-0.18
2026-07-27 13:32:32.223,0.7,-0.71,-0.19,1.46,1.71,-0.18
2026-07-27 13:32:32.223,0.7,-0.71,-0.19,1.46,1.71,-0.18
2026-07-27 13:32:32.320,0.7,-0.71,-0.19,0.92,0.73,-0.37
2026-07-27 13:32:32.320,0.7,-0.71,-0.19,0.92,0.73,-0.37
2026-07-27 13:32:32.321,0.7,-0.7,-0.19,0.37,0.31,-0.37
2026-07-27 13:32:32.321,0.7,-0.7,-0.19,0.37,0.31,-0.37
2026-07-27 13:32:32.323,0.7,-0.7,-0.19,-0.12,0.43,-0.24
2026-07-27 13:32:32.324,0.7,-0.7,-0.19,-0.12,0.43,-0.24
2026-07-27 13:32:32.324,0.7,-0.7,-0.19,-0.67,0.85,0.0
2026-07-27 13:32:32.324,0.7,-0.7,-0.19,-1.16,1.28,0.43
2026-07-27 13:32:32.327,0.7,-0.7,-0.19,-1.16,1.28,0.43
2026-07-27 13:32:32.327,0.7,-0.7,-0.19,-1.1,1.22,0.55
2026-07-27 13:32:32.327,0.7,-0.7,-0.19,-1.1,1.22,0.55
2026-07-27 13:32:32.327,0.7,-0.7,-0.19,-0.61,1.22,0.49
2026-07-27 13:32:32.329,0.7,-0.7,-0.19,-0.31,1.22,0.43
2026-07-27 13:32:32.329,0.7,-0.7,-0.19,-0.31,1.22,0.43
2026-07-27 13:32:32.329,0.7,-0.7,-0.18,0.0,1.16,0.18
2026-07-27 13:32:32.330,0.7,-0.7,-0.18,0.0,1.16,0.18
2026-07-27 13:32:32.330,0.7,-0.7,-0.18,0.43,1.04,-0.06
2026-07-27 13:32:32.330,0.7,-0.7,-0.18,0.43,1.04,-0.06
2026-07-27 13:32:32.331,0.7,-0.7,-0.19,0.61,0.79,-0.24
2026-07-27 13:32:32.348,0.7,-0.7,-0.19,0.61,0.79,-0.24
2026-07-27 13:32:32.349,0.7,-0.7,-0.19,0.37,0.67,-0.31
2026-07-27 13:32:32.349,0.7,-0.7,-0.19,0.37,0.67,-0.31
2026-07-27 13:32:32.350,0.7,-0.7,-0.19,-0.06,0.61,-0.24
2026-07-27 13:32:32.350,0.7,-0.7,-0.19,-0.06,0.61,-0.24
2026-07-27 13:32:32.350,0.7,-0.7,-0.19,-0.24,0.61,-0.18
2026-07-27 13:32:32.350,0.7,-0.7,-0.19,-0.12,0.61,-0.12
2026-07-27 13:32:32.350,0.7,-0.7,-0.19,-0.12,0.61,-0.12
2026-07-27 13:32:32.351,0.7,-0.7,-0.19,0.24,0.98,-0.06
2026-07-27 13:32:32.351,0.7,-0.7,-0.19,0.24,0.98,-0.06
2026-07-27 13:32:32.351,0.7,-0.7,-0.18,0.49,1.22,0.18
2026-07-27 13:32:32.352,0.7,-0.7,-0.18,0.49,1.22,0.18
2026-07-27 13:32:32.353,0.7,-0.7,-0.18,0.31,1.1,0.55
2026-07-27 13:32:32.353,0.7,-0.7,-0.18,0.31,1.1,0.55
2026-07-27 13:32:32.353,0.7,-0.7,-0.18,0.0,0.85,0.61
2026-07-27 13:32:32.353,0.7,-0.7,-0.18,0.0,0.85,0.61
2026-07-27 13:32:32.354,0.7,-0.7,-0.18,-0.06,0.61,0.55
2026-07-27 13:32:32.354,0.7,-0.7,-0.18,-0.06,0.61,0.55
2026-07-27 13:32:32.354,0.7,-0.7,-0.18,0.0,0.49,0.73
2026-07-27 13:32:32.354,0.7,-0.7,-0.18,0.06,0.73,1.16
2026-07-27 13:32:32.355,0.7,-0.7,-0.18,0.06,0.73,1.16
2026-07-27 13:32:32.355,0.7,-0.71,-0.18,0.24,1.16,1.46
2026-07-27 13:32:32.356,0.7,-0.71,-0.18,0.24,1.16,1.46
2026-07-27 13:32:32.356,0.7,-0.7,-0.18,1.28,1.59,1.16
2026-07-27 13:32:32.356,0.7,-0.7,-0.18,1.28,1.59,1.16
2026-07-27 13:32:32.357,0.7,-0.71,-0.18,2.87,1.4,0.55
2026-07-27 13:32:32.357,0.7,-0.71,-0.18,2.87,1.4,0.55
2026-07-27 13:32:32.357,0.7,-0.71,-0.18,3.11,0.98,0.49
2026-07-27 13:32:32.358,0.7,-0.71,-0.18,3.11,0.98,0.49
2026-07-27 13:32:32.358,0.7,-0.71,-0.18,1.89,0.92,0.98
2026-07-27 13:32:32.359,0.7,-0.71,-0.18,1.89,0.92,0.98
2026-07-27 13:32:32.360,0.7,-0.71,-0.18,0.37,0.85,1.16
2026-07-27 13:32:32.360,0.7,-0.71,-0.18,-0.61,0.61,1.04
2026-07-27 13:32:32.362,0.7,-0.71,-0.17,-0.61,0.61,1.04
2026-07-27 13:32:32.362,0.7,-0.71,-0.18,-0.98,0.49,1.16
2026-07-27 13:32:32.362,0.7,-0.71,-0.18,-0.98,0.49,1.16
2026-07-27 13:32:32.363,0.7,-0.71,-0.18,-0.98,0.55,1.65
2026-07-27 13:32:32.363,0.7,-0.71,-0.18,-0.98,0.55,1.65
2026-07-27 13:32:32.363,0.7,-0.71,-0.17,-0.61,0.31,2.32
2026-07-27 13:32:32.363,0.7,-0.71,-0.17,-0.61,0.31,2.32
2026-07-27 13:32:32.920,0.7,-0.71,-0.17,0.31,-0.12,2.5
2026-07-27 13:32:32.921,0.69,-0.72,-0.17,1.71,-0.98,2.38
2026-07-27 13:32:32.921,0.69,-0.72,-0.17,1.71,-0.98,2.38
2026-07-27 13:32:32.922,0.68,-0.73,-0.18,3.85,-2.81,3.36
2026-07-27 13:32:32.922,0.68,-0.73,-0.18,3.85,-2.81,3.36
2026-07-27 13:32:32.923,0.65,-0.75,-0.19,5.43,-6.77,11.35
2026-07-27 13:32:32.923,0.65,-0.75,-0.19,5.43,-6.77,11.35
2026-07-27 13:32:32.924,0.63,-0.75,-0.21,-0.24,-13.12,32.35
2026-07-27 13:32:32.925,0.63,-0.75,-0.21,-18.49,-20.94,58.72
2026-07-27 13:32:32.925,0.6,-0.76,-0.23,-18.49,-20.94,58.72
2026-07-27 13:32:32.926,0.57,-0.79,-0.25,-45.78,-27.71,81.97
2026-07-27 13:32:32.926,0.57,-0.79,-0.25,-45.78,-27.71,81.97
2026-07-27 13:32:32.926,0.52,-0.82,-0.29,-67.26,-36.5,100.71
2026-07-27 13:32:32.927,0.52,-0.82,-0.29,-67.26,-36.5,100.71
2026-07-27 13:32:32.928,0.46,-0.84,-0.32,-65.8,-48.34,105.59
2026-07-27 13:32:32.928,0.4,-0.87,-0.35,-40.41,-50.42,91.19
2026-07-27 13:32:32.928,0.4,-0.87,-0.35,-40.41,-50.42,91.19
2026-07-27 13:32:32.929,0.34,-0.89,-0.37,-8.06,-43.21,70.13
2026-07-27 13:32:32.929,0.34,-0.89,-0.37,-8.06,-43.21,70.13
2026-07-27 13:32:32.930,0.29,-0.91,-0.38,15.01,-38.64,57.13
2026-07-27 13:32:32.930,0.29,-0.91,-0.38,15.01,-38.64,57.13
2026-07-27 13:32:32.930,0.24,-0.96,-0.32,24.66,-35.52,56.4
2026-07-27 13:32:32.931,0.14,-1.08,-0.21,28.87,-26.37,66.53
2026-07-27 13:32:32.932,0.14,-1.08,-0.21,28.87,-26.37,66.53
2026-07-27 13:32:32.932,-0.09,-1.22,-0.23,32.17,14.89,105.22
2026-07-27 13:32:32.933,-0.09,-1.22,-0.23,32.17,14.89,105.22
2026-07-27 13:32:33.219,-0.41,-1.36,-0.4,1.22,139.47,229.13
2026-07-27 13:32:33.220,-0.41,-1.36,-0.4,1.22,139.47,229.13
2026-07-27 13:32:33.220,-0.44,-1.28,-0.52,-7.87,188.72,313.6
2026-07-27 13:32:33.221,-0.27,-1.02,-0.47,54.32,89.9,222.78
2026-07-27 13:32:33.221,-0.27,-1.02,-0.47,54.32,89.9,222.78
2026-07-27 13:32:33.221,-0.26,-0.9,-0.22,109.13,16.97,80.99
2026-07-27 13:32:33.222,-0.26,-0.9,-0.22,109.13,16.97,80.99
2026-07-27 13:32:33.222,-0.29,-0.9,0.06,124.45,-20.45,-6.96
2026-07-27 13:32:33.223,-0.29,-0.9,0.06,124.45,-20.45,-6.96
2026-07-27 13:32:33.223,-0.23,-1.05,0.22,122.38,-77.94,-61.83
2026-07-27 13:32:33.223,-0.06,-1.25,0.3,135.13,-126.53,-114.38
2026-07-27 13:32:33.224,-0.06,-1.25,0.3,135.13,-126.53,-114.38
2026-07-27 13:32:33.224,0.07,-1.32,0.31,172.85,-95.7,-147.89
2026-07-27 13:32:33.341,0.19,-1.28,0.36,168.03,10.68,-141.54
2026-07-27 13:32:33.341,0.19,-1.28,0.36,168.03,10.68,-141.54
2026-07-27 13:32:33.341,0.33,-1.19,0.27,83.44,104.43,-100.77
2026-07-27 13:32:33.342,0.33,-1.19,0.27,83.44,104.43,-100.77
2026-07-27 13:32:34.179,0.37,-1.02,0.07,26.73,132.14,-48.22
2026-07-27 13:32:34.180,0.37,-1.02,0.07,26.73,132.14,-48.22
2026-07-27 13:32:34.180,0.34,-0.87,0.08,47.36,119.45,-8.73
2026-07-27 13:32:34.181,0.3,-0.81,0.2,61.16,99.24,-6.9
2026-07-27 13:32:34.182,0.3,-0.81,0.2,61.16,99.24,-6.9
2026-07-27 13:32:34.182,0.24,-0.81,0.19,2.32,95.21,-35.83
2026-07-27 13:32:34.183,0.24,-0.81,0.19,2.32,95.21,-35.83
2026-07-27 13:32:34.183,0.18,-0.84,0.12,-105.47,126.4,-53.16
2026-07-27 13:32:34.185,0.18,-0.84,0.12,-105.47,126.4,-53.16
2026-07-27 13:32:34.185,0.13,-0.86,0.07,-133.48,134.52,-59.02
2026-07-27 13:32:34.185,0.06,-0.86,0.08,-30.64,87.83,-85.08
2026-07-27 13:32:34.186,0.06,-0.86,0.08,-30.64,87.83,-85.08
2026-07-27 13:32:34.186,0.09,-0.84,0.21,105.22,44.07,-125.98
2026-07-27 13:32:34.187,0.09,-0.84,0.21,105.22,44.07,-125.98
2026-07-27 13:32:34.188,0.18,-0.79,0.41,182.74,46.87,-178.77
2026-07-27 13:32:34.188,0.18,-0.79,0.41,180.24,95.89,-233.46
2026-07-27 13:32:34.188,0.23,-0.7,0.55,180.24,95.89,-233.46
2026-07-27 13:32:34.189,0.27,-0.63,0.64,117.0,159.0,-262.21
2026-07-27 13:32:34.189,0.27,-0.63,0.64,117.0,159.0,-262.21
2026-07-27 13:32:34.190,0.27,-0.59,0.68,42.66,203.06,-252.38
2026-07-27 13:32:34.190,0.27,-0.59,0.68,42.66,203.06,-252.38
2026-07-27 13:32:34.191,0.2,-0.51,0.66,28.32,218.87,-205.02
2026-07-27 13:32:34.301,0.08,-0.42,0.66,66.77,217.65,-161.07
2026-07-27 13:32:34.301,0.08,-0.42,0.66,66.77,217.65,-161.07
2026-07-27 13:32:34.302,-0.02,-0.33,0.68,91.61,194.76,-129.46
2026-07-27 13:32:34.304,-0.02,-0.33,0.68,91.61,194.76,-129.46
2026-07-27 13:32:34.304,-0.07,-0.26,0.66,77.7,150.94,-93.87
2026-07-27 13:32:34.305,-0.07,-0.26,0.66,37.78,100.1,-64.94
2026-07-27 13:32:34.305,-0.1,-0.23,0.59,37.78,100.1,-64.94
2026-07-27 13:32:34.306,-0.07,-0.21,0.51,11.41,40.34,-40.59
2026-07-27 13:32:34.307,-0.07,-0.21,0.51,11.41,40.34,-40.59
2026-07-27 13:32:34.307,-0.05,-0.12,0.52,35.46,-5.07,-16.91
2026-07-27 13:32:34.307,-0.05,-0.12,0.52,35.46,-5.07,-16.91
2026-07-27 13:32:34.308,-0.11,0.03,0.54,83.68,-17.27,4.64
2026-07-27 13:32:34.308,-0.11,0.03,0.54,83.68,-17.27,4.64
2026-07-27 13:32:34.309,-0.2,0.14,0.44,100.65,-30.64,20.45
2026-07-27 13:32:34.309,-0.2,0.14,0.44,94.73,-89.29,21.3
2026-07-27 13:32:34.310,-0.15,0.25,0.36,94.73,-89.29,21.3
2026-07-27 13:32:34.310,0.11,0.5,0.53,105.29,-201.11,11.78
2026-07-27 13:32:34.311,0.11,0.5,0.53,105.29,-201.11,11.78
2026-07-27 13:32:34.311,0.63,0.8,0.93,123.29,-327.03,-4.64
2026-07-27 13:32:34.311,0.63,0.8,0.93,123.29,-327.03,-4.64
2026-07-27 13:32:34.312,1.25,0.83,1.19,102.11,-382.02,-43.27
2026-07-27 13:32:34.544,1.61,0.62,1.12,39.79,-296.94,-98.14
2026-07-27 13:32:34.553,1.61,0.62,1.12,39.79,-296.94,-98.14
2026-07-27 13:32:34.565,1.97,0.29,1.01,-26.0,-123.66,-171.87
2026-07-27 13:32:34.565,1.97,0.29,1.01,-26.0,-123.66,-171.87
2026-07-27 13:32:34.566,2.36,-0.17,0.85,-53.53,28.99,-232.91
2026-07-27 13:32:34.575,1.74,-0.09,0.71,-50.48,116.94,-165.59
2026-07-27 13:32:34.582,1.74,-0.09,0.71,-50.48,116.94,-165.59
2026-07-27 13:32:34.590,0.56,0.42,0.63,-89.9,82.03,-6.9
2026-07-27 13:32:34.597,0.56,0.42,0.63,-89.9,82.03,-6.9
2026-07-27 13:32:34.597,0.21,0.48,0.52,-151.86,-30.58,52.61
2026-07-27 13:32:35.379,0.21,0.48,0.52,-151.86,-30.58,52.61
2026-07-27 13:32:35.380,0.51,0.3,0.65,-135.25,-75.93,30.76
2026-07-27 13:32:35.386,0.74,0.25,0.81,-69.15,-47.18,32.29
2026-07-27 13:32:35.388,0.74,0.25,0.81,-69.15,-47.18,32.29
2026-07-27 13:32:35.388,0.76,0.23,0.84,-35.64,-3.05,31.62
2026-07-27 13:32:35.392,0.76,0.23,0.84,-35.64,-3.05,31.62
2026-07-27 13:32:35.392,0.72,0.11,0.84,-33.45,25.7,17.15
2026-07-27 13:32:35.392,0.72,0.11,0.84,-33.45,25.7,17.15
2026-07-27 13:32:35.392,0.73,-0.05,0.88,-44.49,16.42,4.58
2026-07-27 13:32:35.392,0.81,-0.16,0.94,-82.58,-18.62,33.63
2026-07-27 13:32:35.392,0.81,-0.16,0.94,-82.58,-18.62,33.63
2026-07-27 13:32:35.392,0.9,-0.25,0.98,-158.51,-42.6,122.86
2026-07-27 13:32:35.392,0.9,-0.25,0.98,-158.51,-42.6,122.86
2026-07-27 13:32:35.740,1.03,-0.39,1.02,-226.93,-44.19,197.75
2026-07-27 13:32:35.741,1.03,-0.39,1.02,-227.36,-37.54,131.35
2026-07-27 13:32:35.741,1.06,-0.46,0.99,-227.36,-37.54,131.35
2026-07-27 13:32:35.741,0.94,-0.34,0.87,-177.98,-45.1,-62.32
2026-07-27 13:32:35.742,0.94,-0.34,0.87,-177.98,-45.1,-62.32
2026-07-27 13:32:35.743,0.77,-0.13,0.68,-137.21,-75.5,-228.27
2026-07-27 13:32:35.743,0.77,-0.13,0.68,-137.21,-75.5,-228.27
2026-07-27 13:32:35.743,0.57,0.13,0.41,-103.03,-125.43,-299.99
2026-07-27 13:32:35.752,0.38,0.32,0.12,-63.11,-178.83,-267.64
2026-07-27 13:32:35.752,0.38,0.32,0.12,-63.11,-178.83,-267.64
2026-07-27 13:32:35.752,0.22,0.29,-0.14,-42.11,-228.03,-125.67
2026-07-27 13:32:35.752,0.22,0.29,-0.14,-42.11,-228.03,-125.67
2026-07-27 13:32:35.752,0.2,0.12,-0.32,-42.24,-243.71,24.66
2026-07-27 13:32:35.753,0.2,0.12,-0.32,-42.24,-243.71,24.66
2026-07-27 13:32:35.753,0.23,0.13,-0.43,-25.88,-170.72,49.32
2026-07-27 13:32:35.754,0.18,0.3,-0.46,20.14,5.25,4.21
2026-07-27 13:32:35.754,0.18,0.3,-0.46,20.14,5.25,4.21
2026-07-27 13:32:35.754,0.18,0.38,-0.26,93.2,254.64,12.7
2026-07-27 13:32:35.982,0.18,0.38,-0.26,93.2,254.64,12.7
2026-07-27 13:32:35.983,0.2,0.38,0.25,196.78,510.86,89.54
2026-07-27 13:32:35.984,-0.26,0.15,1.07,288.7,748.72,226.01
2026-07-27 13:32:35.984,-0.26,0.15,1.07,288.7,748.72,226.01
2026-07-27 13:32:35.985,-0.32,-0.24,1.35,319.46,726.07,264.83
2026-07-27 13:32:35.985,-0.32,-0.24,1.35,319.46,726.07,264.83
2026-07-27 13:32:35.985,0.44,-0.26,0.95,239.99,149.84,121.83
2026-07-27 13:32:35.985,0.44,-0.26,0.95,89.78,-324.52,-0.98
2026-07-27 13:32:35.986,0.78,0.01,0.76,89.78,-324.52,-0.98
2026-07-27 13:32:35.986,0.62,0.19,0.83,13.98,-231.63,10.25
2026-07-27 13:32:35.986,0.62,0.19,0.83,13.98,-231.63,10.25
2026-07-27 13:32:35.986,0.43,0.26,0.99,5.62,-16.78,77.58
2026-07-27 13:32:35.987,0.43,0.26,0.99,5.62,-16.78,77.58
2026-07-27 13:32:35.988,0.36,0.19,1.03,-14.22,70.68,87.95
2026-07-27 13:32:35.988,0.36,0.19,1.03,-14.22,70.68,87.95
2026-07-27 13:32:35.993,0.37,0.02,0.97,-31.8,47.67,41.63
2026-07-27 13:32:35.993,0.42,-0.09,0.94,-44.62,-2.38,33.2
2026-07-27 13:32:35.994,0.42,-0.09,0.94,-44.62,-2.38,33.2
2026-07-27 13:32:35.994,0.51,-0.1,0.93,-64.64,-37.84,67.26
2026-07-27 13:32:35.994,0.51,-0.1,0.93,-64.64,-37.84,67.26
2026-07-27 13:32:35.995,0.54,-0.12,0.89,-67.38,-35.77,60.79
2026-07-27 13:32:35.995,0.54,-0.12,0.89,-67.38,-35.77,60.79
2026-07-27 13:32:36.001,0.46,-0.2,0.84,-63.11,29.85,36.56
2026-07-27 13:32:36.338,0.37,-0.32,0.86,-81.85,140.99,61.89
2026-07-27 13:32:36.339,0.37,-0.32,0.86,-81.85,140.99,61.89
2026-07-27 13:32:36.340,0.22,-0.39,0.86,-84.84,270.45,90.39
2026-07-27 13:32:36.340,0.22,-0.39,0.86,-84.84,270.45,90.39
2026-07-27 13:32:36.341,-0.03,-0.27,0.85,-15.08,376.89,62.19
2026-07-27 13:32:36.342,-0.03,-0.27,0.85,-15.08,376.89,62.19
2026-07-27 13:32:36.342,-0.28,-0.1,0.95,59.75,359.56,11.41
2026-07-27 13:32:36.343,-0.34,-0.01,1.11,73.85,183.11,-2.5
2026-07-27 13:32:36.343,-0.34,-0.01,1.11,73.85,183.11,-2.5
2026-07-27 13:32:36.344,-0.25,0.07,1.12,81.67,-33.33,19.41
2026-07-27 13:32:36.345,-0.25,0.07,1.12,81.67,-33.33,19.41
2026-07-27 13:32:36.345,-0.19,0.06,1.02,80.32,-136.11,41.26
2026-07-27 13:32:36.345,-0.19,0.06,1.02,80.32,-136.11,41.26
2026-07-27 13:32:36.346,-0.16,-0.07,1.01,41.99,-126.46,30.82
2026-07-27 13:32:36.347,-0.08,-0.14,1.04,-0.55,-84.78,-11.72
2026-07-27 13:32:36.347,-0.08,-0.14,1.04,-0.55,-84.78,-11.72
2026-07-27 13:32:36.348,-0.06,-0.16,1.05,-45.04,-10.13,-43.58
2026-07-27 13:32:36.349,-0.06,-0.16,1.05,-45.04,-10.13,-43.58
2026-07-27 13:32:36.349,-0.17,-0.19,1.01,-103.27,75.26,-39.92
2026-07-27 13:32:36.349,-0.17,-0.19,1.01,-103.27,75.26,-39.92
2026-07-27 13:32:36.350,-0.3,-0.29,0.95,-146.48,100.95,-34.61
2026-07-27 13:32:36.350,-0.36,-0.36,0.9,-104.0,59.33,-26.18
2026-07-27 13:32:36.351,-0.36,-0.36,0.9,-104.0,59.33,-26.18
2026-07-27 13:32:36.352,-0.34,-0.24,0.84,22.77,15.56,-1.28
2026-07-27 13:32:36.352,-0.34,-0.24,0.84,22.77,15.56,-1.28
2026-07-27 13:32:36.399,-0.33,-0.07,0.81,118.59,7.75,-10.68
2026-07-27 13:32:36.399,-0.33,-0.07,0.81,118.59,7.75,-10.68
2026-07-27 13:32:36.463,-0.34,-0.05,0.83,110.66,11.96,-57.62
2026-07-27 13:32:36.470,-0.34,-0.09,0.85,48.46,1.22,-88.38
2026-07-27 13:32:36.470,-0.34,-0.09,0.85,48.46,1.22,-88.38
2026-07-27 13:32:36.523,-0.29,-0.14,0.86,12.51,-32.84,-93.87
2026-07-27 13:32:36.525,-0.29,-0.14,0.86,12.51,-32.84,-93.87
2026-07-27 13:32:36.712,-0.17,-0.2,0.89,6.53,-87.89,-107.97
2026-07-27 13:32:36.712,-0.17,-0.2,0.89,6.53,-87.89,-107.97
2026-07-27 13:32:36.713,-0.01,-0.28,1.0,4.39,-144.23,-114.01
2026-07-27 13:32:36.713,0.13,-0.29,1.08,-2.08,-174.74,-79.65
2026-07-27 13:32:36.716,0.13,-0.29,1.08,-2.08,-174.74,-79.65
2026-07-27 13:32:36.716,0.21,-0.24,1.06,-13.06,-168.27,-36.99
2026-07-27 13:32:36.716,0.21,-0.24,1.06,-13.06,-168.27,-36.99
2026-07-27 13:32:36.716,0.29,-0.22,0.98,-27.47,-131.35,-22.95
2026-07-27 13:32:36.760,0.29,-0.22,0.98,-27.47,-131.35,-22.95
2026-07-27 13:32:36.763,0.34,-0.23,0.93,-30.21,-74.34,-29.24
2026-07-27 13:32:36.764,0.33,-0.24,0.91,-15.38,-12.33,-28.26
2026-07-27 13:32:36.819,0.33,-0.24,0.91,-15.38,-12.33,-28.26
2026-07-27 13:32:36.820,0.29,-0.23,0.88,2.87,32.04,-18.19
2026-07-27 13:32:37.119,0.29,-0.23,0.88,2.87,32.04,-18.19
2026-07-27 13:32:37.121,0.23,-0.2,0.92,17.88,54.14,-16.91
2026-07-27 13:32:37.122,0.23,-0.2,0.92,22.58,66.77,-24.17
2026-07-27 13:32:37.122,0.18,-0.17,0.96,22.58,66.77,-24.17
2026-07-27 13:32:37.122,0.13,-0.2,0.95,-1.95,67.44,-23.99
2026-07-27 13:32:37.122,0.13,-0.2,0.95,-1.95,67.44,-23.99
2026-07-27 13:32:37.123,0.11,-0.27,0.91,-41.87,54.69,-10.99
2026-07-27 13:32:37.123,0.11,-0.27,0.91,-41.87,54.69,-10.99
2026-07-27 13:32:37.124,0.1,-0.28,0.87,-62.07,46.14,4.94
2026-07-27 13:32:37.124,0.1,-0.28,0.87,-59.39,44.43,10.19
2026-07-27 13:32:37.124,0.09,-0.27,0.86,-59.39,44.43,10.19
2026-07-27 13:32:37.124,0.07,-0.32,0.91,-45.78,39.55,7.93
2026-07-27 13:32:37.125,0.07,-0.32,0.91,-45.78,39.55,7.93
2026-07-27 13:32:37.126,0.05,-0.4,0.97,-37.41,29.91,13.37
2026-07-27 13:32:37.243,0.05,-0.4,0.97,-37.41,29.91,13.37
2026-07-27 13:32:37.245,0.03,-0.45,0.97,-41.08,14.16,24.9
2026-07-27 13:32:37.249,0.03,-0.45,0.97,-32.65,-14.4,26.92
2026-07-27 13:32:37.253,0.03,-0.42,0.9,-32.65,-14.4,26.92
2026-07-27 13:32:37.253,0.09,-0.41,0.86,12.51,-51.7,15.99
2026-07-27 13:32:37.361,0.09,-0.41,0.86,12.51,-51.7,15.99
2026-07-27 13:32:37.362,0.17,-0.4,0.9,66.47,-60.3,-0.55
2026-07-27 13:32:37.362,0.17,-0.4,0.9,104.74,-29.6,-21.06
2026-07-27 13:32:37.363,0.18,-0.33,0.96,104.74,-29.6,-21.06
2026-07-27 13:32:37.363,0.15,-0.22,1.0,123.17,-16.85,-36.19
2026-07-27 13:32:37.600,0.15,-0.22,1.0,123.17,-16.85,-36.19
2026-07-27 13:32:37.601,0.17,-0.21,1.04,97.66,-39.31,-26.49
2026-07-27 13:32:37.601,0.17,-0.21,1.04,97.66,-39.31,-26.49
2026-07-27 13:32:37.602,0.19,-0.28,1.02,33.26,-50.05,2.5
2026-07-27 13:32:37.602,0.19,-0.28,1.02,-22.16,-36.68,16.91
2026-07-27 13:32:37.603,0.17,-0.33,0.99,-22.16,-36.68,16.91
2026-07-27 13:32:37.604,0.19,-0.29,0.98,-28.93,-38.88,-18.31
2026-07-27 13:32:37.604,0.19,-0.29,0.98,-28.93,-38.88,-18.31
2026-07-27 13:32:37.605,0.28,-0.17,0.92,2.69,-67.26,-75.93
2026-07-27 13:32:37.606,0.28,-0.17,0.92,2.69,-67.26,-75.93
2026-07-27 13:32:37.606,0.37,-0.08,0.87,37.11,-85.39,-101.68
2026-07-27 13:32:37.790,0.47,0.03,0.82,61.34,-85.14,-95.15
2026-07-27 13:32:37.794,0.47,0.03,0.82,61.34,-85.14,-95.15
2026-07-27 13:32:37.796,0.57,0.16,0.76,73.67,-76.17,-70.86
2026-07-27 13:32:37.796,0.57,0.16,0.76,73.67,-76.17,-70.86
2026-07-27 13:32:37.797,0.63,0.2,0.78,70.56,-50.6,-34.67
2026-07-27 13:32:37.798,0.63,0.2,0.78,70.56,-50.6,-34.67
2026-07-27 13:32:37.799,0.65,0.16,0.82,65.86,-17.46,1.53
2026-07-27 13:32:37.844,0.65,0.16,0.82,74.65,16.66,20.45
2026-07-27 13:32:37.844,0.63,0.21,0.9,74.65,16.66,20.45
2026-07-27 13:32:37.844,0.58,0.32,0.96,86.12,43.03,28.75
2026-07-27 13:32:38.499,0.58,0.32,0.96,86.12,43.03,28.75
2026-07-27 13:32:38.500,0.53,0.36,0.91,82.28,46.94,46.2
2026-07-27 13:32:38.501,0.53,0.36,0.91,82.28,46.94,46.2
2026-07-27 13:32:38.502,0.48,0.31,0.87,62.01,39.98,70.86
2026-07-27 13:32:38.502,0.46,0.26,0.91,40.89,34.3,84.17
2026-07-27 13:32:38.502,0.46,0.26,0.91,40.89,34.3,84.17
2026-07-27 13:32:38.504,0.44,0.3,0.99,34.55,34.55,75.93
2026-07-27 13:32:38.504,0.44,0.3,0.99,34.55,34.55,75.93
2026-07-27 13:32:38.506,0.38,0.35,1.04,33.63,37.11,61.52
2026-07-27 13:32:38.506,0.38,0.35,1.04,33.63,37.11,61.52
2026-07-27 13:32:38.506,0.29,0.34,0.97,26.06,23.5,61.52
2026-07-27 13:32:38.506,0.26,0.25,0.82,16.66,-8.18,74.28
2026-07-27 13:32:38.508,0.26,0.25,0.82,16.66,-8.18,74.28
2026-07-27 13:32:38.513,0.3,0.15,0.72,5.07,-32.78,78.98
2026-07-27 13:32:38.513,0.3,0.15,0.72,5.07,-32.78,78.98
2026-07-27 13:32:38.519,0.34,0.12,0.71,-1.04,-29.85,58.53
2026-07-27 13:32:38.519,0.34,0.12,0.71,-1.04,-29.85,58.53
2026-07-27 13:32:38.519,0.37,0.21,0.74,5.07,-10.19,22.46
2026-07-27 13:32:38.525,0.39,0.34,0.78,14.04,9.34,-2.87
2026-07-27 13:32:38.525,0.39,0.34,0.78,14.04,9.34,-2.87
2026-07-27 13:32:38.525,0.38,0.36,0.83,16.11,25.63,-4.21
2026-07-27 13:32:38.525,0.38,0.36,0.83,16.11,25.63,-4.21
2026-07-27 13:32:38.526,0.34,0.29,0.86,7.51,34.79,6.47
2026-07-27 13:32:38.526,0.34,0.29,0.86,7.51,34.79,6.47
2026-07-27 13:32:38.526,0.32,0.22,0.9,-3.36,35.46,11.84
2026-07-27 13:32:38.526,0.32,0.22,0.9,-3.36,35.46,11.84
2026-07-27 13:32:38.527,0.32,0.18,0.93,-7.81,30.52,7.2
2026-07-27 13:32:38.527,0.36,0.19,0.97,-3.66,23.62,-6.04
2026-07-27 13:32:38.527,0.36,0.19,0.97,-3.66,23.62,-6.04
2026-07-27 13:32:38.527,0.4,0.26,1.0,6.65,13.43,-22.71
2026-07-27 13:32:38.919,0.4,0.26,1.0,6.65,13.43,-22.71
2026-07-27 13:32:38.920,0.42,0.33,0.98,15.08,-3.36,-30.82
2026-07-27 13:32:38.920,0.42,0.33,0.98,15.08,-3.36,-30.82
2026-07-27 13:32:38.921,0.41,0.33,0.95,15.32,-19.65,-22.58
2026-07-27 13:32:38.921,0.37,0.25,0.98,7.39,-27.34,-5.37
2026-07-27 13:32:38.923,0.37,0.25,0.98,7.39,-27.34,-5.37
2026-07-27 13:32:38.924,0.34,0.16,1.03,-5.13,-32.41,5.86
2026-07-27 13:32:38.924,0.34,0.16,1.03,-5.13,-32.41,5.86
2026-07-27 13:32:38.924,0.33,0.13,1.04,-14.16,-40.53,2.69
2026-07-27 13:32:38.925,0.33,0.13,1.04,-14.16,-40.53,2.69
2026-07-27 13:32:38.925,0.35,0.2,1.04,-18.55,-45.72,-10.62
2026-07-27 13:32:38.926,0.35,0.2,1.04,-18.55,-45.72,-10.62
2026-07-27 13:32:38.926,0.37,0.27,1.06,-29.85,-41.93,-20.14
2026-07-27 13:32:38.927,0.37,0.27,1.08,-52.06,-36.01,-17.7
2026-07-27 13:32:38.928,0.37,0.27,1.08,-52.06,-36.01,-17.7
2026-07-27 13:32:38.928,0.38,0.24,1.04,-73.55,-36.87,-13.24
2026-07-27 13:32:38.929,0.38,0.24,1.04,-73.55,-36.87,-13.24
2026-07-27 13:32:38.929,0.4,0.25,0.98,-84.78,-38.33,-15.56
2026-07-27 13:32:38.978,0.4,0.25,0.98,-84.78,-38.33,-15.56
2026-07-27 13:32:38.979,0.41,0.24,0.92,-92.29,-29.24,-16.6
2026-07-27 13:32:39.160,0.4,0.14,0.85,-105.04,-10.13,-11.11
2026-07-27 13:32:39.161,0.4,0.14,0.85,-105.04,-10.13,-11.11
2026-07-27 13:32:39.162,0.38,-0.02,0.74,-122.44,16.54,-6.16
2026-07-27 13:32:39.162,0.38,-0.02,0.74,-122.44,16.54,-6.16
2026-07-27 13:32:39.163,0.38,-0.19,0.68,-137.15,52.49,-8.06
2026-07-27 13:32:39.163,0.38,-0.19,0.68,-137.15,52.49,-8.06
2026-07-27 13:32:39.164,0.41,-0.29,0.7,-133.18,90.82,-18.98
2026-07-27 13:32:39.164,0.47,-0.28,0.76,-104.43,119.51,-35.03
2026-07-27 13:32:39.164,0.47,-0.28,0.76,-104.43,119.51,-35.03
2026-07-27 13:32:39.288,0.53,-0.22,0.85,-61.1,137.27,-45.65
2026-07-27 13:32:39.289,0.53,-0.22,0.85,-61.1,137.27,-45.65
2026-07-27 13:32:39.289,0.51,-0.17,1.03,-31.19,147.77,-44.19
2026-07-27 13:32:39.290,0.37,-0.29,1.2,-51.94,138.49,-28.63
2026-07-27 13:32:39.639,0.37,-0.29,1.2,-51.94,138.49,-28.63
2026-07-27 13:32:39.640,0.21,-0.48,1.21,-92.22,100.34,-16.3
2026-07-27 13:32:39.641,0.21,-0.48,1.21,-92.22,100.34,-16.3
2026-07-27 13:32:39.641,0.14,-0.5,1.04,-107.91,64.64,-14.83
2026-07-27 13:32:39.642,0.14,-0.48,0.8,-125.79,57.74,-10.62
2026-07-27 13:32:39.644,0.14,-0.48,0.8,-125.79,57.74,-10.62
2026-07-27 13:32:39.646,0.13,-0.54,0.65,-157.1,64.03,-7.02
2026-07-27 13:32:39.646,0.13,-0.54,0.65,-157.1,64.03,-7.02
2026-07-27 13:32:39.646,0.09,-0.65,0.64,-154.36,64.21,-6.47
2026-07-27 13:32:39.646,0.09,-0.65,0.64,-154.36,64.21,-6.47
2026-07-27 13:32:39.646,0.06,-0.7,0.64,-93.81,57.07,-4.33
2026-07-27 13:32:39.648,0.04,-0.68,0.59,-23.44,47.18,-6.71
2026-07-27 13:32:39.648,0.04,-0.68,0.59,-23.44,47.18,-6.71
2026-07-27 13:32:39.649,0.04,-0.66,0.52,10.38,30.7,-18.98
2026-07-27 13:32:39.652,0.04,-0.66,0.52,10.38,30.7,-18.98
2026-07-27 13:32:39.652,0.05,-0.68,0.5,15.62,8.79,-31.25
2026-07-27 13:32:39.653,0.05,-0.68,0.5,15.62,8.79,-31.25
2026-07-27 13:32:39.761,0.06,-0.71,0.52,16.05,-8.67,-30.94
2026-07-27 13:32:39.762,0.08,-0.73,0.54,20.14,-22.03,-19.59
2026-07-27 13:32:39.772,0.08,-0.73,0.54,20.14,-22.03,-19.59
2026-07-27 13:32:39.773,0.1,-0.74,0.56,22.83,-34.24,-6.77
2026-07-27 13:32:39.888,0.1,-0.74,0.56,22.83,-34.24,-6.77
2026-07-27 13:32:39.888,0.12,-0.75,0.58,22.09,-32.35,5.55
2026-07-27 13:32:39.889,0.12,-0.75,0.58,22.09,-32.35,5.55
2026-07-27 13:32:39.889,0.11,-0.75,0.59,33.87,-14.22,21.55
2026-07-27 13:32:39.889,0.11,-0.7,0.65,80.14,4.7,40.83
2026-07-27 13:32:39.890,0.11,-0.7,0.65,80.14,4.7,40.83
2026-07-27 13:32:39.939,0.06,-0.58,0.73,178.83,31.13,59.08
2026-07-27 13:32:39.940,0.06,-0.58,0.73,178.83,31.13,59.08
2026-07-27 13:32:40.119,-0.09,-0.35,0.74,308.78,69.09,77.76
2026-07-27 13:32:40.120,-0.09,-0.35,0.74,308.78,69.09,77.76
2026-07-27 13:32:40.120,-0.24,-0.08,0.78,383.85,65.67,91.19
2026-07-27 13:32:40.121,-0.24,0.16,0.88,346.37,9.34,90.03
2026-07-27 13:32:40.121,-0.24,0.16,0.88,346.37,9.34,90.03
2026-07-27 13:32:40.122,-0.11,0.43,0.92,244.45,-30.82,75.74
2026-07-27 13:32:40.122,-0.11,0.43,0.92,244.45,-30.82,75.74
2026-07-27 13:32:40.123,0.02,0.67,0.92,141.11,-25.82,53.34
2026-07-27 13:32:40.300,0.02,0.67,0.92,141.11,-25.82,53.34
2026-07-27 13:32:40.300,0.05,0.73,0.94,37.29,-22.34,25.33
2026-07-27 13:32:40.302,0.05,0.63,0.98,-72.2,-50.11,-5.31
2026-07-27 13:32:40.303,0.05,0.63,0.98,-72.2,-50.11,-5.31
2026-07-27 13:32:40.304,0.05,0.45,1.0,-157.29,-63.9,-27.95
2026-07-27 13:32:40.304,0.05,0.45,1.0,-157.29,-63.9,-27.95
2026-07-27 13:32:40.305,0.08,0.22,1.01,-232.24,-49.93,-36.62
2026-07-27 13:32:40.305,0.08,0.22,1.01,-232.24,-49.93,-36.62
2026-07-27 13:32:40.306,0.08,0.22,1.01,-232.24,-49.93,-36.62
2026-07-27 13:32:40.780,0.08,0.22,1.01,-232.24,-49.93,-36.62
2026-07-27 13:32:40.782,0.31,-0.34,0.97,-295.04,-140.5,-45.59
2026-07-27 13:32:40.784,0.45,-0.44,0.85,-147.58,-200.68,-46.14
2026-07-27 13:32:40.788,0.45,-0.44,0.85,-147.58,-200.68,-46.14
2026-07-27 13:32:40.790,0.5,-0.41,0.71,4.03,-180.54,-35.95
2026-07-27 13:32:40.820,0.5,-0.41,0.71,4.03,-180.54,-35.95
2026-07-27 13:32:40.821,0.5,-0.39,0.65,65.98,-102.66,-21.97
2026-07-27 13:32:40.821,0.5,-0.39,0.65,59.14,-24.41,-8.42
2026-07-27 13:32:40.821,0.5,-0.39,0.69,59.14,-24.41,-8.42
2026-07-27 13:32:40.821,0.52,-0.41,0.79,29.17,24.6,5.98
2026-07-27 13:32:40.821,0.52,-0.41,0.79,29.17,24.6,5.98
2026-07-27 13:32:40.821,0.56,-0.39,0.9,7.02,33.2,22.95
2026-07-27 13:32:40.821,0.56,-0.39,0.9,7.02,33.2,22.95
2026-07-27 13:32:40.825,0.57,-0.35,0.94,6.77,2.62,36.5
2026-07-27 13:32:40.826,0.57,-0.35,0.94,6.77,2.62,36.5
2026-07-27 13:32:40.826,0.58,-0.32,0.87,26.25,-49.74,34.61
2026-07-27 13:32:40.826,0.62,-0.32,0.79,57.5,-89.17,19.78
2026-07-27 13:32:40.826,0.62,-0.32,0.79,57.5,-89.17,19.78
2026-07-27 13:32:40.826,0.66,-0.26,0.78,81.05,-81.05,14.65
2026-07-27 13:32:40.826,0.66,-0.26,0.78,81.05,-81.05,14.65
2026-07-27 13:32:40.826,0.66,-0.07,0.9,93.02,-39.73,21.91
2026-07-27 13:32:40.961,0.66,-0.07,0.9,93.02,-39.73,21.91
2026-07-27 13:32:41.148,0.61,0.15,1.04,91.98,-7.93,30.82
2026-07-27 13:32:41.149,0.57,0.26,1.08,61.1,2.44,47.18
2026-07-27 13:32:41.150,0.57,0.26,1.08,61.1,2.44,47.18
2026-07-27 13:32:41.150,0.58,0.22,1.02,17.94,-6.59,64.39
2026-07-27 13:32:41.150,0.58,0.22,1.02,17.94,-6.59,64.39
2026-07-27 13:32:41.152,0.6,0.14,0.9,-5.25,-18.13,67.44
2026-07-27 13:32:41.152,0.6,0.14,0.9,-5.25,-18.13,67.44
2026-07-27 13:32:41.152,0.55,0.08,0.78,-2.26,-4.46,58.35
2026-07-27 13:32:41.152,0.41,0.08,0.74,16.85,31.49,49.13
2026-07-27 13:32:41.154,0.41,0.08,0.74,16.85,31.49,49.13
2026-07-27 13:32:41.154,0.27,0.03,0.71,24.96,59.94,59.39
2026-07-27 13:32:41.154,0.27,0.03,0.71,24.96,59.94,59.39
2026-07-27 13:32:41.154,0.26,-0.13,0.69,7.51,49.01,77.39
2026-07-27 13:32:41.154,0.26,-0.13,0.69,7.51,49.01,77.39
2026-07-27 13:32:41.154,0.38,-0.18,0.68,5.19,16.36,55.48
2026-07-27 13:32:41.210,0.52,-0.02,0.74,39.98,17.52,2.5
2026-07-27 13:32:41.210,0.52,-0.02,0.74,39.98,17.52,2.5
2026-07-27 13:32:41.381,0.56,0.2,0.94,72.2,71.41,-22.16
2026-07-27 13:32:41.381,0.56,0.2,0.94,72.2,71.41,-22.16
2026-07-27 13:32:41.382,0.48,0.28,1.13,62.19,130.0,3.54
2026-07-27 13:32:41.382,0.48,0.28,1.13,62.19,130.0,3.54
2026-07-27 13:32:41.382,0.34,0.18,1.18,11.17,134.09,44.92
2026-07-27 13:32:41.382,0.24,0.03,1.12,-45.84,91.98,67.44
2026-07-27 13:32:41.383,0.24,0.03,1.12,-45.84,91.98,67.44
2026-07-27 13:32:41.383,0.18,-0.15,1.04,-85.51,54.02,76.84
2026-07-27 13:32:41.438,0.18,-0.15,1.04,-85.51,54.02,76.84
2026-07-27 13:32:41.439,0.14,-0.27,1.0,-98.75,40.34,79.04
2026-07-27 13:32:41.739,0.13,-0.28,0.97,-87.95,34.06,70.25
2026-07-27 13:32:41.740,0.13,-0.28,0.97,-87.95,34.06,70.25
2026-07-27 13:32:41.740,0.12,-0.27,0.97,-79.04,25.39,61.28
2026-07-27 13:32:41.741,0.12,-0.27,0.97,-79.04,25.39,61.28
2026-07-27 13:32:41.741,0.08,-0.33,1.0,-90.33,20.39,63.05
2026-07-27 13:32:41.742,0.08,-0.33,1.0,-90.33,20.39,63.05
2026-07-27 13:32:41.742,0.04,-0.43,1.03,-112.85,18.07,65.37
2026-07-27 13:32:41.743,0.03,-0.49,1.0,-129.15,9.16,57.31
2026-07-27 13:32:41.744,0.03,-0.49,1.0,-129.15,9.16,57.31
2026-07-27 13:32:41.744,0.02,-0.51,0.95,-129.76,-5.43,45.04
2026-07-27 13:32:41.745,0.02,-0.51,0.95,-129.76,-5.43,45.04
2026-07-27 13:32:41.745,0.02,-0.54,0.91,-121.7,-17.21,38.39
2026-07-27 13:32:41.746,0.02,-0.54,0.91,-121.7,-17.21,38.39
2026-07-27 13:32:41.747,0.01,-0.58,0.86,-117.98,-26.49,36.07
2026-07-27 13:32:41.919,-0.0,-0.63,0.82,-115.36,-37.23,33.69
2026-07-27 13:32:41.920,-0.0,-0.63,0.82,-115.36,-37.23,33.69
2026-07-27 13:32:41.921,-0.02,-0.67,0.77,-103.94,-49.44,32.96
2026-07-27 13:32:41.921,-0.02,-0.67,0.77,-103.94,-49.44,32.96
2026-07-27 13:32:41.923,-0.04,-0.69,0.69,-86.91,-61.65,32.53
2026-07-27 13:32:41.923,-0.05,-0.69,0.58,-76.35,-71.35,31.98
2026-07-27 13:32:41.924,-0.05,-0.69,0.58,-76.35,-71.35,31.98
2026-07-27 13:32:42.100,-0.09,-0.75,0.44,-76.29,-75.56,38.39
2026-07-27 13:32:42.102,-0.09,-0.75,0.44,-76.29,-75.56,38.39
2026-07-27 13:32:42.109,-0.18,-0.88,0.34,-77.27,-67.5,53.22
2026-07-27 13:32:42.109,-0.18,-0.88,0.34,-77.27,-67.5,53.22
2026-07-27 13:32:42.110,-0.3,-1.05,0.31,-68.36,-43.82,64.88
2026-07-27 13:32:42.111,-0.39,-1.1,0.3,-46.69,-26.86,58.11
2026-07-27 13:32:42.111,-0.39,-1.1,0.3,-46.69,-26.86,58.11
2026-07-27 13:32:42.112,-0.46,-1.04,0.27,-31.31,-37.72,44.92
2026-07-27 13:32:42.159,-0.46,-1.04,0.27,-31.31,-37.72,44.92
2026-07-27 13:32:42.162,-0.5,-0.98,0.2,-41.08,-68.73,49.99
2026-07-27 13:32:42.165,-0.5,-0.98,0.2,-41.08,-68.73,49.99
2026-07-27 13:32:42.219,-0.49,-0.9,0.14,-51.21,-98.82,57.19
2026-07-27 13:32:42.219,-0.38,-0.8,0.11,-47.12,-121.28,41.81
2026-07-27 13:32:42.340,-0.38,-0.8,0.11,-47.12,-121.28,41.81
2026-07-27 13:32:42.341,-0.21,-0.8,0.12,-49.44,-127.75,23.56
2026-07-27 13:32:42.341,-0.21,-0.8,0.12,-49.44,-127.75,23.56
2026-07-27 13:32:42.342,-0.13,-0.86,0.17,-31.25,-95.64,28.99
2026-07-27 13:32:42.343,-0.13,-0.86,0.17,-31.25,-95.64,28.99
2026-07-27 13:32:42.343,-0.25,-0.89,0.29,17.21,-69.09,63.96
2026-07-27 13:32:42.582,-0.46,-0.87,0.42,47.67,-74.28,114.56
2026-07-27 13:32:42.583,-0.46,-0.87,0.42,47.67,-74.28,114.56
2026-07-27 13:32:42.584,-0.63,-0.75,0.52,75.26,-57.43,147.03
2026-07-27 13:32:42.584,-0.63,-0.75,0.52,75.26,-57.43,147.03
2026-07-27 13:32:42.584,-0.71,-0.58,0.51,178.53,1.16,133.3
2026-07-27 13:32:42.584,-0.71,-0.58,0.51,178.53,1.16,133.3
2026-07-27 13:32:42.594,-0.73,-0.48,0.43,332.89,72.14,52.25
2026-07-27 13:32:42.594,-0.7,-0.5,0.4,393.31,115.72,-75.74
2026-07-27 13:32:42.594,-0.7,-0.5,0.4,393.31,115.72,-75.74
2026-07-27 13:32:42.595,-0.65,-0.53,0.47,334.72,133.67,-153.02
2026-07-27 13:32:42.699,-0.65,-0.53,0.47,334.72,133.67,-153.02
2026-07-27 13:32:42.700,-0.64,-0.51,0.62,238.89,187.32,-100.89
2026-07-27 13:32:42.700,-0.64,-0.47,0.75,125.12,191.59,-7.63
2026-07-27 13:32:42.701,-0.64,-0.47,0.75,125.12,191.59,-7.63
2026-07-27 13:32:42.702,-0.63,-0.4,0.78,23.07,72.08,27.89
2026-07-27 13:32:42.831,-0.63,-0.4,0.78,23.07,72.08,27.89
2026-07-27 13:32:42.832,-0.67,-0.37,0.77,-26.61,-56.09,28.93
2026-07-27 13:32:42.832,-0.67,-0.37,0.77,-26.61,-56.09,28.93
2026-07-27 13:32:42.833,-0.69,-0.34,0.78,-52.86,-121.7,25.63
2026-07-27 13:32:42.836,-0.69,-0.32,0.79,-96.44,-120.73,25.63
2026-07-27 13:32:42.836,-0.69,-0.32,0.79,-96.44,-120.73,25.63
2026-07-27 13:32:42.884,-0.67,-0.3,0.79,-127.99,-80.99,26.43
2026-07-27 13:32:42.888,-0.67,-0.3,0.79,-127.99,-80.99,26.43
2026-07-27 13:32:42.941,-0.68,-0.28,0.76,-99.79,-34.0,22.83
2026-07-27 13:32:42.942,-0.68,-0.28,0.76,-30.88,0.92,9.22
2026-07-27 13:32:42.942,-0.72,-0.26,0.73,-30.88,0.92,9.22
2026-07-27 13:32:43.661,-0.72,-0.22,0.65,22.09,8.06,-17.33
2026-07-27 13:32:43.661,-0.72,-0.22,0.65,22.09,8.06,-17.33
2026-07-27 13:32:43.661,-0.56,-0.18,0.53,37.72,-11.41,-51.64
2026-07-27 13:32:43.674,-0.56,-0.18,0.53,37.72,-11.41,-51.64
2026-07-27 13:32:43.675,-0.32,-0.21,0.5,37.6,-37.54,-72.63
2026-07-27 13:32:43.676,-0.32,-0.21,0.5,42.24,-47.67,-58.29
2026-07-27 13:32:43.676,-0.25,-0.31,0.61,42.24,-47.67,-58.29
2026-07-27 13:32:43.676,-0.48,-0.4,0.8,48.4,-31.13,-10.56
2026-07-27 13:32:43.676,-0.48,-0.4,0.8,48.4,-31.13,-10.56
2026-07-27 13:32:43.677,-0.84,-0.43,0.88,43.46,9.58,32.23
2026-07-27 13:32:43.682,-0.84,-0.43,0.88,43.46,9.58,32.23
2026-07-27 13:32:43.682,-0.95,-0.37,0.78,32.65,48.22,26.18
2026-07-27 13:32:43.683,-0.95,-0.37,0.78,32.65,48.22,26.18
2026-07-27 13:32:43.683,-0.71,-0.29,0.71,27.83,49.87,-25.27
2026-07-27 13:32:43.683,-0.4,-0.28,0.78,24.11,23.68,-72.2
2026-07-27 13:32:43.683,-0.4,-0.28,0.78,24.11,23.68,-72.2
2026-07-27 13:32:43.683,-0.26,-0.33,0.89,17.7,8.61,-77.76
2026-07-27 13:32:43.683,-0.26,-0.33,0.89,17.7,8.61,-77.76
2026-07-27 13:32:43.683,-0.33,-0.35,0.91,16.85,12.27,-57.62
2026-07-27 13:32:43.683,-0.46,-0.34,0.85,21.55,15.75,-44.01
2026-07-27 13:32:43.684,-0.46,-0.34,0.85,21.55,15.75,-44.01
2026-07-27 13:32:43.685,-0.52,-0.31,0.77,24.84,11.9,-46.08
2026-07-27 13:32:43.685,-0.52,-0.31,0.77,24.84,11.9,-46.08
2026-07-27 13:32:43.685,-0.5,-0.3,0.76,25.33,8.18,-53.77
2026-07-27 13:32:43.685,-0.5,-0.3,0.76,25.33,8.18,-53.77
2026-07-27 13:32:43.685,-0.48,-0.32,0.81,23.19,8.85,-56.7
2026-07-27 13:32:43.686,-0.48,-0.34,0.87,19.04,11.9,-54.5
2026-07-27 13:32:43.686,-0.48,-0.34,0.87,19.04,11.9,-54.5
2026-07-27 13:32:43.686,-0.47,-0.34,0.87,14.95,13.67,-53.96
2026-07-27 13:32:43.686,-0.47,-0.34,0.87,14.95,13.67,-53.96
2026-07-27 13:32:43.686,-0.41,-0.35,0.85,13.37,11.47,-59.75
2026-07-27 13:32:43.686,-0.41,-0.35,0.85,13.37,11.47,-59.75
2026-07-27 13:32:43.779,-0.34,-0.41,0.9,15.38,5.68,-62.99
2026-07-27 13:32:43.780,-0.41,-0.46,0.99,16.97,-1.65,-51.76
2026-07-27 13:32:43.780,-0.41,-0.46,0.99,16.97,-1.65,-51.76
2026-07-27 13:32:43.780,-0.49,-0.44,0.94,13.43,-8.54,-37.84
2026-07-27 13:32:43.780,-0.49,-0.44,0.94,13.43,-8.54,-37.84
2026-07-27 13:32:44.746,-0.43,-0.36,0.71,2.62,-7.02,-35.4
2026-07-27 13:32:44.746,-0.43,-0.36,0.71,2.62,-7.02,-35.4
2026-07-27 13:32:44.747,-0.32,-0.32,0.52,-15.32,0.12,-30.33
2026-07-27 13:32:44.919,-0.33,-0.35,0.51,-32.71,-0.12,-6.9
2026-07-27 13:32:44.920,-0.33,-0.35,0.51,-32.71,-0.12,-6.9
2026-07-27 13:32:44.921,-0.46,-0.42,0.59,-36.5,-2.38,21.24
2026-07-27 13:32:44.921,-0.46,-0.42,0.59,-36.5,-2.38,21.24
2026-07-27 13:32:44.922,-0.6,-0.48,0.66,-22.28,2.69,31.25
2026-07-27 13:32:44.922,-0.6,-0.48,0.66,-22.28,2.69,31.25
2026-07-27 13:32:44.924,-0.67,-0.54,0.72,-0.92,12.02,25.09
2026-07-27 13:32:44.925,-0.67,-0.54,0.72,20.32,21.12,20.26
2026-07-27 13:32:44.925,-0.71,-0.56,0.77,20.32,21.12,20.26
2026-07-27 13:32:44.925,-0.74,-0.51,0.78,36.68,25.51,21.97
2026-07-27 13:32:45.039,-0.74,-0.51,0.78,36.68,25.51,21.97
2026-07-27 13:32:45.039,-0.74,-0.4,0.73,39.31,25.51,16.05
2026-07-27 13:32:45.040,-0.74,-0.4,0.73,39.31,25.51,16.05
2026-07-27 13:32:45.040,-0.64,-0.31,0.64,29.17,26.0,-7.69
2026-07-27 13:32:45.041,-0.5,-0.32,0.59,15.01,20.94,-39.92
2026-07-27 13:32:45.041,-0.5,-0.32,0.59,15.01,20.94,-39.92
2026-07-27 13:32:45.042,-0.44,-0.39,0.67,12.21,10.56,-58.59
2026-07-27 13:32:45.042,-0.44,-0.39,0.67,12.21,10.56,-58.59
2026-07-27 13:32:45.043,-0.47,-0.46,0.78,30.33,9.09,-52.98
2026-07-27 13:32:45.043,-0.47,-0.46,0.78,30.33,9.09,-52.98
2026-07-27 13:32:45.044,-0.53,-0.46,0.85,62.68,21.18,-33.57
2026-07-27 13:32:45.044,-0.53,-0.46,0.85,102.97,33.81,-15.08
2026-07-27 13:32:45.046,-0.57,-0.38,0.88,102.97,33.81,-15.08
2026-07-27 13:32:45.047,-0.57,-0.26,0.87,153.56,27.71,-2.62
2026-07-27 13:32:45.047,-0.57,-0.26,0.87,153.56,27.71,-2.62
2026-07-27 13:32:45.048,-0.52,-0.12,0.85,195.13,-0.79,1.46
2026-07-27 13:32:45.049,-0.52,-0.12,0.85,195.13,-0.79,1.46
2026-07-27 13:32:45.049,-0.47,0.03,0.85,215.03,-36.38,-0.55
2026-07-27 13:32:45.050,-0.47,0.03,0.85,215.03,-36.38,-0.55
2026-07-27 13:32:45.051,-0.43,0.16,0.91,217.53,-57.37,2.2
2026-07-27 13:32:45.052,-0.4,0.25,0.92,175.72,-54.99,1.59
2026-07-27 13:32:45.052,-0.4,0.25,0.92,175.72,-54.99,1.59
2026-07-27 13:32:45.053,-0.36,0.29,0.83,91.0,-40.1,-10.13
2026-07-27 13:32:45.055,-0.36,0.29,0.83,91.0,-40.1,-10.13
2026-07-27 13:32:45.056,-0.31,0.28,0.76,2.99,-24.35,-15.2
2026-07-27 13:32:45.056,-0.31,0.28,0.76,2.99,-24.35,-15.2
2026-07-27 13:32:45.057,-0.3,0.25,0.77,-52.06,-11.9,-6.41
2026-07-27 13:32:45.058,-0.3,0.25,0.77,-52.06,-11.9,-6.41
2026-07-27 13:32:45.059,-0.37,0.24,0.81,-63.05,1.83,8.06
2026-07-27 13:32:45.060,-0.48,0.22,0.86,-60.79,17.82,21.55
2026-07-27 13:32:45.060,-0.48,0.22,0.86,-60.79,17.82,21.55
2026-07-27 13:32:45.060,-0.56,0.17,0.91,-90.45,25.33,30.27
2026-07-27 13:32:45.061,-0.56,0.17,0.91,-90.45,25.33,30.27
2026-07-27 13:32:45.061,-0.59,0.08,0.96,-166.02,14.95,33.02
2026-07-27 13:32:45.062,-0.59,0.08,0.96,-166.02,14.95,33.02
2026-07-27 13:32:45.063,-0.55,-0.06,0.99,-224.73,-9.83,26.37
2026-07-27 13:32:45.063,-0.42,-0.2,0.94,-197.51,-30.52,7.14
2026-07-27 13:32:45.064,-0.42,-0.2,0.94,-197.51,-30.52,7.14
2026-07-27 13:32:45.064,-0.28,-0.29,0.86,-117.13,-37.48,-18.55
2026-07-27 13:32:45.064,-0.28,-0.29,0.86,-117.13,-37.48,-18.55
2026-07-27 13:32:45.065,-0.21,-0.34,0.82,-65.43,-31.8,-36.5
2026-07-27 13:32:45.066,-0.21,-0.34,0.82,-65.43,-31.8,-36.5
2026-07-27 13:32:45.066,-0.2,-0.38,0.79,-67.57,-19.84,-39.79
2026-07-27 13:32:45.400,-0.23,-0.45,0.74,-110.29,-10.8,-33.57
2026-07-27 13:32:45.401,-0.23,-0.45,0.74,-110.29,-10.8,-33.57
2026-07-27 13:32:45.402,-0.3,-0.57,0.75,-144.84,-7.51,-27.47
2026-07-27 13:32:45.403,-0.3,-0.57,0.75,-144.84,-7.51,-27.47
2026-07-27 13:32:45.404,-0.34,-0.67,0.78,-104.49,-5.25,-29.54
2026-07-27 13:32:45.404,-0.35,-0.71,0.79,-24.23,3.36,-31.68
2026-07-27 13:32:45.407,-0.35,-0.71,0.79,-24.23,3.36,-31.68
2026-07-27 13:32:45.407,-0.33,-0.71,0.79,19.78,13.67,-28.87
2026-07-27 13:32:45.408,-0.33,-0.71,0.79,19.78,13.67,-28.87
2026-07-27 13:32:45.408,-0.28,-0.68,0.78,23.07,20.45,-24.6
2026-07-27 13:32:45.408,-0.28,-0.68,0.78,23.07,20.45,-24.6
2026-07-27 13:32:45.409,-0.24,-0.65,0.74,14.65,21.36,-16.36
2026-07-27 13:32:45.409,-0.25,-0.62,0.72,11.47,13.18,-6.71
2026-07-27 13:32:45.409,-0.25,-0.62,0.72,11.47,13.18,-6.71
2026-07-27 13:32:45.410,-0.26,-0.6,0.72,11.23,0.55,-3.78
2026-07-27 13:32:46.000,-0.26,-0.6,0.72,11.23,0.55,-3.78
2026-07-27 13:32:46.002,-0.23,-0.59,0.71,4.03,-19.9,-12.7
2026-07-27 13:32:46.009,-0.23,-0.59,0.71,-10.62,-57.13,-27.89
2026-07-27 13:32:46.010,-0.18,-0.59,0.78,-10.62,-57.13,-27.89
2026-07-27 13:32:46.010,-0.18,-0.59,0.83,-18.68,-69.21,-27.16
2026-07-27 13:32:46.011,-0.18,-0.59,0.83,-18.68,-69.21,-27.16
2026-07-27 13:32:46.012,-0.21,-0.6,0.8,-13.49,-31.74,-8.54
2026-07-27 13:32:46.012,-0.21,-0.6,0.8,-13.49,-31.74,-8.54
2026-07-27 13:32:46.012,-0.21,-0.61,0.76,-6.1,3.54,5.37
2026-07-27 13:32:46.013,-0.21,-0.61,0.76,-6.1,3.54,5.37
2026-07-27 13:32:46.013,-0.18,-0.62,0.74,-1.95,9.09,10.62
2026-07-27 13:32:46.013,-0.16,-0.62,0.74,4.03,6.04,13.18
2026-07-27 13:32:46.013,-0.16,-0.62,0.74,4.03,6.04,13.18
2026-07-27 13:32:46.013,-0.19,-0.64,0.74,15.26,14.53,13.0
2026-07-27 13:32:46.013,-0.19,-0.64,0.74,15.26,14.53,13.0
2026-07-27 13:32:46.013,-0.26,-0.66,0.78,37.35,24.41,22.28
2026-07-27 13:32:46.061,-0.26,-0.66,0.78,37.35,24.41,22.28
2026-07-27 13:32:46.062,-0.3,-0.63,0.89,71.96,20.69,51.09
2026-07-27 13:32:46.062,-0.27,-0.52,0.97,115.91,7.87,86.18
2026-07-27 13:32:46.063,-0.27,-0.52,0.97,115.91,7.87,86.18
2026-07-27 13:32:46.063,-0.24,-0.38,0.99,160.95,-8.48,103.33
2026-07-27 13:32:46.064,-0.24,-0.38,0.99,160.95,-8.48,103.33
2026-07-27 13:32:46.064,-0.23,-0.2,1.0,201.35,-22.09,93.69
2026-07-27 13:32:46.067,-0.23,-0.2,1.0,201.35,-22.09,93.69
2026-07-27 13:32:46.067,-0.22,0.03,0.96,252.81,-36.8,75.01
2026-07-27 13:32:46.067,-0.21,0.26,0.89,289.98,-63.29,57.31
2026-07-27 13:32:46.067,-0.21,0.26,0.89,289.98,-63.29,57.31
2026-07-27 13:32:46.068,-0.19,0.4,0.83,256.53,-82.52,38.15
2026-07-27 13:32:46.068,-0.19,0.4,0.83,256.53,-82.52,38.15
2026-07-27 13:32:46.126,-0.15,0.44,0.77,167.42,-71.17,21.0
2026-07-27 13:32:46.145,-0.13,0.43,0.75,64.03,-41.56,10.19
2026-07-27 13:32:46.145,-0.13,0.43,0.75,64.03,-41.56,10.19
2026-07-27 13:32:46.240,-0.12,0.41,0.78,-37.96,-20.87,8.0
2026-07-27 13:32:46.240,-0.12,0.41,0.78,-37.96,-20.87,8.0
2026-07-27 13:32:46.246,-0.12,0.36,0.83,-121.7,-13.37,8.54
2026-07-27 13:32:46.247,-0.12,0.36,0.83,-121.7,-13.37,8.54
2026-07-27 13:32:46.257,-0.1,0.26,0.89,-174.87,-8.54,4.7
2026-07-27 13:32:46.299,-0.1,0.26,0.89,-184.45,-5.43,-3.42
2026-07-27 13:32:46.303,-0.07,0.17,0.99,-184.45,-5.43,-3.42
2026-07-27 13:32:46.480,-0.04,0.09,1.08,-141.6,-21.24,-9.7
2026-07-27 13:32:46.481,-0.04,0.09,1.08,-141.6,-21.24,-9.7
2026-07-27 13:32:46.481,0.03,0.02,1.06,-88.5,-82.34,-10.86
2026-07-27 13:32:46.482,0.03,0.02,1.06,-88.5,-82.34,-10.86
2026-07-27 13:32:46.483,0.14,-0.09,0.96,-97.05,-144.1,-6.29
2026-07-27 13:32:46.483,0.14,-0.09,0.96,-167.79,-131.53,6.1
2026-07-27 13:32:46.485,0.23,-0.24,0.89,-167.79,-131.53,6.1
2026-07-27 13:32:46.485,0.25,-0.4,0.86,-231.02,-55.6,21.55
2026-07-27 13:32:46.485,0.25,-0.4,0.86,-231.02,-55.6,21.55
2026-07-27 13:32:46.841,0.24,-0.55,0.86,-227.97,14.16,29.11
2026-07-27 13:32:46.843,0.24,-0.55,0.86,-227.97,14.16,29.11
2026-07-27 13:32:46.849,0.22,-0.64,0.86,-149.17,38.82,25.76
2026-07-27 13:32:46.849,0.18,-0.63,0.86,-33.75,34.12,19.9
2026-07-27 13:32:46.850,0.18,-0.63,0.86,-33.75,34.12,19.9
2026-07-27 13:32:46.850,0.14,-0.54,0.85,66.04,23.32,15.32
2026-07-27 13:32:46.858,0.14,-0.54,0.85,66.04,23.32,15.32
2026-07-27 13:32:46.858,0.12,-0.45,0.86,117.19,13.31,9.95
2026-07-27 13:32:46.859,0.12,-0.45,0.86,117.19,13.31,9.95
2026-07-27 13:32:46.860,0.12,-0.39,0.89,127.62,5.37,3.23
2026-07-27 13:32:46.959,0.12,-0.32,0.94,130.98,1.46,-4.03
2026-07-27 13:32:46.966,0.12,-0.32,0.94,130.98,1.46,-4.03
2026-07-27 13:32:47.139,0.1,-0.21,0.96,147.77,10.19,-9.4
2026-07-27 13:32:47.139,0.1,-0.21,0.96,147.77,10.19,-9.4
2026-07-27 13:32:47.140,0.05,-0.08,0.99,167.97,45.47,-6.04
2026-07-27 13:32:47.141,0.05,-0.08,0.99,167.97,45.47,-6.04
2026-07-27 13:32:47.141,-0.01,0.05,1.03,184.88,82.09,0.18
2026-07-27 13:32:47.141,-0.06,0.19,1.02,197.88,75.2,-1.22
2026-07-27 13:32:47.142,-0.06,0.19,1.02,197.88,75.2,-1.22
2026-07-27 13:32:47.142,-0.09,0.32,0.96,182.62,40.41,-2.99
2026-07-27 13:32:47.143,-0.09,0.32,0.96,182.62,40.41,-2.99
2026-07-27 13:32:47.143,-0.11,0.4,0.9,129.7,15.69,2.32
2026-07-27 13:32:47.143,-0.11,0.4,0.9,129.7,15.69,2.32
2026-07-27 13:32:47.144,-0.11,0.41,0.87,50.72,-0.55,12.63
2026-07-27 13:32:47.144,-0.08,0.34,0.88,-42.85,-17.94,22.22
2026-07-27 13:32:47.145,-0.08,0.34,0.88,-42.85,-17.94,22.22
2026-07-27 13:32:47.145,-0.03,0.22,0.92,-134.09,-34.12,26.18
2026-07-27 13:32:47.146,-0.03,0.22,0.92,-134.09,-34.12,26.18
2026-07-27 13:32:47.146,0.03,0.07,0.98,-207.7,-44.49,24.9
2026-07-27 13:32:47.259,0.03,0.07,0.98,-207.7,-44.49,24.9
2026-07-27 13:32:47.260,0.08,-0.09,1.03,-245.0,-39.98,20.87
2026-07-27 13:32:47.261,0.09,-0.21,1.02,-218.26,-30.15,13.61
2026-07-27 13:32:47.261,0.09,-0.21,1.02,-218.26,-30.15,13.61
2026-07-27 13:32:47.262,0.11,-0.31,0.96,-163.39,-39.86,2.01
2026-07-27 13:32:47.319,0.11,-0.31,0.96,-163.39,-39.86,2.01
2026-07-27 13:32:47.319,0.14,-0.42,0.88,-157.59,-63.6,-7.14
2026-07-27 13:32:47.380,0.15,-0.53,0.83,-176.7,-58.65,-3.85
2026-07-27 13:32:47.381,0.15,-0.53,0.83,-176.7,-58.65,-3.85
2026-07-27 13:32:47.382,0.16,-0.62,0.83,-138.49,-24.29,3.97
2026-07-27 13:32:48.041,0.16,-0.62,0.83,-138.49,-24.29,3.97
2026-07-27 13:32:48.041,0.17,-0.64,0.83,-30.27,3.6,5.49
2026-07-27 13:32:48.042,0.17,-0.64,0.83,-30.27,3.6,5.49
2026-07-27 13:32:48.043,0.17,-0.64,0.83,-30.27,3.6,5.49
2026-07-27 13:32:48.043,0.17,-0.64,0.83,-30.27,3.6,5.49
2026-07-27 13:32:48.044,0.21,-0.42,0.93,183.23,9.46,9.46
2026-07-27 13:32:48.047,0.21,-0.42,0.93,183.23,9.46,9.46
2026-07-27 13:32:48.047,0.19,-0.3,0.91,172.18,9.16,14.28
2026-07-27 13:32:48.047,0.14,-0.27,0.86,17.03,21.36,16.78
2026-07-27 13:32:48.047,0.14,-0.27,0.86,17.03,21.36,16.78
2026-07-27 13:32:48.048,0.08,-0.42,0.8,-209.23,17.15,19.23
2026-07-27 13:32:48.048,0.08,-0.42,0.8,-209.23,17.15,19.23
2026-07-27 13:32:48.048,0.03,-0.64,0.71,-301.03,1.59,19.47
2026-07-27 13:32:48.049,0.03,-0.64,0.71,-301.03,1.59,19.47
2026-07-27 13:32:48.049,-0.0,-0.79,0.63,-230.35,-3.66,17.52
2026-07-27 13:32:48.055,-0.0,-0.88,0.59,-132.81,3.85,16.72
2026-07-27 13:32:48.057,-0.0,-0.88,0.59,-132.81,3.85,16.72
2026-07-27 13:32:48.058,0.01,-0.96,0.55,-95.95,22.22,22.71
2026-07-27 13:32:48.058,0.01,-0.96,0.55,-95.95,22.22,22.71
2026-07-27 13:32:48.059,0.01,-1.01,0.45,-113.89,44.98,38.51
2026-07-27 13:32:48.059,0.01,-1.01,0.45,-113.89,44.98,38.51
2026-07-27 13:32:48.060,0.01,-1.01,0.45,-113.89,44.98,38.51
2026-07-27 13:32:48.060,0.01,-1.01,0.45,-113.89,44.98,38.51
2026-07-27 13:32:48.061,-0.17,-1.01,0.21,-166.93,54.63,84.66
2026-07-27 13:32:48.061,-0.17,-1.01,0.21,-119.81,10.44,86.43
2026-07-27 13:32:48.061,-0.21,-0.97,0.2,-119.81,10.44,86.43
2026-07-27 13:32:48.061,-0.18,-0.92,0.21,-25.45,-28.2,62.26
2026-07-27 13:32:48.061,-0.18,-0.92,0.21,-25.45,-28.2,62.26
2026-07-27 13:32:48.061,-0.19,-0.89,0.26,50.72,-35.95,31.68
2026-07-27 13:32:48.066,-0.19,-0.89,0.26,50.72,-35.95,31.68
2026-07-27 13:32:48.104,-0.22,-0.88,0.33,89.42,-30.33,20.87
2026-07-27 13:32:48.105,-0.22,-0.88,0.33,96.25,-13.73,29.72
2026-07-27 13:32:48.829,-0.23,-0.87,0.36,96.25,-13.73,29.72
2026-07-27 13:32:48.829,-0.25,-0.85,0.38,81.48,20.2,35.52
2026-07-27 13:32:48.832,-0.25,-0.85,0.38,81.48,20.2,35.52
2026-07-27 13:32:48.832,-0.26,-0.84,0.42,63.35,41.69,22.4
2026-07-27 13:32:48.833,-0.26,-0.84,0.42,63.35,41.69,22.4
2026-07-27 13:32:48.833,-0.25,-0.84,0.45,60.85,32.47,-3.48
2026-07-27 13:32:48.881,-0.23,-0.85,0.47,72.69,18.43,-21.85
2026-07-27 13:32:48.881,-0.23,-0.85,0.47,72.69,18.43,-21.85
2026-07-27 13:32:48.882,-0.24,-0.82,0.49,78.61,8.36,-23.01
2026-07-27 13:32:48.882,-0.24,-0.82,0.49,78.61,8.36,-23.01
2026-07-27 13:32:48.882,-0.3,-0.79,0.54,68.18,-2.44,-12.82
2026-07-27 13:32:48.884,-0.3,-0.79,0.54,68.18,-2.44,-12.82
2026-07-27 13:32:48.887,-0.33,-0.78,0.58,45.96,-13.24,-2.26
2026-07-27 13:32:48.887,-0.33,-0.78,0.58,28.81,-14.16,5.13
2026-07-27 13:32:48.887,-0.34,-0.78,0.59,28.81,-14.16,5.13
2026-07-27 13:32:48.888,-0.35,-0.77,0.62,23.19,1.4,8.54
2026-07-27 13:32:48.888,-0.35,-0.77,0.62,23.19,1.4,8.54
2026-07-27 13:32:48.889,-0.37,-0.78,0.67,17.46,25.57,9.83
2026-07-27 13:32:48.889,-0.37,-0.78,0.67,17.46,25.57,9.83
2026-07-27 13:32:48.890,-0.36,-0.78,0.66,7.02,41.08,11.78
2026-07-27 13:32:48.893,-0.36,-0.78,0.66,7.02,41.08,11.78
2026-07-27 13:32:48.894,-0.34,-0.74,0.62,-1.34,41.44,11.23
2026-07-27 13:32:48.895,-0.33,-0.71,0.59,-4.21,37.41,6.47
2026-07-27 13:32:48.895,-0.33,-0.71,0.59,-4.21,37.41,6.47
2026-07-27 13:32:48.895,-0.34,-0.7,0.58,-5.86,30.82,2.93
2026-07-27 13:32:48.896,-0.34,-0.7,0.58,-5.86,30.82,2.93
2026-07-27 13:32:48.896,-0.33,-0.69,0.57,-6.23,19.9,-0.37
2026-07-27 13:32:48.896,-0.33,-0.69,0.57,-6.23,19.9,-0.37
2026-07-27 13:32:48.896,-0.32,-0.69,0.56,-3.05,9.28,-7.45
2026-07-27 13:32:48.897,-0.32,-0.69,0.56,-3.05,9.28,-7.45
2026-07-27 13:32:48.897,-0.33,-0.71,0.59,-4.15,2.87,-9.52
2026-07-27 13:32:48.898,-0.35,-0.77,0.6,-17.27,8.97,6.65
2026-07-27 13:32:48.898,-0.35,-0.77,0.6,-17.27,8.97,6.65
2026-07-27 13:32:48.898,-0.4,-0.79,0.55,-28.5,26.49,40.77
2026-07-27 13:32:48.898,-0.4,-0.79,0.55,-28.5,26.49,40.77
2026-07-27 13:32:48.899,-0.46,-0.72,0.48,-20.75,44.68,70.68
2026-07-27 13:32:49.179,-0.46,-0.72,0.48,-20.75,44.68,70.68
2026-07-27 13:32:49.182,-0.53,-0.66,0.44,-9.46,50.72,78.98
2026-07-27 13:32:49.182,-0.56,-0.64,0.44,-3.42,38.88,67.32
2026-07-27 13:32:49.183,-0.56,-0.64,0.44,-3.42,38.88,67.32
2026-07-27 13:32:49.183,-0.61,-0.65,0.46,10.74,17.03,43.46
2026-07-27 13:32:49.183,-0.61,-0.65,0.46,10.74,17.03,43.46
2026-07-27 13:32:49.184,-0.62,-0.64,0.49,27.59,-14.83,22.4
2026-07-27 13:32:49.185,-0.62,-0.64,0.49,27.59,-14.83,22.4
2026-07-27 13:32:49.185,-0.57,-0.61,0.52,31.62,-46.14,14.4
2026-07-27 13:32:49.185,-0.54,-0.6,0.55,23.68,-52.37,11.17
2026-07-27 13:32:49.185,-0.54,-0.6,0.55,23.68,-52.37,11.17
2026-07-27 13:32:49.186,-0.55,-0.59,0.57,17.4,-39.73,5.62
2026-07-27 13:32:49.186,-0.55,-0.59,0.57,17.4,-39.73,5.62
2026-07-27 13:32:49.420,-0.54,-0.59,0.59,17.03,-30.52,-1.77
2026-07-27 13:32:49.422,-0.54,-0.59,0.59,17.03,-30.52,-1.77
2026-07-27 13:32:49.423,-0.52,-0.6,0.61,14.1,-25.63,-10.01
2026-07-27 13:32:49.423,-0.49,-0.61,0.62,5.92,-15.08,-15.93
2026-07-27 13:32:49.425,-0.49,-0.61,0.62,5.92,-15.08,-15.93
2026-07-27 13:32:49.425,-0.48,-0.61,0.62,-0.12,3.78,-17.82
2026-07-27 13:32:49.425,-0.48,-0.61,0.62,-0.12,3.78,-17.82
2026-07-27 13:32:49.427,-0.49,-0.62,0.61,2.14,18.74,-9.95
2026-07-27 13:32:49.428,-0.49,-0.62,0.61,16.42,22.58,12.45
2026-07-27 13:32:49.443,-0.51,-0.61,0.6,16.42,22.58,12.45
2026-07-27 13:32:50.139,-0.53,-0.55,0.59,29.91,19.29,34.12
2026-07-27 13:32:50.140,-0.53,-0.55,0.59,29.91,19.29,34.12
2026-07-27 13:32:50.141,-0.57,-0.52,0.6,17.88,10.86,36.93
2026-07-27 13:32:50.141,-0.57,-0.52,0.6,17.88,10.86,36.93
2026-07-27 13:32:50.142,-0.59,-0.53,0.61,-12.51,2.99,25.88
2026-07-27 13:32:50.142,-0.59,-0.55,0.6,-36.99,-0.31,14.22
2026-07-27 13:32:50.143,-0.59,-0.55,0.6,-36.99,-0.31,14.22
2026-07-27 13:32:50.144,-0.59,-0.57,0.59,-53.65,-0.61,6.47
2026-07-27 13:32:50.145,-0.59,-0.57,0.59,-53.65,-0.61,6.47
2026-07-27 13:32:50.145,-0.59,-0.61,0.55,-65.31,0.85,1.34
2026-07-27 13:32:50.146,-0.59,-0.61,0.55,-65.31,0.85,1.34
2026-07-27 13:32:50.147,-0.58,-0.65,0.52,-63.84,2.5,-0.49
2026-07-27 13:32:50.148,-0.58,-0.65,0.52,-63.84,2.5,-0.49
2026-07-27 13:32:50.148,-0.58,-0.68,0.51,-51.15,2.08,0.79
2026-07-27 13:32:50.149,-0.58,-0.71,0.52,-35.95,-4.39,0.0
2026-07-27 13:32:50.149,-0.58,-0.71,0.52,-35.95,-4.39,0.0
2026-07-27 13:32:50.150,-0.56,-0.71,0.52,-22.34,-17.88,-7.57
2026-07-27 13:32:50.150,-0.56,-0.71,0.52,-22.34,-17.88,-7.57
2026-07-27 13:32:50.151,-0.52,-0.69,0.5,-18.55,-30.15,-18.19
2026-07-27 13:32:50.152,-0.52,-0.69,0.5,-18.55,-30.15,-18.19
2026-07-27 13:32:50.152,-0.47,-0.68,0.47,-25.57,-35.83,-24.17
2026-07-27 13:32:50.153,-0.42,-0.7,0.45,-17.03,-41.2,-25.39
2026-07-27 13:32:50.153,-0.42,-0.7,0.45,-17.03,-41.2,-25.39
2026-07-27 13:32:50.154,-0.39,-0.61,0.54,50.48,-42.91,-14.65
2026-07-27 13:32:50.155,-0.39,-0.61,0.54,50.48,-42.91,-14.65
2026-07-27 13:32:50.155,-0.47,-0.48,0.74,110.35,-56.52,37.35
2026-07-27 13:32:50.156,-0.47,-0.48,0.74,110.35,-56.52,37.35
2026-07-27 13:32:50.156,-0.57,-0.53,0.8,68.12,-178.83,103.88
2026-07-27 13:32:50.157,-0.57,-0.53,0.8,10.68,-310.97,98.45
2026-07-27 13:32:50.157,-0.47,-0.55,0.76,10.68,-310.97,98.45
2026-07-27 13:32:50.158,-0.27,-0.51,0.84,15.08,-247.56,36.74
2026-07-27 13:32:50.160,-0.27,-0.51,0.84,15.08,-247.56,36.74
2026-07-27 13:32:50.200,-0.13,-0.51,0.92,33.63,-89.97,-4.94
2026-07-27 13:32:50.201,-0.13,-0.51,0.92,33.63,-89.97,-4.94
2026-07-27 13:32:50.800,-0.06,-0.53,0.91,37.96,-6.29,-15.01
2026-07-27 13:32:50.805,-0.07,-0.52,0.85,34.79,-1.77,-12.7
2026-07-27 13:32:50.805,-0.07,-0.52,0.85,34.79,-1.77,-12.7
2026-07-27 13:32:50.806,-0.09,-0.48,0.8,20.14,-37.48,-11.6
2026-07-27 13:32:50.807,-0.09,-0.48,0.8,20.14,-37.48,-11.6
2026-07-27 13:32:50.807,-0.06,-0.43,0.81,-1.28,-79.59,-14.65
2026-07-27 13:32:50.808,-0.06,-0.43,0.81,-1.28,-79.59,-14.65
2026-07-27 13:32:50.808,-0.02,-0.4,0.84,-8.79,-85.63,-14.16
2026-07-27 13:32:50.809,0.02,-0.4,0.85,2.01,-59.81,-11.17
2026-07-27 13:32:50.809,0.02,-0.4,0.85,2.01,-59.81,-11.17
2026-07-27 13:32:50.809,0.05,-0.4,0.88,21.24,-39.43,-18.92
2026-07-27 13:32:50.809,0.05,-0.4,0.88,21.24,-39.43,-18.92
2026-07-27 13:32:50.809,0.08,-0.39,0.92,30.76,-27.77,-31.19
2026-07-27 13:32:51.159,0.08,-0.39,0.92,30.76,-27.77,-31.19
2026-07-27 13:32:51.161,0.1,-0.39,0.96,25.15,-19.23,-37.72
2026-07-27 13:32:51.161,0.11,-0.4,1.0,15.44,-8.91,-39.67
2026-07-27 13:32:51.162,0.11,-0.4,1.0,15.44,-8.91,-39.67
2026-07-27 13:32:51.162,0.11,-0.4,0.99,2.99,8.24,-34.36
2026-07-27 13:32:51.163,0.11,-0.4,0.99,2.99,8.24,-34.36
2026-07-27 13:32:51.164,0.1,-0.41,0.95,-8.73,26.49,-28.69
2026-07-27 13:32:51.165,0.1,-0.41,0.95,-8.73,26.49,-28.69
2026-07-27 13:32:51.167,0.07,-0.42,0.91,-12.7,37.78,-28.81
2026-07-27 13:32:51.167,0.07,-0.42,0.91,-12.7,37.78,-28.81
2026-07-27 13:32:51.168,0.05,-0.42,0.88,-9.95,35.95,-26.12
2026-07-27 13:32:51.168,0.05,-0.41,0.88,-3.11,28.69,-22.4
2026-07-27 13:32:51.169,0.05,-0.41,0.88,-3.11,28.69,-22.4
2026-07-27 13:32:51.171,0.01,-0.38,0.9,5.8,29.91,-27.1
2026-07-27 13:32:51.171,0.01,-0.38,0.9,5.8,29.91,-27.1
2026-07-27 13:32:51.172,-0.05,-0.37,0.94,11.47,34.67,-36.56
2026-07-27 13:32:51.172,-0.05,-0.37,0.94,11.47,34.67,-36.56
2026-07-27 13:32:51.172,-0.08,-0.36,0.98,12.57,30.21,-39.06
2026-07-27 13:32:51.172,-0.05,-0.37,0.99,11.05,18.43,-33.14
2026-07-27 13:32:51.173,-0.05,-0.37,0.99,11.05,18.43,-33.14
2026-07-27 13:32:51.173,0.01,-0.38,0.98,9.28,11.35,-27.28
2026-07-27 13:32:51.174,0.01,-0.38,0.98,9.28,11.35,-27.28
2026-07-27 13:32:51.175,0.06,-0.38,0.96,6.9,11.84,-24.48
2026-07-27 13:32:51.175,0.06,-0.38,0.96,6.9,11.84,-24.48
2026-07-27 13:32:51.177,0.09,-0.37,0.96,1.34,13.24,-23.13
2026-07-27 13:32:51.177,0.09,-0.37,0.96,-4.33,14.4,-22.64
2026-07-27 13:32:51.177,0.1,-0.36,0.96,-4.33,14.4,-22.64
2026-07-27 13:32:51.178,0.09,-0.34,0.95,-2.87,16.78,-22.16
2026-07-27 13:32:51.178,0.09,-0.34,0.95,-2.87,16.78,-22.16
2026-07-27 13:32:51.179,0.07,-0.31,0.92,2.62,17.94,-20.51
2026-07-27 13:32:51.179,0.07,-0.31,0.92,2.62,17.94,-20.51
2026-07-27 13:32:52.359,0.05,-0.3,0.9,2.87,15.08,-17.09
2026-07-27 13:32:52.360,0.05,-0.3,0.9,2.87,15.08,-17.09
2026-07-27 13:32:52.361,0.05,-0.31,0.9,-2.56,8.06,-12.7
2026-07-27 13:32:52.369,0.05,-0.32,0.93,-9.52,-0.67,-9.77
2026-07-27 13:32:52.370,0.05,-0.32,0.93,-9.52,-0.67,-9.77
2026-07-27 13:32:52.373,0.08,-0.34,0.95,-18.68,-6.47,-8.24
2026-07-27 13:32:52.374,0.08,-0.34,0.95,-18.68,-6.47,-8.24
2026-07-27 13:32:52.374,0.09,-0.36,0.96,-32.41,2.5,-6.9
2026-07-27 13:32:52.374,0.04,-0.39,0.93,-52.06,32.29,-9.83
2026-07-27 13:32:52.374,0.04,-0.39,0.93,-52.06,32.29,-9.83
2026-07-27 13:32:52.375,-0.03,-0.46,0.85,-70.68,57.62,-18.13
2026-07-27 13:32:52.375,-0.03,-0.46,0.85,-70.68,57.62,-18.13
2026-07-27 13:32:52.376,-0.07,-0.54,0.79,-73.73,57.98,-22.4
2026-07-27 13:32:52.376,-0.07,-0.54,0.79,-73.73,57.98,-22.4
2026-07-27 13:32:52.377,-0.09,-0.59,0.78,-56.52,43.15,-16.85
2026-07-27 13:32:52.378,-0.09,-0.59,0.78,-37.23,22.46,-7.51
2026-07-27 13:32:52.378,-0.09,-0.62,0.79,-37.23,22.46,-7.51
2026-07-27 13:32:52.381,-0.09,-0.65,0.79,-27.59,1.46,1.22
2026-07-27 13:32:52.381,-0.09,-0.65,0.79,-27.59,1.46,1.22
2026-07-27 13:32:52.382,-0.08,-0.66,0.8,-23.5,-11.78,10.99
2026-07-27 13:32:52.382,-0.08,-0.66,0.8,-23.5,-11.78,10.99
2026-07-27 13:32:52.382,-0.09,-0.67,0.81,-25.45,-14.59,20.02
2026-07-27 13:32:52.383,-0.09,-0.67,0.81,-25.45,-14.59,20.02
2026-07-27 13:32:52.386,-0.11,-0.68,0.79,-26.18,-7.93,26.0
2026-07-27 13:32:52.387,-0.12,-0.67,0.78,-22.4,1.4,32.53
2026-07-27 13:32:52.387,-0.12,-0.67,0.78,-22.4,1.4,32.53
2026-07-27 13:32:52.387,-0.13,-0.66,0.78,-18.31,14.1,41.63
2026-07-27 13:32:52.388,-0.13,-0.66,0.78,-18.31,14.1,41.63
2026-07-27 13:32:52.388,-0.16,-0.64,0.76,-5.37,30.52,43.64
2026-07-27 13:32:52.388,-0.16,-0.64,0.76,-5.37,30.52,43.64
2026-07-27 13:32:52.388,-0.19,-0.63,0.75,14.59,34.67,34.73
2026-07-27 13:32:52.389,-0.19,-0.63,0.75,25.82,25.57,24.9
2026-07-27 13:32:52.389,-0.21,-0.61,0.75,25.82,25.57,24.9
2026-07-27 13:32:52.390,-0.22,-0.59,0.76,26.0,18.68,20.26
2026-07-27 13:32:52.390,-0.22,-0.59,0.76,26.0,18.68,20.26
2026-07-27 13:32:52.391,-0.24,-0.58,0.77,17.58,17.64,20.94
2026-07-27 13:32:52.391,-0.24,-0.58,0.77,17.58,17.64,20.94
2026-07-27 13:32:52.392,-0.27,-0.56,0.77,4.09,21.42,23.38
2026-07-27 13:32:52.392,-0.27,-0.56,0.77,4.09,21.42,23.38
2026-07-27 13:32:52.394,-0.29,-0.55,0.77,-4.82,29.72,21.48
2026-07-27 13:32:52.394,-0.31,-0.56,0.77,-6.77,37.48,10.25
2026-07-27 13:32:52.395,-0.31,-0.56,0.77,-6.77,37.48,10.25
2026-07-27 13:32:52.395,-0.34,-0.58,0.76,-6.71,42.18,-8.18
2026-07-27 13:32:52.395,-0.34,-0.58,0.76,-6.71,42.18,-8.18
2026-07-27 13:32:52.395,-0.36,-0.61,0.73,-6.41,42.72,-22.34
2026-07-27 13:32:52.395,-0.36,-0.61,0.73,-6.41,42.72,-22.34
2026-07-27 13:32:52.395,-0.36,-0.62,0.71,-4.39,35.52,-23.38
2026-07-27 13:32:52.395,-0.36,-0.62,0.71,-4.39,35.52,-23.38
2026-07-27 13:32:52.395,-0.34,-0.62,0.7,1.28,25.63,-17.15
2026-07-27 13:32:52.395,-0.35,-0.62,0.69,7.57,18.8,-14.77
2026-07-27 13:32:52.396,-0.35,-0.62,0.69,7.57,18.8,-14.77
2026-07-27 13:32:52.396,-0.35,-0.62,0.68,10.44,8.61,-17.03
2026-07-27 13:32:52.396,-0.35,-0.62,0.68,10.44,8.61,-17.03
2026-07-27 13:32:52.423,-0.34,-0.61,0.7,10.07,-4.88,-19.9
2026-07-27 13:32:52.427,-0.34,-0.61,0.7,10.5,-13.12,-19.17
2026-07-27 13:32:52.539,-0.33,-0.61,0.72,10.5,-13.12,-19.17
2026-07-27 13:32:52.541,-0.32,-0.6,0.72,13.0,-17.03,-14.16
2026-07-27 13:32:52.541,-0.32,-0.6,0.72,13.0,-17.03,-14.16
2026-07-27 13:32:52.542,-0.31,-0.6,0.72,15.08,-25.82,-10.19
2026-07-27 13:32:52.542,-0.31,-0.6,0.72,15.08,-25.82,-10.19
2026-07-27 13:32:52.660,-0.3,-0.59,0.74,14.89,-40.83,-6.77
2026-07-27 13:32:52.661,-0.3,-0.59,0.74,11.11,-54.69,0.55
2026-07-27 13:32:52.662,-0.26,-0.59,0.77,11.11,-54.69,0.55
2026-07-27 13:32:52.662,-0.22,-0.6,0.8,4.33,-57.92,8.18
2026-07-27 13:32:52.663,-0.22,-0.6,0.8,4.33,-57.92,8.18
2026-07-27 13:32:52.844,-0.2,-0.6,0.81,0.37,-47.42,11.35
2026-07-27 13:32:52.859,-0.2,-0.6,0.81,0.37,-47.42,11.35
2026-07-27 13:32:52.860,-0.19,-0.59,0.8,1.53,-35.83,12.45
2026-07-27 13:32:52.860,-0.19,-0.59,0.8,1.53,-35.83,12.45
2026-07-27 13:32:52.861,-0.16,-0.59,0.79,4.64,-36.38,14.89
2026-07-27 13:32:52.861,-0.14,-0.57,0.8,11.05,-42.11,18.31
2026-07-27 13:32:52.861,-0.14,-0.57,0.8,11.05,-42.11,18.31
2026-07-27 13:32:52.862,-0.12,-0.55,0.81,18.62,-41.93,21.48
2026-07-27 13:32:52.862,-0.12,-0.55,0.81,18.62,-41.93,21.48
2026-07-27 13:32:52.900,-0.11,-0.53,0.83,21.24,-38.51,22.77
2026-07-27 13:32:52.901,-0.11,-0.53,0.83,21.24,-38.51,22.77
2026-07-27 13:32:53.506,-0.1,-0.52,0.85,20.63,-37.96,19.84
2026-07-27 13:32:53.506,-0.09,-0.51,0.87,18.62,-39.18,14.83
2026-07-27 13:32:53.507,-0.09,-0.51,0.87,18.62,-39.18,14.83
2026-07-27 13:32:53.507,-0.08,-0.49,0.88,16.24,-38.94,11.41
2026-07-27 13:32:53.508,-0.08,-0.49,0.88,16.24,-38.94,11.41
2026-07-27 13:32:53.508,-0.07,-0.48,0.88,10.62,-39.49,10.31
2026-07-27 13:32:53.509,-0.07,-0.48,0.88,10.62,-39.49,10.31
2026-07-27 13:32:53.511,-0.05,-0.48,0.9,-0.85,-41.87,10.5
2026-07-27 13:32:53.511,-0.02,-0.48,0.91,-9.16,-36.19,9.09
2026-07-27 13:32:53.511,-0.02,-0.48,0.91,-9.16,-36.19,9.09
2026-07-27 13:32:53.511,-0.02,-0.49,0.9,-7.87,-16.6,3.78
2026-07-27 13:32:53.511,-0.02,-0.49,0.9,-7.87,-16.6,3.78
2026-07-27 13:32:53.511,-0.03,-0.49,0.88,-1.4,4.88,0.06
2026-07-27 13:32:53.512,-0.03,-0.49,0.88,-1.4,4.88,0.06
2026-07-27 13:32:53.512,-0.04,-0.5,0.87,-1.04,14.53,4.88
2026-07-27 13:32:53.512,-0.04,-0.5,0.87,-1.04,14.53,4.88
2026-07-27 13:32:53.515,-0.05,-0.52,0.87,-10.44,15.69,13.49
2026-07-27 13:32:53.515,-0.06,-0.54,0.87,-17.7,17.64,16.54
2026-07-27 13:32:53.515,-0.06,-0.54,0.87,-17.7,17.64,16.54
2026-07-27 13:32:53.515,-0.07,-0.55,0.85,-20.87,19.65,12.94
2026-07-27 13:32:53.515,-0.07,-0.55,0.85,-20.87,19.65,12.94
2026-07-27 13:32:53.515,-0.09,-0.56,0.83,-20.69,19.23,7.2
2026-07-27 13:32:53.515,-0.1,-0.57,0.82,-11.9,16.66,2.44
2026-07-27 13:32:53.515,-0.1,-0.57,0.82,-11.9,16.66,2.44
2026-07-27 13:32:53.515,-0.1,-0.56,0.83,0.18,15.56,-1.46
2026-07-27 13:32:53.516,-0.1,-0.56,0.83,0.18,15.56,-1.46
2026-07-27 13:32:53.516,-0.11,-0.54,0.84,8.48,18.86,-5.55
2026-07-27 13:32:53.559,-0.11,-0.54,0.84,8.48,18.86,-5.55
2026-07-27 13:32:53.560,-0.12,-0.53,0.84,8.54,22.89,-9.64
2026-07-27 13:32:53.799,-0.14,-0.54,0.84,0.43,23.68,-12.82
2026-07-27 13:32:53.800,-0.14,-0.54,0.84,0.43,23.68,-12.82
2026-07-27 13:32:53.802,-0.14,-0.55,0.82,-9.03,20.69,-14.16
2026-07-27 13:32:53.802,-0.14,-0.55,0.82,-9.03,20.69,-14.16
2026-07-27 13:32:53.803,-0.14,-0.56,0.82,-8.54,18.13,-14.47
2026-07-27 13:32:53.803,-0.14,-0.56,0.82,-8.54,18.13,-14.47
2026-07-27 13:32:53.804,-0.14,-0.55,0.82,6.96,21.55,-19.71
2026-07-27 13:32:53.804,-0.14,-0.55,0.82,20.87,24.96,-32.84
2026-07-27 13:32:53.804,-0.14,-0.55,0.82,20.87,24.96,-32.84
2026-07-27 13:32:53.805,-0.14,-0.54,0.84,19.84,22.22,-43.58
2026-07-27 13:32:53.805,-0.14,-0.54,0.84,19.84,22.22,-43.58
2026-07-27 13:32:53.858,-0.15,-0.54,0.84,9.58,16.42,-44.37
2026-07-27 13:32:53.860,-0.15,-0.54,0.84,9.58,16.42,-44.37
2026-07-27 13:32:53.979,-0.15,-0.55,0.83,-1.1,6.47,-37.6
2026-07-27 13:32:53.987,-0.15,-0.55,0.83,-4.82,-6.77,-27.1
2026-07-27 13:32:53.987,-0.13,-0.56,0.83,-4.82,-6.77,-27.1
2026-07-27 13:32:53.988,-0.1,-0.57,0.83,-1.34,-15.75,-18.07
2026-07-27 13:32:53.988,-0.1,-0.57,0.83,-1.34,-15.75,-18.07
2026-07-27 13:32:53.988,-0.08,-0.57,0.83,3.23,-17.03,-13.18
2026-07-27 13:32:54.280,-0.08,-0.57,0.83,3.23,-17.03,-13.18
2026-07-27 13:32:54.281,-0.07,-0.57,0.84,3.91,-14.04,-8.73
2026-07-27 13:32:54.282,-0.07,-0.57,0.84,3.91,-14.04,-8.73
2026-07-27 13:32:54.282,-0.06,-0.57,0.83,1.53,-12.15,-1.83
2026-07-27 13:32:54.283,-0.06,-0.56,0.83,-1.22,-13.12,4.33
2026-07-27 13:32:54.284,-0.06,-0.56,0.83,-1.22,-13.12,4.33
2026-07-27 13:32:54.285,-0.05,-0.55,0.83,-3.42,-13.98,6.53
2026-07-27 13:32:54.285,-0.05,-0.55,0.83,-3.42,-13.98,6.53
2026-07-27 13:32:54.286,-0.06,-0.55,0.83,-3.97,-13.92,5.0
2026-07-27 13:32:54.286,-0.06,-0.55,0.83,-3.97,-13.92,5.0
2026-07-27 13:32:54.287,-0.05,-0.56,0.82,-3.3,-18.07,4.03
2026-07-27 13:32:54.287,-0.05,-0.56,0.82,-1.53,-27.34,7.2
2026-07-27 13:32:54.287,-0.03,-0.57,0.83,-1.53,-27.34,7.2
2026-07-27 13:32:54.339,-0.01,-0.57,0.83,0.24,-35.28,13.31
2026-07-27 13:32:54.340,-0.01,-0.57,0.83,0.24,-35.28,13.31
2026-07-27 13:32:54.340,0.01,-0.57,0.83,-1.95,-40.59,19.53
2026-07-27 13:32:54.409,0.01,-0.57,0.83,-1.95,-40.59,19.53
2026-07-27 13:32:54.410,0.03,-0.57,0.83,-6.04,-44.49,23.8
2026-07-27 13:32:54.530,0.03,-0.57,0.83,-6.04,-44.49,23.8
2026-07-27 13:32:54.531,0.03,-0.57,0.83,-6.04,-44.49,23.8
2026-07-27 13:32:54.531,0.03,-0.57,0.83,-6.04,-44.49,23.8
2026-07-27 13:32:54.531,0.04,-0.56,0.85,-2.56,-32.53,19.35
2026-07-27 13:32:54.532,0.05,-0.57,0.84,-1.83,-23.25,13.06
2026-07-27 13:32:54.532,0.05,-0.57,0.84,-1.83,-23.25,13.06
2026-07-27 13:32:54.702,0.06,-0.57,0.84,-2.44,-16.3,8.0
2026-07-27 13:32:54.703,0.06,-0.57,0.84,-2.44,-16.3,8.0
2026-07-27 13:32:54.703,0.06,-0.58,0.83,-2.38,-9.89,4.52
2026-07-27 13:32:54.703,0.06,-0.58,0.83,-2.38,-9.89,4.52
2026-07-27 13:32:54.704,0.06,-0.58,0.83,-1.1,-3.42,1.83
2026-07-27 13:32:54.704,0.06,-0.58,0.83,1.1,2.01,-0.24
2026-07-27 13:32:54.705,0.06,-0.58,0.83,1.1,2.01,-0.24
2026-07-27 13:32:54.705,0.06,-0.57,0.83,3.72,5.86,-1.28
2026-07-27 13:32:55.061,0.06,-0.57,0.83,3.72,5.86,-1.28
2026-07-27 13:32:55.061,0.05,-0.56,0.82,5.25,7.02,-1.1
2026-07-27 13:32:55.062,0.05,-0.56,0.82,5.25,7.02,-1.1
2026-07-27 13:32:55.062,0.05,-0.56,0.83,4.7,5.25,-0.67
2026-07-27 13:32:55.062,0.05,-0.56,0.83,4.7,5.25,-0.67
2026-07-27 13:32:55.063,0.05,-0.55,0.84,4.09,4.21,-1.28
2026-07-27 13:32:55.064,0.05,-0.55,0.84,4.7,8.18,-3.72
2026-07-27 13:32:55.064,0.04,-0.55,0.85,4.7,8.18,-3.72
2026-07-27 13:32:55.064,0.03,-0.55,0.85,5.55,15.2,-6.53
2026-07-27 13:32:55.066,0.03,-0.55,0.85,5.55,15.2,-6.53
2026-07-27 13:32:55.066,0.02,-0.55,0.84,5.49,18.25,-7.45
2026-07-27 13:32:55.067,0.02,-0.55,0.84,5.49,18.25,-7.45
2026-07-27 13:32:55.068,0.01,-0.55,0.83,5.74,15.87,-6.41
2026-07-27 13:32:55.071,0.01,-0.55,0.83,5.74,15.87,-6.41
2026-07-27 13:32:55.071,0.0,-0.55,0.84,8.3,13.0,-3.97
2026-07-27 13:32:55.072,0.0,-0.55,0.84,8.3,13.0,-3.97
2026-07-27 13:32:55.072,0.0,-0.55,0.84,8.3,13.0,-3.97
2026-07-27 13:32:55.242,0.0,-0.55,0.84,8.3,13.0,-3.97
2026-07-27 13:32:55.243,-0.03,-0.54,0.88,5.86,8.79,8.24
2026-07-27 13:32:55.421,-0.03,-0.54,0.88,2.93,10.8,16.66
2026-07-27 13:32:55.422,-0.07,-0.52,0.86,2.93,10.8,16.66
2026-07-27 13:32:55.423,-0.1,-0.52,0.83,-3.3,7.51,37.72
2026-07-27 13:32:55.424,-0.1,-0.52,0.83,-3.3,7.51,37.72
2026-07-27 13:32:55.424,-0.07,-0.54,0.82,-12.94,-3.48,71.53
2026-07-27 13:32:55.425,-0.07,-0.54,0.82,-12.94,-3.48,71.53
2026-07-27 13:32:55.426,-0.06,-0.56,0.81,-17.7,-6.23,96.62
2026-07-27 13:32:55.426,-0.06,-0.56,0.81,-17.7,-6.23,96.62
2026-07-27 13:32:55.427,-0.1,-0.54,0.77,-32.84,0.85,98.27
2026-07-27 13:32:55.428,-0.12,-0.58,0.74,-82.76,0.43,67.99
2026-07-27 13:32:55.428,-0.12,-0.58,0.74,-82.76,0.43,67.99
2026-07-27 13:32:55.429,-0.14,-0.68,0.7,-134.03,-0.61,26.06
2026-07-27 13:32:55.430,-0.14,-0.68,0.7,-134.03,-0.61,26.06
2026-07-27 13:32:55.430,-0.19,-0.74,0.64,-143.74,13.98,20.81
2026-07-27 13:32:55.540,-0.24,-0.77,0.59,-114.01,40.16,61.46
2026-07-27 13:32:55.540,-0.24,-0.77,0.59,-114.01,40.16,61.46
2026-07-27 13:32:55.542,-0.31,-0.78,0.51,-85.33,65.19,97.35
2026-07-27 13:32:55.542,-0.31,-0.78,0.51,-85.33,65.19,97.35
2026-07-27 13:32:55.551,-0.39,-0.79,0.41,-86.36,89.05,97.66
2026-07-27 13:32:55.660,-0.39,-0.79,0.41,-86.36,89.05,97.66
2026-07-27 13:32:55.660,-0.47,-0.85,0.36,-92.1,101.75,81.79
2026-07-27 13:32:55.661,-0.52,-0.91,0.32,-83.5,62.01,51.27
2026-07-27 13:32:55.662,-0.52,-0.91,0.32,-83.5,62.01,51.27
2026-07-27 13:32:55.663,-0.51,-0.91,0.3,-34.73,-9.77,3.91
2026-07-27 13:32:55.841,-0.51,-0.91,0.3,-34.73,-9.77,3.91
2026-07-27 13:32:55.841,-0.45,-0.84,0.38,61.22,-44.98,-42.36
2026-07-27 13:32:55.842,-0.45,-0.84,0.38,61.22,-44.98,-42.36
2026-07-27 13:32:55.842,-0.39,-0.77,0.5,126.22,-29.24,-59.69
2026-07-27 13:32:55.843,-0.39,-0.75,0.55,108.52,8.48,-42.18
2026-07-27 13:32:55.843,-0.39,-0.75,0.55,108.52,8.48,-42.18
2026-07-27 13:32:55.844,-0.42,-0.75,0.53,56.09,37.72,-18.13
2026-07-27 13:32:55.844,-0.42,-0.75,0.53,56.09,37.72,-18.13
2026-07-27 13:32:56.139,-0.45,-0.75,0.47,20.32,41.5,-5.8
2026-07-27 13:32:56.141,-0.45,-0.75,0.47,20.32,41.5,-5.8
2026-07-27 13:32:56.142,-0.45,-0.75,0.44,1.53,17.7,-2.99
2026-07-27 13:32:56.142,-0.43,-0.76,0.46,-11.6,-14.77,-3.54
2026-07-27 13:32:56.142,-0.43,-0.76,0.46,-11.6,-14.77,-3.54
2026-07-27 13:32:56.143,-0.4,-0.8,0.5,-17.15,-38.82,-4.64
2026-07-27 13:32:56.143,-0.4,-0.8,0.5,-17.15,-38.82,-4.64
2026-07-27 13:32:56.144,-0.38,-0.85,0.59,-4.09,-51.27,-6.23
2026-07-27 13:32:56.145,-0.38,-0.85,0.59,-4.09,-51.27,-6.23
2026-07-27 13:32:56.145,-0.35,-0.84,0.65,21.24,-49.56,-8.12
2026-07-27 13:32:56.145,-0.35,-0.84,0.65,21.24,-49.56,-8.12
2026-07-27 13:32:56.146,-0.33,-0.77,0.61,47.97,-44.49,-20.51
2026-07-27 13:32:56.146,-0.27,-0.72,0.58,114.44,-53.16,-49.32
2026-07-27 13:32:56.147,-0.27,-0.72,0.58,114.44,-53.16,-49.32
2026-07-27 13:32:56.203,-0.19,-0.54,0.63,270.26,-61.04,-72.27
2026-07-27 13:32:56.203,-0.19,-0.54,0.63,270.26,-61.04,-72.27
2026-07-27 13:32:56.265,-0.16,-0.18,0.79,429.08,-50.42,-75.01
2026-07-27 13:32:56.268,-0.15,0.1,1.0,394.04,-30.7,-49.74
2026-07-27 13:32:56.269,-0.15,0.1,1.0,394.04,-30.7,-49.74
2026-07-27 13:32:56.322,-0.13,0.15,1.12,200.62,-8.54,-8.0
2026-07-27 13:32:56.322,-0.13,0.15,1.12,200.62,-8.54,-8.0
2026-07-27 13:32:56.979,-0.11,0.17,1.06,77.82,7.39,4.82
2026-07-27 13:32:56.980,-0.11,0.17,1.06,77.82,7.39,4.82
2026-07-27 13:32:56.981,-0.11,0.2,0.94,60.73,7.87,-19.59
2026-07-27 13:32:56.981,-0.11,0.2,0.94,60.73,7.87,-19.59
2026-07-27 13:32:56.982,-0.11,0.19,0.9,40.34,1.89,-46.02
2026-07-27 13:32:56.982,-0.11,0.14,0.95,-8.97,-2.81,-50.42
2026-07-27 13:32:56.983,-0.11,0.14,0.95,-8.97,-2.81,-50.42
2026-07-27 13:32:56.983,-0.11,0.07,1.0,-46.26,-3.05,-39.67
2026-07-27 13:32:56.983,-0.11,0.07,1.0,-46.26,-3.05,-39.67
2026-07-27 13:32:56.984,-0.11,0.01,1.0,-59.51,3.11,-28.14
2026-07-27 13:32:56.988,-0.11,0.01,1.0,-59.51,3.11,-28.14
2026-07-27 13:32:56.988,-0.14,-0.05,0.97,-59.63,10.13,-22.95
2026-07-27 13:32:56.989,-0.19,-0.09,0.93,-43.82,15.38,-24.29
2026-07-27 13:32:56.989,-0.19,-0.09,0.93,-43.82,15.38,-24.29
2026-07-27 13:32:56.990,-0.25,-0.08,0.92,-14.65,20.08,-25.33
2026-07-27 13:32:56.990,-0.25,-0.08,0.92,-14.65,20.08,-25.33
2026-07-27 13:32:56.993,-0.29,-0.05,0.95,8.42,21.91,-24.48
2026-07-27 13:32:56.993,-0.29,-0.05,0.95,8.42,21.91,-24.48
2026-07-27 13:32:56.994,-0.31,-0.02,1.0,19.41,22.16,-26.73
2026-07-27 13:32:56.994,-0.3,-0.02,1.01,23.62,25.51,-31.07
2026-07-27 13:32:56.995,-0.3,-0.02,1.01,23.62,25.51,-31.07
2026-07-27 13:32:56.995,-0.29,-0.03,0.97,18.68,29.97,-31.74
2026-07-27 13:32:56.996,-0.29,-0.03,0.97,18.68,29.97,-31.74
2026-07-27 13:32:56.996,-0.28,-0.05,0.94,4.7,27.1,-25.21
2026-07-27 13:32:57.002,-0.28,-0.05,0.94,4.7,27.1,-25.21
2026-07-27 13:32:57.003,-0.28,-0.05,0.96,-12.88,7.87,-6.35
2026-07-27 13:32:57.003,-0.28,-0.05,0.96,-12.88,7.87,-6.35
2026-07-27 13:32:57.003,-0.22,-0.05,1.01,-38.88,-26.86,17.76
2026-07-27 13:32:57.003,-0.13,-0.07,1.02,-54.57,-56.76,31.86
2026-07-27 13:32:57.004,-0.13,-0.07,1.02,-54.57,-56.76,31.86
2026-07-27 13:32:57.104,-0.07,-0.08,0.98,-32.84,-62.99,36.93
2026-07-27 13:32:57.104,-0.07,-0.08,0.98,-32.84,-62.99,36.93
2026-07-27 13:32:57.105,-0.06,-0.04,0.94,-5.62,-44.43,41.2
2026-07-27 13:32:57.105,-0.06,-0.04,0.94,-5.62,-44.43,41.2
2026-07-27 13:32:57.106,-0.11,-0.04,0.97,-41.08,-10.38,55.79
2026-07-27 13:32:57.159,-0.16,-0.13,1.07,-105.9,7.02,63.78
2026-07-27 13:32:57.160,-0.16,-0.13,1.07,-105.9,7.02,63.78
2026-07-27 13:32:57.161,-0.22,-0.29,1.09,-98.39,-4.82,43.03
2026-07-27 13:32:57.519,-0.22,-0.29,1.09,-98.39,-4.82,43.03
2026-07-27 13:32:57.520,-0.18,-0.26,1.09,25.27,-44.74,19.35
2026-07-27 13:32:57.758,-0.18,-0.26,1.09,25.27,-44.74,19.35
2026-07-27 13:32:57.759,-0.06,-0.07,1.12,159.0,-86.3,8.42
2026-07-27 13:32:57.759,0.03,0.07,1.12,169.31,-86.85,-7.08
2026-07-27 13:32:57.760,0.03,0.07,1.12,169.31,-86.85,-7.08
2026-07-27 13:32:57.761,0.06,0.14,1.09,84.29,-54.75,-37.11
2026-07-27 13:32:57.762,0.06,0.14,1.09,84.29,-54.75,-37.11
2026-07-27 13:32:57.763,0.01,0.02,1.05,-32.9,-8.12,-60.61
2026-07-27 13:32:57.764,-0.05,-0.08,1.03,-96.01,33.57,-55.3
2026-07-27 13:32:57.764,-0.05,-0.08,1.03,-96.01,33.57,-55.3
2026-07-27 13:32:57.766,-0.1,-0.06,1.0,-69.4,48.77,-38.27
2026-07-27 13:32:57.767,-0.1,-0.06,1.0,-69.4,48.77,-38.27
2026-07-27 13:32:57.767,-0.12,-0.03,0.95,-48.58,36.01,-24.29
2026-07-27 13:32:57.767,-0.12,-0.03,0.95,-48.58,36.01,-24.29
2026-07-27 13:32:57.768,-0.12,-0.12,0.92,-97.47,13.31,-9.09
2026-07-27 13:32:58.063,-0.12,-0.3,0.91,-182.01,13.79,3.42
2026-07-27 13:32:58.063,-0.12,-0.3,0.91,-182.01,13.79,3.42
2026-07-27 13:32:58.064,-0.16,-0.51,0.88,-251.28,43.7,10.25
2026-07-27 13:32:58.064,-0.16,-0.51,0.88,-251.28,43.7,10.25
2026-07-27 13:32:58.065,-0.21,-0.67,0.79,-266.66,77.33,6.53
2026-07-27 13:32:58.065,-0.21,-0.67,0.79,-266.66,77.33,6.53
2026-07-27 13:32:58.066,-0.25,-0.72,0.64,-212.77,96.92,-2.87
2026-07-27 13:32:58.066,-0.27,-0.69,0.52,-135.62,88.01,-5.49
2026-07-27 13:32:58.066,-0.27,-0.69,0.52,-135.62,88.01,-5.49
2026-07-27 13:32:58.066,-0.28,-0.68,0.47,-69.21,53.71,-5.92
2026-07-27 13:32:58.067,-0.28,-0.68,0.47,-69.21,53.71,-5.92
2026-07-27 13:32:58.067,-0.27,-0.69,0.48,-5.8,16.42,-8.54
2026-07-27 13:32:58.068,-0.27,-0.69,0.48,-5.8,16.42,-8.54
2026-07-27 13:32:58.069,-0.25,-0.71,0.55,59.39,-10.56,-10.74
2026-07-27 13:32:58.069,-0.19,-0.67,0.69,159.91,-22.71,-16.17
2026-07-27 13:32:58.070,-0.19,-0.67,0.69,159.91,-22.71,-16.17
2026-07-27 13:32:58.071,-0.16,-0.45,0.76,366.52,-19.59,-37.17
2026-07-27 13:32:58.071,-0.16,-0.45,0.76,366.52,-19.59,-37.17
2026-07-27 13:32:58.075,-0.23,-0.06,0.67,583.25,-1.53,-56.09
2026-07-27 13:32:58.075,-0.23,-0.06,0.67,583.25,-1.53,-56.09
2026-07-27 13:32:58.075,-0.32,0.32,0.56,609.62,17.33,-53.1
2026-07-27 13:32:58.075,-0.35,0.58,0.48,481.69,9.95,-53.41
2026-07-27 13:32:58.075,-0.35,0.58,0.48,481.69,9.95,-53.41
2026-07-27 13:32:58.188,-0.3,0.71,0.43,366.15,-24.78,-66.59
2026-07-27 13:32:58.201,-0.3,0.71,0.43,366.15,-24.78,-66.59
2026-07-27 13:32:58.204,-0.22,0.79,0.41,286.25,-58.65,-68.12
2026-07-27 13:32:58.205,-0.16,0.88,0.46,190.0,-64.64,-46.14
2026-07-27 13:32:58.205,-0.16,0.88,0.46,190.0,-64.64,-46.14
2026-07-27 13:32:58.300,-0.17,0.93,0.51,102.42,-38.02,-16.91
2026-07-27 13:32:58.301,-0.17,0.93,0.51,102.42,-38.02,-16.91
2026-07-27 13:32:58.302,-0.22,0.95,0.51,47.79,3.91,6.53
2026-07-27 13:32:58.302,-0.22,0.95,0.51,47.79,3.91,6.53
2026-07-27 13:32:58.302,-0.26,0.92,0.53,-35.22,37.84,34.48
2026-07-27 13:32:58.964,-0.23,0.79,0.68,-212.28,55.97,77.51
2026-07-27 13:32:58.970,-0.23,0.79,0.68,-212.28,55.97,77.51
2026-07-27 13:32:58.970,-0.18,0.55,0.89,-419.74,92.65,107.97
2026-07-27 13:32:58.971,-0.18,0.55,0.89,-419.74,92.65,107.97
2026-07-27 13:32:58.971,-0.25,0.24,1.04,-533.02,169.8,84.84
2026-07-27 13:32:58.971,-0.25,0.24,1.04,-533.02,169.8,84.84
2026-07-27 13:32:58.972,-0.45,-0.04,1.06,-509.34,210.08,32.96
2026-07-27 13:32:58.973,-0.59,-0.22,0.99,-377.69,141.91,6.71
2026-07-27 13:32:58.973,-0.59,-0.22,0.99,-377.69,141.91,6.71
2026-07-27 13:32:58.973,-0.62,-0.29,0.92,-205.38,23.25,11.72
2026-07-27 13:32:58.973,-0.62,-0.29,0.92,-205.38,23.25,11.72
2026-07-27 13:32:58.974,-0.57,-0.29,0.94,-63.42,-60.97,26.31
2026-07-27 13:32:58.974,-0.57,-0.29,0.94,36.87,-89.78,42.72
2026-07-27 13:32:58.974,-0.49,-0.23,0.97,36.87,-89.78,42.72
2026-07-27 13:32:58.975,-0.43,-0.09,0.92,129.46,-61.83,61.83
2026-07-27 13:32:58.975,-0.43,-0.09,0.92,129.46,-61.83,61.83
2026-07-27 13:32:58.976,-0.43,0.06,0.79,213.99,-6.41,73.3
2026-07-27 13:32:58.976,-0.43,0.06,0.79,213.99,-6.41,73.3
2026-07-27 13:32:58.977,-0.45,0.2,0.72,231.69,32.04,60.06
2026-07-27 13:32:58.978,-0.45,0.2,0.72,118.23,28.75,18.98
2026-07-27 13:32:58.979,-0.45,0.25,0.81,118.23,28.75,18.98
2026-07-27 13:32:58.979,-0.43,0.17,0.94,-53.71,7.39,-5.98
2026-07-27 13:32:58.979,-0.43,0.17,0.94,-53.71,7.39,-5.98
2026-07-27 13:32:58.980,-0.46,0.15,0.92,-144.47,5.98,8.54
2026-07-27 13:32:58.980,-0.46,0.15,0.92,-144.47,5.98,8.54
2026-07-27 13:32:58.980,-0.52,0.19,0.9,-120.67,-6.47,3.54
2026-07-27 13:32:58.984,-0.52,0.19,0.9,-120.67,-6.47,3.54
2026-07-27 13:32:58.994,-0.56,0.23,0.88,-6.84,-68.36,-71.9
2026-07-27 13:32:58.995,-0.54,0.35,0.72,150.39,-124.94,-188.11
2026-07-27 13:32:58.999,-0.54,0.35,0.72,150.39,-124.94,-188.11
2026-07-27 13:33:00.159,-0.48,0.39,0.63,203.25,-74.52,-249.39
2026-07-27 13:33:00.160,-0.48,0.39,0.63,203.25,-74.52,-249.39
2026-07-27 13:33:00.160,-0.43,0.22,0.72,16.36,-0.49,-208.56
2026-07-27 13:33:00.161,-0.43,0.22,0.72,16.36,-0.49,-208.56
2026-07-27 13:33:00.161,-0.43,0.22,0.72,16.36,-0.49,-208.56
2026-07-27 13:33:00.162,-0.43,0.22,0.72,16.36,-0.49,-208.56
2026-07-27 13:33:00.162,-0.42,-0.45,0.94,-426.7,-27.16,-102.48
2026-07-27 13:33:00.163,-0.34,-0.74,0.82,-402.53,-22.89,-119.14
2026-07-27 13:33:00.163,-0.34,-0.74,0.82,-402.53,-22.89,-119.14
2026-07-27 13:33:00.164,-0.24,-0.98,0.67,-331.85,23.32,-133.36
2026-07-27 13:33:00.164,-0.24,-0.98,0.67,-331.85,23.32,-133.36
2026-07-27 13:33:00.169,-0.17,-1.09,0.53,-254.39,72.02,-116.27
2026-07-27 13:33:00.171,-0.17,-1.09,0.53,-254.39,72.02,-116.27
2026-07-27 13:33:00.172,-0.1,-1.08,0.35,-162.66,80.57,-85.63
2026-07-27 13:33:00.173,-0.03,-1.04,0.27,-66.96,64.88,-57.07
2026-07-27 13:33:00.173,-0.03,-1.04,0.27,-66.96,64.88,-57.07
2026-07-27 13:33:00.173,0.02,-1.02,0.34,33.14,36.38,-25.09
2026-07-27 13:33:00.173,0.02,-1.02,0.34,33.14,36.38,-25.09
2026-07-27 13:33:00.173,0.06,-1.0,0.48,116.46,5.68,-2.01
2026-07-27 13:33:00.179,0.09,-0.91,0.61,181.64,-19.04,2.87
2026-07-27 13:33:00.179,0.09,-0.91,0.61,181.64,-19.04,2.87
2026-07-27 13:33:00.180,0.14,-0.79,0.63,225.52,-72.94,-4.88
2026-07-27 13:33:00.180,0.14,-0.79,0.63,225.52,-72.94,-4.88
2026-07-27 13:33:00.180,0.22,-0.72,0.54,178.41,-129.64,-30.46
2026-07-27 13:33:00.180,0.22,-0.72,0.54,178.41,-129.64,-30.46
2026-07-27 13:33:00.180,0.25,-0.66,0.52,87.83,-91.92,-62.93
2026-07-27 13:33:00.180,0.22,-0.58,0.59,76.9,7.75,-74.28
2026-07-27 13:33:00.180,0.22,-0.58,0.59,76.9,7.75,-74.28
2026-07-27 13:33:00.180,0.17,-0.51,0.69,108.03,69.52,-63.96
2026-07-27 13:33:00.180,0.17,-0.51,0.69,108.03,69.52,-63.96
2026-07-27 13:33:00.180,0.15,-0.44,0.8,140.69,70.31,-50.48
2026-07-27 13:33:00.180,0.15,-0.44,0.8,140.69,70.31,-50.48
2026-07-27 13:33:00.715,0.14,-0.31,0.84,198.06,35.95,-46.94
2026-07-27 13:33:00.722,0.17,-0.18,0.87,223.02,5.68,-54.2
2026-07-27 13:33:00.722,0.17,-0.18,0.87,223.02,5.68,-54.2
2026-07-27 13:33:00.763,0.22,-0.07,0.9,208.13,-8.61,-63.6
2026-07-27 13:33:00.765,0.22,-0.07,0.9,208.13,-8.61,-63.6
2026-07-27 13:33:00.766,0.25,0.05,0.89,216.98,-15.38,-72.63
2026-07-27 13:33:00.766,0.25,0.05,0.89,216.98,-15.38,-72.63
2026-07-27 13:33:00.766,0.22,0.21,0.88,234.68,-10.74,-85.63
2026-07-27 13:33:00.767,0.22,0.21,0.88,217.16,5.19,-103.52
2026-07-27 13:33:00.768,0.19,0.34,0.9,217.16,5.19,-103.52
2026-07-27 13:33:00.768,0.14,0.41,0.92,144.78,25.02,-106.99
2026-07-27 13:33:00.769,0.14,0.41,0.92,144.78,25.02,-106.99
2026-07-27 13:33:00.770,0.08,0.44,0.96,25.15,46.81,-77.94
2026-07-27 13:33:00.770,0.08,0.44,0.96,25.15,46.81,-77.94
2026-07-27 13:33:00.770,0.02,0.4,0.98,-121.15,62.38,-28.08
2026-07-27 13:33:00.772,0.02,0.4,0.98,-121.15,62.38,-28.08
2026-07-27 13:33:00.772,0.0,0.26,1.01,-280.82,58.17,29.97
2026-07-27 13:33:00.772,0.02,-0.06,1.03,-452.45,42.85,88.01
2026-07-27 13:33:00.776,0.02,-0.06,1.03,-452.45,42.85,88.01
2026-07-27 13:33:00.777,0.04,-0.49,1.0,-576.97,44.8,115.05
2026-07-27 13:33:00.779,0.04,-0.49,1.0,-576.97,44.8,115.05
2026-07-27 13:33:00.779,0.01,-0.77,0.85,-524.11,66.89,87.1
2026-07-27 13:33:00.779,-0.08,-0.85,0.64,-344.67,79.77,33.57
2026-07-27 13:33:00.779,-0.08,-0.85,0.64,-344.67,79.77,33.57
2026-07-27 13:33:00.779,-0.14,-0.88,0.53,-200.81,55.54,-6.04
2026-07-27 13:33:00.779,-0.14,-0.88,0.53,-200.81,55.54,-6.04
2026-07-27 13:33:00.779,-0.13,-0.91,0.57,-90.52,2.87,-17.46
2026-07-27 13:33:00.779,-0.13,-0.91,0.57,-90.52,2.87,-17.46
2026-07-27 13:33:00.780,-0.06,-0.87,0.59,-5.74,-36.5,-10.31
2026-07-27 13:33:00.781,-0.06,-0.87,0.59,-11.84,-52.49,-14.77
2026-07-27 13:33:00.783,-0.02,-0.78,0.44,-11.84,-52.49,-14.77
2026-07-27 13:33:00.783,-0.09,-0.73,0.31,-43.27,-64.94,-18.31
2026-07-27 13:33:00.783,-0.09,-0.73,0.31,-43.27,-64.94,-18.31
2026-07-27 13:33:00.783,-0.26,-0.74,0.37,20.63,-77.94,5.49
2026-07-27 13:33:00.786,-0.26,-0.74,0.37,20.63,-77.94,5.49
2026-07-27 13:33:00.787,-0.39,-0.76,0.63,153.2,-89.48,35.64
2026-07-27 13:33:00.787,-0.39,-0.76,0.63,153.2,-89.48,35.64
2026-07-27 13:33:00.787,-0.4,-0.7,0.85,269.65,-84.17,54.44
2026-07-27 13:33:00.787,-0.34,-0.58,0.85,330.08,-51.88,59.27
2026-07-27 13:33:00.787,-0.34,-0.58,0.85,330.08,-51.88,59.27
2026-07-27 13:33:00.787,-0.26,-0.47,0.77,317.75,-20.02,56.46
2026-07-27 13:33:00.787,-0.26,-0.47,0.77,317.75,-20.02,56.46
2026-07-27 13:33:00.787,-0.21,-0.37,0.77,239.81,-13.98,63.78
2026-07-27 13:33:00.820,-0.21,-0.37,0.77,239.81,-13.98,63.78
2026-07-27 13:33:00.825,-0.18,-0.27,0.83,134.58,-23.74,77.39
2026-07-27 13:33:00.825,-0.16,-0.2,0.94,39.55,-32.53,79.77
2026-07-27 13:33:00.825,-0.16,-0.2,0.94,39.55,-32.53,79.77
2026-07-27 13:33:00.826,-0.15,-0.18,1.04,-13.18,-31.92,74.4
2026-07-27 13:33:00.826,-0.15,-0.18,1.04,-13.18,-31.92,74.4
2026-07-27 13:33:00.939,-0.15,-0.19,1.09,-28.81,-22.34,73.85
2026-07-27 13:33:00.941,-0.15,-0.19,1.09,-28.81,-22.34,73.85
2026-07-27 13:33:00.942,-0.15,-0.19,1.09,-28.81,-22.34,73.85
2026-07-27 13:33:00.943,-0.15,-0.19,1.09,-28.81,-22.34,73.85
2026-07-27 13:33:00.944,-0.23,-0.3,0.94,-75.56,6.53,90.33
2026-07-27 13:33:00.944,-0.31,-0.34,0.96,-65.67,5.62,98.45
2026-07-27 13:33:01.060,-0.31,-0.34,0.96,-65.67,5.62,98.45
2026-07-27 13:33:01.061,-0.33,-0.22,1.22,-3.05,-23.62,97.84
2026-07-27 13:33:01.061,-0.33,-0.22,1.22,-3.05,-23.62,97.84
2026-07-27 13:33:01.062,-0.32,-0.01,1.36,64.27,-35.95,80.63
2026-07-27 13:33:01.062,-0.32,-0.01,1.36,64.27,-35.95,80.63
2026-07-27 13:33:01.781,-0.38,0.1,1.08,103.03,3.66,39.73
2026-07-27 13:33:01.781,-0.45,0.09,0.72,113.83,47.55,-14.89
2026-07-27 13:33:02.262,-0.45,0.09,0.72,113.83,47.55,-14.89
2026-07-27 13:33:02.267,-0.4,0.02,0.65,85.08,41.5,-52.49
2026-07-27 13:33:02.271,-0.4,0.02,0.65,85.08,41.5,-52.49
2026-07-27 13:33:02.271,-0.23,0.0,0.87,17.94,-10.31,-50.72
2026-07-27 13:33:02.272,-0.23,0.0,0.87,17.94,-10.31,-50.72
2026-07-27 13:33:02.272,-0.05,0.03,1.12,-45.47,-54.93,-24.72
2026-07-27 13:33:02.272,0.03,0.03,1.13,-61.83,-52.06,-9.34
2026-07-27 13:33:02.382,0.03,0.03,1.13,-61.83,-52.06,-9.34
2026-07-27 13:33:02.393,0.04,-0.02,0.95,-42.3,-22.34,-11.6
2026-07-27 13:33:02.394,0.04,-0.02,0.95,-42.3,-22.34,-11.6
2026-07-27 13:33:02.395,0.05,-0.09,0.84,-27.47,-8.3,-13.37
2026-07-27 13:33:02.396,0.05,-0.09,0.84,-27.47,-8.3,-13.37
2026-07-27 13:33:02.396,0.08,-0.14,0.87,-24.48,-15.69,-4.82
2026-07-27 13:33:02.396,0.08,-0.16,0.95,-15.5,-22.46,9.09
2026-07-27 13:33:02.396,0.08,-0.16,0.95,-15.5,-22.46,9.09
2026-07-27 13:33:02.397,0.03,-0.15,0.99,1.1,-18.49,20.81
2026-07-27 13:33:02.397,0.03,-0.15,0.99,1.1,-18.49,20.81
2026-07-27 13:33:02.398,-0.03,-0.13,0.99,13.67,-11.23,27.4
2026-07-27 13:33:02.398,-0.09,-0.1,0.98,18.19,-6.77,27.65
2026-07-27 13:33:02.398,-0.09,-0.1,0.98,18.19,-6.77,27.65
2026-07-27 13:33:02.399,-0.1,-0.08,0.98,14.16,-7.63,23.07
2026-07-27 13:33:02.399,-0.1,-0.08,0.98,14.16,-7.63,23.07
2026-07-27 13:33:02.400,-0.06,-0.09,1.0,4.39,-12.27,18.98
2026-07-27 13:33:02.400,-0.06,-0.09,1.0,4.39,-12.27,18.98
2026-07-27 13:33:02.400,-0.0,-0.11,1.02,-4.03,-14.65,19.47
2026-07-27 13:33:02.402,-0.0,-0.11,1.02,-4.03,-14.65,19.47
2026-07-27 13:33:02.403,0.02,-0.13,1.03,-6.47,-11.9,24.84
2026-07-27 13:33:02.403,0.02,-0.13,1.03,-2.56,-5.19,31.07
2026-07-27 13:33:02.403,0.01,-0.13,1.02,-2.56,-5.19,31.07
2026-07-27 13:33:02.403,-0.01,-0.12,1.0,1.65,0.37,35.64
2026-07-27 13:33:02.404,-0.01,-0.12,1.0,1.65,0.37,35.64
2026-07-27 13:33:02.404,-0.03,-0.13,0.98,0.43,0.73,39.25
2026-07-27 13:33:02.405,-0.03,-0.13,0.98,0.43,0.73,39.25
2026-07-27 13:33:02.407,-0.05,-0.14,0.98,-2.38,-0.85,42.3
2026-07-27 13:33:02.407,-0.05,-0.14,0.98,-2.38,-0.85,42.3
2026-07-27 13:33:02.407,-0.08,-0.11,0.99,1.22,5.43,42.11
2026-07-27 13:33:02.408,-0.08,-0.11,0.99,1.22,5.43,42.11
2026-07-27 13:33:02.408,-0.16,-0.09,0.93,8.91,20.94,35.1
2026-07-27 13:33:02.408,-0.23,-0.11,0.85,7.51,29.36,22.46
2026-07-27 13:33:02.408,-0.23,-0.11,0.85,7.51,29.36,22.46
2026-07-27 13:33:02.408,-0.21,-0.15,0.88,-5.74,17.27,10.93
2026-07-27 13:33:02.409,-0.21,-0.15,0.88,-5.74,17.27,10.93
2026-07-27 13:33:02.409,-0.14,-0.15,1.03,-13.92,-10.07,10.25
2026-07-27 13:33:02.409,-0.14,-0.15,1.03,-13.92,-10.07,10.25
2026-07-27 13:33:02.409,-0.04,-0.12,1.16,-9.34,-32.71,22.71
2026-07-27 13:33:02.409,-0.04,-0.12,1.16,-9.34,-32.71,22.71
2026-07-27 13:33:02.410,0.04,-0.09,1.18,5.92,-30.88,30.64
2026-07-27 13:33:02.410,0.03,-0.06,1.11,23.32,-9.58,25.63
2026-07-27 13:33:02.410,0.03,-0.06,1.11,23.32,-9.58,25.63
2026-07-27 13:33:02.411,0.0,-0.04,1.04,24.84,6.9,18.8
2026-07-27 13:33:02.411,0.0,-0.04,1.04,24.84,6.9,18.8
2026-07-27 13:33:02.411,0.0,-0.06,1.03,12.08,6.16,13.37
2026-07-27 13:33:02.411,0.0,-0.06,1.03,12.08,6.16,13.37
2026-07-27 13:33:02.411,0.01,-0.09,1.02,-8.36,-3.11,12.88
2026-07-27 13:33:02.411,0.01,-0.09,1.02,-8.36,-3.11,12.88
2026-07-27 13:33:02.412,-0.01,-0.09,0.98,-28.87,-7.2,22.03
2026-07-27 13:33:02.412,-0.01,-0.09,0.98,-28.87,-7.2,22.03
2026-07-27 13:33:02.412,-0.01,-0.09,0.98,-28.87,-7.2,22.03
2026-07-27 13:33:02.412,-0.01,-0.09,0.98,-28.87,-7.2,22.03
2026-07-27 13:33:02.739,-0.08,-0.1,0.91,-48.52,3.48,41.14
2026-07-27 13:33:02.739,-0.06,-0.12,0.92,-60.67,6.53,39.73
2026-07-27 13:33:02.740,-0.06,-0.12,0.92,-60.67,6.53,39.73
2026-07-27 13:33:02.741,-0.0,-0.2,0.92,-71.78,4.27,32.59
2026-07-27 13:33:02.741,-0.0,-0.2,0.92,-71.78,4.27,32.59
2026-07-27 13:33:02.741,0.02,-0.3,0.92,-70.92,-2.81,28.32
2026-07-27 13:33:02.742,0.02,-0.3,0.92,-62.74,-14.16,33.69
2026-07-27 13:33:02.742,-0.01,-0.32,1.06,-62.74,-14.16,33.69
2026-07-27 13:33:02.743,-0.02,-0.27,1.29,-71.9,-26.18,44.49
2026-07-27 13:33:02.743,-0.02,-0.27,1.29,-71.9,-26.18,44.49
2026-07-27 13:33:02.744,-0.02,-0.24,1.3,-93.51,-26.43,54.5
2026-07-27 13:33:02.744,-0.02,-0.24,1.3,-93.51,-26.43,54.5
2026-07-27 13:33:02.745,-0.09,-0.24,0.95,-102.23,-8.79,62.99
2026-07-27 13:33:02.745,-0.19,-0.25,0.56,-104.06,8.91,68.42
2026-07-27 13:33:02.746,-0.19,-0.25,0.56,-104.06,8.91,68.42
2026-07-27 13:33:02.803,-0.28,-0.32,0.38,-121.77,10.68,67.44
2026-07-27 13:33:02.804,-0.28,-0.32,0.38,-121.77,10.68,67.44
2026-07-27 13:33:03.459,-0.35,-0.45,0.43,-165.22,7.63,57.5
2026-07-27 13:33:03.460,-0.35,-0.45,0.43,-165.22,7.63,57.5
2026-07-27 13:33:03.460,-0.4,-0.66,0.69,-189.76,-0.18,35.71
2026-07-27 13:33:03.461,-0.34,-0.94,1.0,-123.35,-44.25,5.31
2026-07-27 13:33:03.462,-0.34,-0.94,1.0,-123.35,-44.25,5.31
2026-07-27 13:33:03.462,-0.22,-1.07,1.11,-18.49,-90.21,-14.22
2026-07-27 13:33:03.463,-0.22,-1.07,1.11,-18.49,-90.21,-14.22
2026-07-27 13:33:03.463,-0.17,-0.96,0.97,24.41,-70.43,-4.39
2026-07-27 13:33:03.463,-0.17,-0.96,0.97,24.41,-70.43,-4.39
2026-07-27 13:33:03.464,-0.19,-0.77,0.73,-7.69,-14.28,18.62
2026-07-27 13:33:03.465,-0.19,-0.77,0.73,-7.69,-14.28,18.62
2026-07-27 13:33:03.465,-0.19,-0.77,0.73,-7.69,-14.28,18.62
2026-07-27 13:33:03.465,-0.19,-0.77,0.73,-7.69,-14.28,18.62
2026-07-27 13:33:03.466,-0.21,-0.7,0.47,-112.18,9.52,17.76
2026-07-27 13:33:03.466,-0.21,-0.7,0.47,-97.35,-11.96,7.93
2026-07-27 13:33:03.467,-0.23,-0.76,0.47,-97.35,-11.96,7.93
2026-07-27 13:33:03.468,-0.23,-0.81,0.51,-43.64,-28.02,4.39
2026-07-27 13:33:03.468,-0.23,-0.81,0.51,-43.64,-28.02,4.39
2026-07-27 13:33:03.469,-0.24,-0.83,0.56,11.72,-33.08,6.23
2026-07-27 13:33:03.469,-0.24,-0.83,0.56,11.72,-33.08,6.23
2026-07-27 13:33:03.470,-0.23,-0.81,0.6,48.83,-33.26,9.89
2026-07-27 13:33:03.471,-0.23,-0.81,0.6,48.83,-33.26,9.89
2026-07-27 13:33:03.471,-0.15,-0.81,0.61,69.46,-36.56,11.11
2026-07-27 13:33:03.472,0.02,-0.87,0.66,86.36,-49.87,9.95
2026-07-27 13:33:03.472,0.02,-0.87,0.66,86.36,-49.87,9.95
2026-07-27 13:33:03.472,0.13,-0.88,0.77,135.62,-63.29,30.33
2026-07-27 13:33:03.473,0.13,-0.88,0.77,135.62,-63.29,30.33
2026-07-27 13:33:03.473,-0.04,-0.59,0.83,226.56,-47.85,85.45
2026-07-27 13:33:03.474,-0.42,-0.17,0.75,286.19,-1.77,129.27
2026-07-27 13:33:03.475,-0.42,-0.17,0.75,286.19,-1.77,129.27
2026-07-27 13:33:03.519,-0.75,0.03,0.63,240.23,41.14,110.78
2026-07-27 13:33:03.519,-0.75,0.03,0.63,240.23,41.14,110.78
2026-07-27 13:33:04.060,-0.86,-0.06,0.6,119.75,51.45,42.72
2026-07-27 13:33:04.061,-0.86,-0.06,0.6,14.77,27.4,-25.82
2026-07-27 13:33:04.062,-0.75,-0.22,0.72,14.77,27.4,-25.82
2026-07-27 13:33:04.062,-0.55,-0.33,0.9,-35.64,-0.98,-74.28
2026-07-27 13:33:04.062,-0.55,-0.33,0.9,-35.64,-0.98,-74.28
2026-07-27 13:33:04.063,-0.3,-0.42,1.07,-43.15,-10.68,-110.84
2026-07-27 13:33:04.063,-0.3,-0.42,1.07,-43.15,-10.68,-110.84
2026-07-27 13:33:04.064,-0.1,-0.49,1.13,-31.74,-9.03,-136.84
2026-07-27 13:33:04.240,-0.1,-0.49,1.13,-31.74,-9.03,-136.84
2026-07-27 13:33:04.240,-0.04,-0.5,1.03,-18.19,-3.6,-149.23
2026-07-27 13:33:04.241,-0.08,-0.5,0.84,-11.84,3.6,-152.28
2026-07-27 13:33:04.241,-0.08,-0.5,0.84,-11.84,3.6,-152.28
2026-07-27 13:33:04.243,-0.19,-0.48,0.73,-13.55,10.99,-147.89
2026-07-27 13:33:04.243,-0.19,-0.48,0.73,-13.55,10.99,-147.89
2026-07-27 13:33:04.243,-0.34,-0.39,0.77,-7.63,22.64,-140.81
2026-07-27 13:33:04.244,-0.34,-0.39,0.77,-7.63,22.64,-140.81
2026-07-27 13:33:04.245,-0.41,-0.26,0.97,2.26,32.65,-142.52
2026-07-27 13:33:04.247,-0.33,-0.17,1.21,-10.44,31.49,-153.2
2026-07-27 13:33:04.248,-0.33,-0.17,1.21,-10.44,31.49,-153.2
2026-07-27 13:33:04.248,-0.16,-0.18,1.26,-47.36,33.2,-163.7
2026-07-27 13:33:04.248,-0.16,-0.18,1.26,-47.36,33.2,-163.7
2026-07-27 13:33:04.248,0.02,-0.29,1.09,-85.51,51.82,-169.92
2026-07-27 13:33:04.249,0.02,-0.29,1.09,-85.51,51.82,-169.92
2026-07-27 13:33:04.249,0.14,-0.42,0.93,-106.32,76.9,-163.27
2026-07-27 13:33:04.249,0.18,-0.47,0.87,-102.11,94.91,-137.45
2026-07-27 13:33:04.249,0.18,-0.47,0.87,-102.11,94.91,-137.45
2026-07-27 13:33:04.250,0.19,-0.45,0.83,-83.01,104.0,-105.71
2026-07-27 13:33:04.250,0.19,-0.45,0.83,-83.01,104.0,-105.71
2026-07-27 13:33:04.253,0.22,-0.43,0.72,-56.15,105.96,-82.4
2026-07-27 13:33:04.253,0.27,-0.46,0.58,-9.22,96.07,-68.3
2026-07-27 13:33:04.254,0.27,-0.46,0.58,-9.22,96.07,-68.3
2026-07-27 13:33:04.254,0.29,-0.53,0.53,46.2,69.95,-58.47
2026-07-27 13:33:04.299,0.29,-0.53,0.53,46.2,69.95,-58.47
2026-07-27 13:33:04.300,0.26,-0.6,0.59,81.67,41.38,-48.16
2026-07-27 13:33:04.301,0.26,-0.6,0.59,81.67,41.38,-48.16
2026-07-27 13:33:04.723,0.18,-0.66,0.73,105.16,26.55,-34.79
2026-07-27 13:33:04.723,0.08,-0.67,0.89,126.71,19.65,-21.48
2026-07-27 13:33:04.723,0.08,-0.67,0.89,126.71,19.65,-21.48
2026-07-27 13:33:04.724,-0.02,-0.63,1.04,124.21,11.78,-10.62
2026-07-27 13:33:04.724,-0.02,-0.63,1.04,124.21,11.78,-10.62
2026-07-27 13:33:04.724,-0.12,-0.5,1.19,104.49,4.15,-1.77
2026-07-27 13:33:04.724,-0.12,-0.5,1.19,104.49,4.15,-1.77
2026-07-27 13:33:04.724,-0.12,-0.5,1.19,104.49,4.15,-1.77
2026-07-27 13:33:04.725,-0.12,-0.5,1.19,104.49,4.15,-1.77
2026-07-27 13:33:04.725,-0.11,-0.24,1.27,12.27,-9.28,-3.91
2026-07-27 13:33:04.725,-0.11,-0.24,1.27,12.27,-9.28,-3.91
2026-07-27 13:33:04.726,0.0,-0.36,1.11,-67.75,1.1,-18.92
2026-07-27 13:33:04.730,0.01,-0.49,0.91,-125.67,30.94,-26.61
2026-07-27 13:33:04.730,0.01,-0.49,0.91,-125.67,30.94,-26.61
2026-07-27 13:33:04.730,-0.05,-0.52,0.84,-162.96,59.94,-21.73
2026-07-27 13:33:04.730,-0.05,-0.52,0.84,-162.96,59.94,-21.73
2026-07-27 13:33:04.731,-0.09,-0.55,0.82,-193.48,74.16,-18.74
2026-07-27 13:33:04.731,-0.09,-0.55,0.82,-193.48,74.16,-18.74
2026-07-27 13:33:04.731,-0.06,-0.62,0.73,-231.26,79.16,-21.67
2026-07-27 13:33:05.021,0.02,-0.71,0.54,-236.82,73.79,-23.01
2026-07-27 13:33:05.024,0.02,-0.71,0.54,-236.82,73.79,-23.01
2026-07-27 13:33:05.024,0.07,-0.76,0.32,-162.41,55.6,-19.53
2026-07-27 13:33:05.024,0.07,-0.76,0.32,-162.41,55.6,-19.53
2026-07-27 13:33:05.025,0.06,-0.77,0.21,-34.06,29.54,-15.87
2026-07-27 13:33:05.026,0.02,-0.74,0.28,93.57,-2.44,-15.81
2026-07-27 13:33:05.026,0.02,-0.74,0.28,93.57,-2.44,-15.81
2026-07-27 13:33:05.027,-0.01,-0.72,0.46,178.89,-36.38,-21.3
2026-07-27 13:33:05.027,-0.01,-0.72,0.46,178.89,-36.38,-21.3
2026-07-27 13:33:05.027,0.02,-0.72,0.63,197.51,-60.67,-30.52
2026-07-27 13:33:05.027,0.02,-0.72,0.63,197.51,-60.67,-30.52
2026-07-27 13:33:05.028,0.08,-0.72,0.76,166.02,-69.4,-35.34
2026-07-27 13:33:05.467,0.14,-0.66,0.82,132.93,-66.28,-28.99
2026-07-27 13:33:05.471,0.14,-0.66,0.82,132.93,-66.28,-28.99
2026-07-27 13:33:05.472,0.17,-0.57,0.82,120.85,-56.88,-11.66
2026-07-27 13:33:05.473,0.17,-0.57,0.82,120.85,-56.88,-11.66
2026-07-27 13:33:05.473,0.18,-0.53,0.82,102.36,-48.58,6.96
2026-07-27 13:33:05.473,0.18,-0.53,0.82,102.36,-48.58,6.96
2026-07-27 13:33:05.473,0.21,-0.5,0.88,73.73,-40.1,15.38
2026-07-27 13:33:05.474,0.27,-0.42,0.98,62.99,-28.56,14.83
2026-07-27 13:33:05.476,0.27,-0.42,0.98,62.99,-28.56,14.83
2026-07-27 13:33:05.478,0.36,-0.3,1.09,60.42,-18.62,16.3
2026-07-27 13:33:05.478,0.36,-0.3,1.09,60.42,-18.62,16.3
2026-07-27 13:33:05.478,0.39,-0.26,1.1,37.66,-7.63,27.04
