Timestamp,AccX,AccY,AccZ,GyroX,GyroY,GyroZ
2026-08-03 12:38:13.174,0.14,-0.45,0.9,12.57,47.55,24.11
2026-08-03 12:38:13.175,0.18,-0.95,0.18,-27.04,10.5,11.11
2026-08-03 12:38:13.175,0.14,-0.96,0.2,18.92,8.06,35.46
2026-08-03 12:38:13.230,0.14,-0.96,0.2,18.92,8.06,35.46
2026-08-03 12:38:13.231,0.08,-0.94,0.24,73.61,12.63,51.51
2026-08-03 12:38:13.231,0.08,-0.94,0.24,73.61,12.63,51.51
2026-08-03 12:38:13.291,0.03,-0.89,0.33,113.77,15.56,48.58
2026-08-03 12:38:13.291,0.03,-0.89,0.33,113.77,15.56,48.58
2026-08-03 12:38:13.292,-0.0,-0.85,0.43,141.66,16.17,34.0
2026-08-03 12:38:13.369,-0.0,-0.85,0.43,152.65,15.5,24.41
2026-08-03 12:38:13.372,-0.02,-0.81,0.53,152.65,15.5,24.41
2026-08-03 12:38:13.411,-0.02,-0.77,0.6,114.44,10.5,21.97
2026-08-03 12:38:13.412,-0.02,-0.77,0.6,114.44,10.5,21.97
2026-08-03 12:38:13.412,-0.01,-0.75,0.61,31.98,2.2,14.89
2026-08-03 12:38:13.473,-0.01,-0.75,0.61,31.98,2.2,14.89
2026-08-03 12:38:13.474,-0.0,-0.75,0.57,-43.58,-4.39,0.49
2026-08-03 12:38:13.476,-0.0,-0.75,0.57,-43.58,-4.39,0.49
2026-08-03 12:38:13.530,0.01,-0.77,0.54,-66.96,-9.09,-13.92
2026-08-03 12:38:13.532,0.04,-0.82,0.52,-43.03,-11.47,-20.87
2026-08-03 12:38:13.601,0.04,-0.82,0.52,-43.03,-11.47,-20.87
2026-08-03 12:38:13.601,0.05,-0.86,0.5,-12.15,-8.73,-16.3
2026-08-03 12:38:13.602,0.05,-0.86,0.5,-12.15,-8.73,-16.3
2026-08-03 12:38:13.650,0.05,-0.85,0.5,1.46,-3.17,-6.96
2026-08-03 12:38:13.710,0.05,-0.85,0.5,1.46,-3.17,-6.96
2026-08-03 12:38:13.710,0.05,-0.84,0.51,-3.3,1.53,-0.24
2026-08-03 12:38:13.710,0.05,-0.84,0.51,-3.3,1.53,-0.24
2026-08-03 12:38:13.711,0.06,-0.85,0.5,-18.74,6.16,4.15
2026-08-03 12:38:13.793,0.05,-0.85,0.48,-30.82,10.8,5.98
2026-08-03 12:38:13.794,0.05,-0.85,0.48,-30.82,10.8,5.98
2026-08-03 12:38:13.794,0.05,-0.87,0.46,-31.37,12.82,5.92
2026-08-03 12:38:13.836,0.05,-0.87,0.46,-31.37,12.82,5.92
2026-08-03 12:38:13.837,0.04,-0.89,0.44,-27.47,12.27,7.02
2026-08-03 12:38:13.838,0.04,-0.89,0.44,-27.47,12.27,7.02
2026-08-03 12:38:13.890,0.02,-0.9,0.42,-21.97,11.66,9.95
2026-08-03 12:38:13.891,0.02,-0.9,0.42,-9.03,10.93,11.66
2026-08-03 12:38:13.955,-0.01,-0.88,0.4,-9.03,10.93,11.66
2026-08-03 12:38:13.956,-0.03,-0.86,0.39,11.05,9.09,9.64
2026-08-03 12:38:13.956,-0.03,-0.86,0.39,11.05,9.09,9.64
2026-08-03 12:38:14.011,-0.05,-0.84,0.39,29.54,6.04,5.07
2026-08-03 12:38:14.011,-0.05,-0.84,0.39,29.54,6.04,5.07
2026-08-03 12:38:14.070,-0.05,-0.83,0.41,38.7,-0.55,-2.2
2026-08-03 12:38:14.071,-0.05,-0.83,0.41,38.7,-0.55,-2.2
2026-08-03 12:38:14.072,-0.03,-0.82,0.45,32.04,-10.19,-11.84
2026-08-03 12:38:14.131,-0.03,-0.82,0.45,16.85,-16.91,-19.71
2026-08-03 12:38:14.132,0.01,-0.82,0.44,16.85,-16.91,-19.71
2026-08-03 12:38:14.132,0.02,-0.79,0.41,15.99,-21.85,-29.3
2026-08-03 12:38:14.190,0.02,-0.79,0.41,15.99,-21.85,-29.3
2026-08-03 12:38:14.191,0.02,-0.71,0.36,48.28,-37.6,-58.53
2026-08-03 12:38:14.192,0.02,-0.71,0.36,48.28,-37.6,-58.53
2026-08-03 12:38:14.254,0.06,-0.57,0.3,124.76,-67.44,-111.82
2026-08-03 12:38:14.255,0.06,-0.57,0.3,273.44,-118.65,-161.01
2026-08-03 12:38:14.311,0.18,-0.34,0.22,273.44,-118.65,-161.01
2026-08-03 12:38:14.312,0.45,-0.03,0.24,429.75,-217.83,-151.79
2026-08-03 12:38:14.312,0.45,-0.03,0.24,429.75,-217.83,-151.79
2026-08-03 12:38:14.370,0.91,0.26,0.63,407.96,-326.42,-84.72
2026-08-03 12:38:14.371,0.91,0.26,0.63,407.96,-326.42,-84.72
2026-08-03 12:38:14.454,1.29,0.47,1.1,227.84,-318.24,-48.4
2026-08-03 12:38:14.461,1.34,0.5,1.11,77.88,-153.63,-90.7
2026-08-03 12:38:14.462,1.34,0.5,1.11,77.88,-153.63,-90.7
2026-08-03 12:38:14.491,1.11,0.37,0.84,17.09,43.09,-163.39
2026-08-03 12:38:14.492,1.11,0.37,0.84,17.09,43.09,-163.39
2026-08-03 12:38:14.554,0.79,0.28,0.7,11.54,152.89,-204.77
2026-08-03 12:38:14.555,0.79,0.28,0.7,11.54,152.89,-204.77
2026-08-03 12:38:14.555,0.55,0.37,0.76,-14.04,171.33,-194.76
2026-08-03 12:38:14.611,0.41,0.49,0.8,-107.6,170.59,-146.0
2026-08-03 12:38:14.612,0.41,0.49,0.8,-107.6,170.59,-146.0
2026-08-03 12:38:14.671,0.29,0.37,0.75,-233.89,195.25,-80.32
2026-08-03 12:38:14.671,0.29,0.37,0.75,-233.89,195.25,-80.32
2026-08-03 12:38:14.672,0.17,0.06,0.76,-297.73,205.32,-20.69
2026-08-03 12:38:14.730,0.17,0.06,0.76,-297.73,205.32,-20.69
2026-08-03 12:38:14.731,0.03,-0.1,0.77,-195.86,182.5,23.38
2026-08-03 12:38:14.731,-0.12,0.15,0.76,-2.38,136.78,57.01
2026-08-03 12:38:14.795,-0.12,0.15,0.76,-2.38,136.78,57.01
2026-08-03 12:38:14.796,-0.19,0.48,0.88,115.3,61.46,53.28
2026-08-03 12:38:14.850,-0.19,0.48,0.88,115.3,61.46,53.28
2026-08-03 12:38:14.851,-0.21,0.58,0.93,149.29,-35.71,-24.54
2026-08-03 12:38:14.852,-0.21,0.58,0.93,149.29,-35.71,-24.54
2026-08-03 12:38:14.911,-0.13,0.78,0.89,144.9,-150.45,-163.51
2026-08-03 12:38:14.911,0.2,0.94,1.03,74.46,-209.72,-255.74
2026-08-03 12:38:14.912,0.2,0.94,1.03,74.46,-209.72,-255.74
2026-08-03 12:38:14.970,0.58,0.7,1.21,-16.42,-138.06,-236.88
2026-08-03 12:38:14.971,0.58,0.7,1.21,-16.42,-138.06,-236.88
2026-08-03 12:38:15.064,0.64,0.39,1.09,-31.49,-9.4,-150.82
2026-08-03 12:38:15.070,0.64,0.39,1.09,-31.49,-9.4,-150.82
2026-08-03 12:38:15.072,0.51,0.3,0.85,16.78,65.43,-45.9
2026-08-03 12:38:15.093,0.38,0.41,0.69,73.18,73.24,36.5
2026-08-03 12:38:15.093,0.38,0.41,0.69,73.18,73.24,36.5
2026-08-03 12:38:15.157,0.31,0.49,0.59,122.01,67.26,69.03
2026-08-03 12:38:15.157,0.31,0.49,0.59,122.01,67.26,69.03
2026-08-03 12:38:15.158,0.23,0.63,0.51,212.16,95.4,23.07
2026-08-03 12:38:15.214,0.09,0.92,0.35,357.48,145.87,-52.92
2026-08-03 12:38:15.214,0.09,0.92,0.35,357.48,145.87,-52.92
2026-08-03 12:38:15.270,-0.08,1.09,0.03,441.22,163.15,-78.06
2026-08-03 12:38:15.271,-0.08,1.09,0.03,441.22,163.15,-78.06
2026-08-03 12:38:15.271,-0.24,1.11,-0.24,321.78,154.72,-48.4
2026-08-03 12:38:15.330,-0.24,1.11,-0.24,18.13,157.35,16.97
2026-08-03 12:38:15.331,-0.34,1.04,-0.29,18.13,157.35,16.97
2026-08-03 12:38:15.390,-0.33,0.92,-0.15,-280.94,167.05,93.32
2026-08-03 12:38:15.391,-0.33,0.92,-0.15,-280.94,167.05,93.32
2026-08-03 12:38:15.392,-0.24,0.8,0.04,-428.83,173.89,149.78
2026-08-03 12:38:15.450,-0.24,0.8,0.04,-428.83,173.89,149.78
2026-08-03 12:38:15.451,-0.11,0.73,0.15,-366.52,171.08,160.1
2026-08-03 12:38:15.452,-0.11,0.73,0.15,-146.42,168.95,126.04
2026-08-03 12:38:15.510,-0.01,0.73,0.1,-146.42,168.95,126.04
2026-08-03 12:38:15.511,-0.03,0.84,0.03,50.05,164.98,97.41
2026-08-03 12:38:15.570,-0.03,0.84,0.03,50.05,164.98,97.41
2026-08-03 12:38:15.571,-0.05,1.03,0.05,125.24,135.74,108.28
2026-08-03 12:38:15.571,-0.05,1.03,0.05,125.24,135.74,108.28
2026-08-03 12:38:15.630,-0.02,1.23,0.15,124.27,99.37,143.37
2026-08-03 12:38:15.631,-0.03,1.36,0.22,134.95,90.88,171.02
2026-08-03 12:38:15.691,-0.03,1.36,0.22,134.95,90.88,171.02
2026-08-03 12:38:15.691,-0.14,1.39,0.12,205.02,117.43,162.23
2026-08-03 12:38:15.692,-0.14,1.39,0.12,205.02,117.43,162.23
2026-08-03 12:38:15.751,-0.25,1.34,-0.15,300.96,153.75,103.45
2026-08-03 12:38:15.752,-0.25,1.34,-0.15,300.96,153.75,103.45
2026-08-03 12:38:15.752,-0.3,1.22,-0.46,350.34,162.23,15.99
2026-08-03 12:38:15.816,-0.32,1.07,-0.63,301.7,137.94,-49.8
2026-08-03 12:38:15.816,-0.32,1.07,-0.63,301.7,137.94,-49.8
2026-08-03 12:38:15.870,-0.32,0.93,-0.64,177.0,101.2,-57.13
2026-08-03 12:38:15.871,-0.32,0.93,-0.64,177.0,101.2,-57.13
2026-08-03 12:38:15.871,-0.28,0.84,-0.54,22.22,65.92,-14.71
2026-08-03 12:38:15.992,-0.28,0.84,-0.54,22.22,65.92,-14.71
2026-08-03 12:38:15.992,-0.24,0.88,-0.36,-133.42,35.58,42.05
2026-08-03 12:38:15.993,-0.23,1.03,-0.18,-208.31,23.8,77.7
2026-08-03 12:38:15.993,-0.23,1.03,-0.18,-208.31,23.8,77.7
2026-08-03 12:38:15.993,-0.26,1.15,-0.1,-139.34,34.24,69.76
2026-08-03 12:38:16.050,-0.26,1.15,-0.1,-139.34,34.24,69.76
2026-08-03 12:38:16.050,-0.27,1.23,-0.03,-27.22,44.19,36.5
2026-08-03 12:38:16.051,-0.27,1.23,-0.03,-27.22,44.19,36.5
2026-08-03 12:38:16.110,-0.18,1.26,0.14,-18.19,45.78,15.38
2026-08-03 12:38:16.111,-0.02,1.23,0.35,-107.36,54.5,15.32
2026-08-03 12:38:16.172,-0.02,1.23,0.35,-107.36,54.5,15.32
2026-08-03 12:38:16.172,0.16,1.17,0.5,-191.89,74.16,15.93
2026-08-03 12:38:16.173,0.16,1.17,0.5,-191.89,74.16,15.93
2026-08-03 12:38:16.230,0.28,1.12,0.56,-219.73,92.53,4.94
2026-08-03 12:38:16.231,0.28,1.12,0.56,-219.73,92.53,4.94
2026-08-03 12:38:16.290,0.33,1.02,0.55,-194.27,94.73,-15.56
2026-08-03 12:38:16.291,0.36,0.91,0.54,-152.89,74.83,-39.98
2026-08-03 12:38:16.351,0.36,0.91,0.54,-152.89,74.83,-39.98
2026-08-03 12:38:16.352,0.43,0.79,0.63,-161.44,47.36,-60.3
2026-08-03 12:38:16.352,0.43,0.79,0.63,-161.44,47.36,-60.3
2026-08-03 12:38:16.352,0.56,0.64,0.75,-217.04,22.03,-74.34
2026-08-03 12:38:16.410,0.56,0.64,0.75,-217.04,22.03,-74.34
2026-08-03 12:38:16.411,0.66,0.48,0.79,-251.16,5.25,-76.42
2026-08-03 12:38:16.470,0.64,0.38,0.73,-232.6,11.35,-55.05
2026-08-03 12:38:16.471,0.64,0.38,0.73,-232.6,11.35,-55.05
2026-08-03 12:38:16.471,0.52,0.34,0.57,-157.04,28.5,-19.1
2026-08-03 12:38:16.566,0.52,0.34,0.57,-157.04,28.5,-19.1
2026-08-03 12:38:16.566,0.42,0.36,0.4,-51.7,30.52,15.81
2026-08-03 12:38:16.567,0.42,0.36,0.4,-51.7,30.52,15.81
2026-08-03 12:38:16.590,0.34,0.36,0.36,37.84,27.22,82.21
2026-08-03 12:38:16.591,0.27,0.25,0.45,102.11,23.25,184.2
2026-08-03 12:38:16.654,0.27,0.25,0.45,102.11,23.25,184.2
2026-08-03 12:38:16.654,0.28,0.22,0.56,143.86,1.46,213.81
2026-08-03 12:38:16.655,0.28,0.22,0.56,143.86,1.46,213.81
2026-08-03 12:38:16.710,0.38,0.43,0.64,170.17,-29.48,145.69
2026-08-03 12:38:16.711,0.38,0.43,0.64,170.17,-29.48,145.69
2026-08-03 12:38:16.830,0.45,0.74,0.66,192.2,-52.61,92.47
2026-08-03 12:38:16.830,0.56,1.0,0.63,196.53,-63.42,109.31
2026-08-03 12:38:16.831,0.56,1.0,0.63,196.53,-63.42,109.31
2026-08-03 12:38:16.831,0.7,1.08,0.71,182.31,-28.14,161.13
2026-08-03 12:38:16.831,0.7,1.08,0.71,182.31,-28.14,161.13
2026-08-03 12:38:16.892,0.65,0.96,0.91,149.48,45.59,170.04
2026-08-03 12:38:16.892,0.65,0.96,0.91,149.48,45.59,170.04
2026-08-03 12:38:16.893,0.49,0.82,0.94,116.76,53.04,114.5
2026-08-03 12:38:16.951,0.4,0.75,0.77,109.68,5.92,48.83
2026-08-03 12:38:16.952,0.4,0.75,0.77,109.68,5.92,48.83
2026-08-03 12:38:16.953,0.48,0.71,0.62,88.81,-8.06,2.01
2026-08-03 12:38:17.024,0.48,0.71,0.62,88.81,-8.06,2.01
2026-08-03 12:38:17.025,0.68,0.69,0.43,64.21,-0.06,-11.29
2026-08-03 12:38:17.130,0.68,0.69,0.43,64.21,-0.06,-11.29
2026-08-03 12:38:17.131,0.82,0.71,0.15,82.95,28.32,18.43
2026-08-03 12:38:17.131,0.82,0.71,0.15,109.56,85.57,60.97
2026-08-03 12:38:17.132,0.8,0.76,-0.01,109.56,85.57,60.97
2026-08-03 12:38:17.132,0.69,0.76,-0.06,102.05,106.75,82.4
2026-08-03 12:38:17.132,0.69,0.76,-0.06,102.05,106.75,82.4
2026-08-03 12:38:17.192,0.53,0.82,-0.17,75.44,58.84,60.36
2026-08-03 12:38:17.193,0.53,0.82,-0.17,40.65,36.99,12.88
2026-08-03 12:38:17.251,0.39,0.92,-0.27,40.65,36.99,12.88
2026-08-03 12:38:17.252,0.33,0.94,-0.21,3.54,90.03,-7.08
2026-08-03 12:38:17.253,0.33,0.94,-0.21,3.54,90.03,-7.08
2026-08-03 12:38:17.310,0.33,0.9,-0.16,-13.98,144.78,5.13
2026-08-03 12:38:17.311,0.33,0.9,-0.16,-13.98,144.78,5.13
2026-08-03 12:38:17.430,0.34,0.83,-0.12,-7.32,140.62,33.81
2026-08-03 12:38:17.431,0.34,0.83,-0.12,-7.32,140.62,33.81
2026-08-03 12:38:17.431,0.4,0.82,0.06,0.92,87.1,71.35
2026-08-03 12:38:17.431,0.45,0.87,0.22,26.06,33.14,88.13
2026-08-03 12:38:17.432,0.45,0.87,0.22,26.06,33.14,88.13
2026-08-03 12:38:17.432,0.44,0.95,0.3,58.47,-0.31,74.71
2026-08-03 12:38:17.495,0.44,0.95,0.3,58.47,-0.31,74.71
2026-08-03 12:38:17.495,0.47,1.04,0.47,62.5,-7.63,74.65
2026-08-03 12:38:17.551,0.47,1.04,0.47,62.5,-7.63,74.65
2026-08-03 12:38:17.552,0.62,0.89,0.66,50.9,30.33,160.83
2026-08-03 12:38:17.553,0.62,0.89,0.66,50.9,30.33,160.83
2026-08-03 12:38:17.618,0.73,0.55,0.82,30.58,91.37,252.2
2026-08-03 12:38:17.618,0.73,0.37,0.9,3.78,112.18,190.31
2026-08-03 12:38:17.619,0.73,0.37,0.9,3.78,112.18,190.31
2026-08-03 12:38:17.670,0.69,0.32,0.9,-23.19,80.81,51.45
2026-08-03 12:38:17.671,0.69,0.32,0.9,-23.19,80.81,51.45
2026-08-03 12:38:17.730,0.63,0.23,0.89,-38.02,45.41,-17.4
2026-08-03 12:38:17.731,0.63,0.23,0.89,-26.92,35.95,-19.53
2026-08-03 12:38:17.731,0.6,0.1,0.88,-26.92,35.95,-19.53
2026-08-03 12:38:17.800,0.67,-0.01,0.89,-6.84,43.95,-11.05
2026-08-03 12:38:17.804,0.67,-0.01,0.89,-6.84,43.95,-11.05
2026-08-03 12:38:17.853,0.8,-0.05,0.95,-6.59,58.41,9.64
2026-08-03 12:38:17.853,0.8,-0.05,0.95,-6.59,58.41,9.64
2026-08-03 12:38:17.854,0.77,0.03,1.04,-29.24,62.93,56.03
2026-08-03 12:38:17.910,0.77,0.03,1.04,-29.24,62.93,56.03
2026-08-03 12:38:17.910,0.62,0.15,1.1,-56.09,51.33,97.72
2026-08-03 12:38:17.970,0.58,0.11,1.1,-57.01,49.01,108.64
2026-08-03 12:38:17.971,0.58,0.11,1.1,-57.01,49.01,108.64
2026-08-03 12:38:17.971,0.74,-0.06,1.0,-15.87,69.15,108.28
2026-08-03 12:38:18.102,0.74,-0.06,1.0,-15.87,69.15,108.28
2026-08-03 12:38:18.102,0.96,-0.18,0.79,54.2,96.5,134.09
2026-08-03 12:38:18.103,0.96,-0.18,0.79,54.2,96.5,134.09
2026-08-03 12:38:18.103,1.06,-0.23,0.51,123.72,106.08,159.0
2026-08-03 12:38:18.104,0.98,-0.21,0.27,155.4,86.43,134.52
2026-08-03 12:38:18.104,0.98,-0.21,0.27,155.4,86.43,134.52
2026-08-03 12:38:18.211,0.78,-0.11,0.15,149.9,42.66,61.04
2026-08-03 12:38:18.212,0.78,-0.11,0.15,149.9,42.66,61.04
2026-08-03 12:38:18.212,0.58,0.01,0.16,118.96,-13.0,-33.69
2026-08-03 12:38:18.213,0.58,0.01,0.16,118.96,-13.0,-33.69
2026-08-03 12:38:18.214,0.44,0.05,0.25,72.57,-66.96,-95.15
2026-08-03 12:38:18.271,0.38,0.01,0.35,28.08,-117.31,-92.47
2026-08-03 12:38:18.272,0.38,0.01,0.35,28.08,-117.31,-92.47
2026-08-03 12:38:18.330,0.44,-0.03,0.4,-11.66,-162.54,-67.63
2026-08-03 12:38:18.331,0.44,-0.03,0.4,-11.66,-162.54,-67.63
2026-08-03 12:38:18.331,0.62,-0.03,0.42,-22.28,-174.5,-55.11
2026-08-03 12:38:18.399,0.62,-0.03,0.42,-22.28,-174.5,-55.11
2026-08-03 12:38:18.417,0.87,0.02,0.45,3.72,-143.98,-37.84
2026-08-03 12:38:18.460,1.05,0.24,0.44,38.21,-147.77,-44.49
2026-08-03 12:38:18.464,1.05,0.24,0.44,38.21,-147.77,-44.49
2026-08-03 12:38:18.464,1.11,0.76,0.35,64.33,-214.6,-107.24
2026-08-03 12:38:18.510,1.11,0.76,0.35,64.33,-214.6,-107.24
2026-08-03 12:38:18.511,1.1,1.16,0.3,93.87,-229.13,-121.64
2026-08-03 12:38:18.513,1.1,1.16,0.3,93.87,-229.13,-121.64
2026-08-03 12:38:18.571,1.04,1.13,0.35,114.75,-154.72,-35.83
2026-08-03 12:38:18.571,0.89,0.96,0.49,93.93,-73.55,42.97
2026-08-03 12:38:18.631,0.89,0.96,0.49,93.93,-73.55,42.97
2026-08-03 12:38:18.632,0.74,0.87,0.59,44.37,-9.83,66.47
2026-08-03 12:38:18.632,0.74,0.87,0.59,44.37,-9.83,66.47
2026-08-03 12:38:18.695,0.75,0.92,0.52,1.53,42.85,64.64
2026-08-03 12:38:18.696,0.75,0.92,0.52,1.53,42.85,64.64
2026-08-03 12:38:18.696,0.9,1.03,0.37,-30.46,76.35,43.88
2026-08-03 12:38:18.756,0.9,1.03,0.37,-62.87,91.0,-10.62
2026-08-03 12:38:18.757,0.99,1.04,0.26,-62.87,91.0,-10.62
2026-08-03 12:38:18.870,0.96,0.95,0.24,-77.21,89.42,-86.73
2026-08-03 12:38:18.871,0.96,0.95,0.24,-77.21,89.42,-86.73
2026-08-03 12:38:18.871,0.96,0.88,0.18,-23.93,68.3,-139.77
2026-08-03 12:38:18.872,0.96,0.88,0.18,-23.93,68.3,-139.77
2026-08-03 12:38:18.872,1.01,0.86,-0.05,81.05,32.47,-152.95
2026-08-03 12:38:18.872,1.01,0.86,-0.05,81.05,32.47,-152.95
2026-08-03 12:38:18.930,1.01,0.72,-0.3,153.32,-8.0,-134.03
2026-08-03 12:38:18.931,0.95,0.4,-0.44,120.06,-51.7,-85.45
2026-08-03 12:38:18.996,0.95,0.4,-0.44,120.06,-51.7,-85.45
2026-08-03 12:38:18.997,0.81,0.19,-0.51,33.75,-56.4,-57.01
2026-08-03 12:38:18.997,0.81,0.19,-0.51,33.75,-56.4,-57.01
2026-08-03 12:38:19.051,0.61,0.21,-0.59,18.55,12.51,-65.67
2026-08-03 12:38:19.051,0.61,0.21,-0.59,18.55,12.51,-65.67
2026-08-03 12:38:19.111,0.46,0.21,-0.63,45.78,84.72,-62.07
2026-08-03 12:38:19.112,0.42,0.12,-0.56,47.79,84.11,-32.78
2026-08-03 12:38:19.112,0.42,0.12,-0.56,47.79,84.11,-32.78
2026-08-03 12:38:19.170,0.52,0.06,-0.38,46.94,25.57,6.1
2026-08-03 12:38:19.171,0.52,0.06,-0.38,46.94,25.57,6.1
2026-08-03 12:38:19.254,0.72,0.09,-0.21,64.27,-22.34,44.86
2026-08-03 12:38:19.260,0.92,0.18,-0.24,103.09,-12.21,77.21
2026-08-03 12:38:19.260,0.92,0.18,-0.24,103.09,-12.21,77.21
2026-08-03 12:38:19.302,1.09,0.26,-0.51,173.16,42.72,97.23
2026-08-03 12:38:19.303,1.09,0.26,-0.51,173.16,42.72,97.23
2026-08-03 12:38:19.303,1.26,0.44,-0.88,254.39,107.67,120.42
2026-08-03 12:38:19.352,1.26,0.44,-0.88,254.39,107.67,120.42
2026-08-03 12:38:19.352,1.33,0.76,-1.14,297.73,147.28,163.51
2026-08-03 12:38:19.410,1.24,1.1,-1.12,274.66,126.59,202.45
2026-08-03 12:38:19.411,1.24,1.1,-1.12,274.66,126.59,202.45
2026-08-03 12:38:19.412,1.08,1.27,-0.81,189.21,53.1,196.04
2026-08-03 12:38:19.471,1.08,1.27,-0.81,189.21,53.1,196.04
2026-08-03 12:38:19.472,0.96,1.2,-0.45,84.78,-14.59,127.01
2026-08-03 12:38:19.472,0.96,1.2,-0.45,84.78,-14.59,127.01
2026-08-03 12:38:19.549,0.89,0.94,-0.29,30.09,-28.75,19.1
2026-08-03 12:38:19.550,0.84,0.67,-0.37,34.18,2.56,-64.21
2026-08-03 12:38:19.598,0.84,0.67,-0.37,34.18,2.56,-64.21
2026-08-03 12:38:19.599,0.8,0.55,-0.5,40.89,33.57,-78.49
2026-08-03 12:38:19.600,0.8,0.55,-0.5,40.89,33.57,-78.49
2026-08-03 12:38:19.651,0.81,0.61,-0.47,11.23,30.88,-44.43
2026-08-03 12:38:19.652,0.81,0.61,-0.47,11.23,30.88,-44.43
2026-08-03 12:38:19.711,0.84,0.69,-0.27,-67.08,10.13,-8.42
2026-08-03 12:38:19.711,0.84,0.69,-0.27,-183.41,10.8,11.41
2026-08-03 12:38:19.712,0.94,0.68,-0.02,-183.41,10.8,11.41
2026-08-03 12:38:19.770,1.1,0.6,0.14,-276.73,44.19,11.35
2026-08-03 12:38:19.771,1.1,0.6,0.14,-276.73,44.19,11.35
2026-08-03 12:38:19.772,1.29,0.49,0.11,-274.6,82.09,-17.21
2026-08-03 12:38:19.836,1.29,0.49,0.11,-274.6,82.09,-17.21
2026-08-03 12:38:19.837,1.25,0.4,-0.17,-164.31,70.62,-72.2
2026-08-03 12:38:19.897,1.25,0.4,-0.17,-164.31,70.62,-72.2
2026-08-03 12:38:19.897,0.99,0.34,-0.5,-44.31,11.96,-118.71
2026-08-03 12:38:19.900,0.8,0.29,-0.66,-16.42,-33.08,-123.47
2026-08-03 12:38:19.951,0.8,0.29,-0.66,-16.42,-33.08,-123.47
2026-08-03 12:38:19.951,0.69,0.29,-0.61,-72.08,-38.39,-100.16
2026-08-03 12:38:19.968,0.69,0.29,-0.61,-72.08,-38.39,-100.16
2026-08-03 12:38:20.010,0.61,0.31,-0.44,-119.93,-15.38,-73.67
2026-08-03 12:38:20.011,0.61,0.31,-0.44,-119.93,-15.38,-73.67
2026-08-03 12:38:20.070,0.62,0.38,-0.35,-94.06,22.16,-39.12
2026-08-03 12:38:20.071,0.72,0.43,-0.34,-48.46,49.32,3.85
2026-08-03 12:38:20.071,0.72,0.43,-0.34,-48.46,49.32,3.85
2026-08-03 12:38:20.131,0.82,0.42,-0.3,-41.44,34.3,26.18
2026-08-03 12:38:20.191,0.82,0.42,-0.3,-41.44,34.3,26.18
2026-08-03 12:38:20.191,0.83,0.4,-0.19,-46.87,-10.19,14.28
2026-08-03 12:38:20.192,0.83,0.4,-0.19,-46.87,-10.19,14.28
2026-08-03 12:38:20.192,0.78,0.45,-0.14,-16.78,-42.85,-14.89
2026-08-03 12:38:20.251,0.78,0.45,-0.14,55.66,-68.97,-28.5
2026-08-03 12:38:20.251,0.79,0.58,-0.19,55.66,-68.97,-28.5
2026-08-03 12:38:20.252,0.86,0.65,-0.27,152.34,-106.38,-5.86
2026-08-03 12:38:20.311,0.86,0.65,-0.27,152.34,-106.38,-5.86
2026-08-03 12:38:20.312,0.92,0.64,-0.37,245.48,-136.66,36.44
2026-08-03 12:38:20.397,0.92,0.64,-0.37,245.48,-136.66,36.44
2026-08-03 12:38:20.398,0.96,0.62,-0.46,264.34,-136.54,66.71
2026-08-03 12:38:20.398,0.96,0.61,-0.52,162.48,-104.74,72.75
2026-08-03 12:38:20.443,0.96,0.61,-0.52,162.48,-104.74,72.75
2026-08-03 12:38:20.491,0.96,0.59,-0.51,8.0,-68.42,58.41
2026-08-03 12:38:20.497,0.96,0.59,-0.51,8.0,-68.42,58.41
2026-08-03 12:38:20.497,0.97,0.54,-0.45,-114.99,-42.11,33.81
2026-08-03 12:38:20.498,0.97,0.54,-0.45,-114.99,-42.11,33.81
2026-08-03 12:38:20.610,1.01,0.52,-0.34,-213.62,-17.64,14.4
2026-08-03 12:38:20.689,1.03,0.54,-0.06,-334.66,15.75,6.71
2026-08-03 12:38:20.690,1.03,0.54,-0.06,-334.66,15.75,6.71
2026-08-03 12:38:20.691,0.97,0.56,0.29,-433.65,62.5,-9.58
2026-08-03 12:38:20.691,0.97,0.56,0.29,-433.65,62.5,-9.58
2026-08-03 12:38:20.692,0.82,0.57,0.37,-400.94,107.67,-31.01
2026-08-03 12:38:20.692,0.82,0.57,0.37,-400.94,107.67,-31.01
2026-08-03 12:38:20.693,0.68,0.64,0.23,-291.44,132.57,-17.15
2026-08-03 12:38:20.739,0.57,0.72,0.15,-244.14,130.86,-4.7
2026-08-03 12:38:20.740,0.57,0.72,0.15,-244.14,130.86,-4.7
2026-08-03 12:38:20.791,0.43,0.8,0.27,-255.25,105.1,-74.28
2026-08-03 12:38:20.792,0.43,0.8,0.27,-255.25,105.1,-74.28
2026-08-03 12:38:20.793,0.3,0.79,0.5,-258.91,59.88,-144.96
2026-08-03 12:38:20.850,0.3,0.79,0.5,-258.91,59.88,-144.96
2026-08-03 12:38:20.852,0.27,0.6,0.61,-224.85,13.49,-116.33
2026-08-03 12:38:20.853,0.18,0.54,0.67,-159.48,5.13,-54.57
2026-08-03 12:38:20.910,0.18,0.54,0.67,-159.48,5.13,-54.57
2026-08-03 12:38:20.910,0.11,0.49,0.87,-99.37,22.89,-33.2
2026-08-03 12:38:20.978,0.11,0.49,0.87,-99.37,22.89,-33.2
2026-08-03 12:38:20.978,0.29,0.15,1.09,-100.77,10.56,-51.76
2026-08-03 12:38:20.979,0.29,0.15,1.09,-100.77,10.56,-51.76
2026-08-03 12:38:21.039,0.46,-0.07,1.09,-100.1,-13.92,-44.19
2026-08-03 12:38:21.040,0.44,-0.01,0.97,-46.63,0.61,14.4
2026-08-03 12:38:21.041,0.44,-0.01,0.97,-46.63,0.61,14.4
2026-08-03 12:38:21.092,0.4,0.1,0.87,-7.2,36.5,61.71
2026-08-03 12:38:21.092,0.4,0.1,0.87,-7.2,36.5,61.71
2026-08-03 12:38:21.150,0.37,0.19,0.87,-1.53,54.38,64.82
2026-08-03 12:38:21.150,0.37,0.19,0.87,-1.53,54.38,64.82
2026-08-03 12:38:21.151,0.35,0.16,0.89,-32.84,35.16,40.53
2026-08-03 12:38:21.210,0.35,0.07,0.91,-77.21,-10.44,2.81
2026-08-03 12:38:21.211,0.35,0.07,0.91,-77.21,-10.44,2.81
2026-08-03 12:38:21.271,0.36,0.02,0.9,-99.18,-43.46,-39.18
2026-08-03 12:38:21.271,0.36,0.02,0.9,-99.18,-43.46,-39.18
2026-08-03 12:38:21.330,0.38,-0.06,0.86,-89.48,-44.98,-61.34
2026-08-03 12:38:21.331,0.38,-0.06,0.86,-89.48,-44.98,-61.34
2026-08-03 12:38:21.333,0.44,-0.15,0.83,-59.57,-33.08,-57.86
2026-08-03 12:38:21.390,0.5,-0.16,0.81,-18.55,-42.42,-38.76
2026-08-03 12:38:21.390,0.5,-0.16,0.81,-18.55,-42.42,-38.76
2026-08-03 12:38:21.391,0.58,-0.01,0.76,25.15,-67.69,-9.58
2026-08-03 12:38:21.524,0.58,-0.01,0.76,25.15,-67.69,-9.58
2026-08-03 12:38:21.537,0.62,-0.0,0.8,20.94,-33.69,13.24
2026-08-03 12:38:21.539,0.62,-0.0,0.8,20.94,-33.69,13.24
2026-08-03 12:38:21.541,0.56,-0.17,0.93,-18.43,39.55,17.15
2026-08-03 12:38:21.541,0.56,-0.17,0.93,-34.48,55.05,6.35
2026-08-03 12:38:21.541,0.47,-0.2,0.9,-34.48,55.05,6.35
2026-08-03 12:38:21.630,0.43,-0.16,0.83,-26.31,19.84,-7.75
2026-08-03 12:38:21.631,0.43,-0.16,0.83,-26.31,19.84,-7.75
2026-08-03 12:38:21.631,0.46,-0.12,0.83,-8.42,-14.83,-19.59
2026-08-03 12:38:21.632,0.46,-0.12,0.83,-8.42,-14.83,-19.59
2026-08-03 12:38:21.632,0.5,-0.05,0.87,-3.85,-27.77,-28.63
2026-08-03 12:38:21.690,0.5,-0.05,0.87,-3.85,-27.77,-28.63
2026-08-03 12:38:21.750,0.51,-0.03,0.87,-24.17,-24.66,-31.92
2026-08-03 12:38:21.751,0.54,-0.12,0.82,-44.19,-18.92,-33.33
2026-08-03 12:38:21.753,0.54,-0.12,0.82,-44.19,-18.92,-33.33
2026-08-03 12:38:21.754,0.58,-0.21,0.76,-41.69,-14.4,-35.22
2026-08-03 12:38:21.811,0.58,-0.21,0.76,-41.69,-14.4,-35.22
2026-08-03 12:38:21.811,0.58,-0.21,0.76,-22.28,-10.86,-31.56
2026-08-03 12:38:21.812,0.58,-0.21,0.76,-22.28,-10.86,-31.56
2026-08-03 12:38:21.871,0.57,-0.12,0.78,-3.48,-8.18,-21.79
2026-08-03 12:38:21.872,0.57,-0.12,0.78,-3.48,-8.18,-21.79
2026-08-03 12:38:21.933,0.55,-0.07,0.8,-10.38,-1.22,-12.27
2026-08-03 12:38:21.934,0.56,-0.16,0.82,-24.66,5.0,-11.11
2026-08-03 12:38:21.934,0.56,-0.16,0.82,-24.66,5.0,-11.11
2026-08-03 12:38:21.991,0.6,-0.19,0.83,-8.91,-8.73,-14.71
2026-08-03 12:38:21.992,0.6,-0.19,0.83,-8.91,-8.73,-14.71
2026-08-03 12:38:21.992,0.64,-0.14,0.81,-0.67,-33.87,-11.96
2026-08-03 12:38:22.069,0.64,-0.14,0.81,-0.67,-33.87,-11.96
2026-08-03 12:38:22.072,0.65,-0.14,0.77,-39.37,-41.56,6.77
2026-08-03 12:38:22.072,0.65,-0.14,0.77,-39.37,-41.56,6.77
2026-08-03 12:38:22.111,0.58,-0.15,0.74,-89.6,-26.25,27.28
2026-08-03 12:38:22.112,0.55,-0.22,0.74,-104.55,1.83,12.39
2026-08-03 12:38:22.172,0.55,-0.22,0.74,-104.55,1.83,12.39
2026-08-03 12:38:22.173,0.59,-0.35,0.73,-77.27,26.43,-24.84
2026-08-03 12:38:22.173,0.59,-0.35,0.73,-77.27,26.43,-24.84
2026-08-03 12:38:22.230,0.61,-0.37,0.72,-19.78,28.87,-36.25
2026-08-03 12:38:22.231,0.61,-0.37,0.72,-19.78,28.87,-36.25
2026-08-03 12:38:22.290,0.6,-0.3,0.71,44.01,14.04,-13.06
2026-08-03 12:38:22.290,0.6,-0.23,0.71,85.63,6.59,22.52
2026-08-03 12:38:22.291,0.6,-0.23,0.71,85.63,6.59,22.52
2026-08-03 12:38:22.364,0.59,-0.18,0.73,87.04,4.09,41.81
2026-08-03 12:38:22.387,0.59,-0.18,0.73,87.04,4.09,41.81
2026-08-03 12:38:22.388,0.59,-0.16,0.76,38.21,-4.82,8.85
2026-08-03 12:38:22.472,0.59,-0.16,0.76,38.21,-4.82,8.85
2026-08-03 12:38:22.473,0.62,-0.18,0.77,-29.72,-6.04,-71.04
2026-08-03 12:38:22.478,0.62,-0.18,0.77,-29.72,-6.04,-71.04
2026-08-03 12:38:22.478,0.66,-0.22,0.76,-66.28,-5.49,-115.72
2026-08-03 12:38:22.479,0.68,-0.23,0.73,-62.87,-20.63,-87.71
2026-08-03 12:38:22.530,0.68,-0.23,0.73,-62.87,-20.63,-87.71
2026-08-03 12:38:22.530,0.69,-0.2,0.71,-49.93,-39.55,-43.82
2026-08-03 12:38:22.531,0.69,-0.2,0.71,-49.93,-39.55,-43.82
2026-08-03 12:38:22.590,0.7,-0.2,0.71,-41.99,-39.73,-21.42
2026-08-03 12:38:22.591,0.7,-0.2,0.71,-41.99,-39.73,-21.42
2026-08-03 12:38:22.659,0.7,-0.19,0.7,-23.62,-21.42,-10.19
2026-08-03 12:38:22.688,0.7,-0.19,0.68,-2.69,-4.7,-2.08
2026-08-03 12:38:22.689,0.7,-0.19,0.68,-2.69,-4.7,-2.08
2026-08-03 12:38:22.771,0.71,-0.2,0.68,3.36,1.46,1.28
2026-08-03 12:38:22.771,0.71,-0.2,0.68,3.36,1.46,1.28
2026-08-03 12:38:22.772,0.71,-0.2,0.69,6.77,2.2,3.42
2026-08-03 12:38:22.772,0.71,-0.2,0.69,6.77,2.2,3.42
2026-08-03 12:38:22.785,0.7,-0.18,0.68,13.67,3.17,5.49
2026-08-03 12:38:22.786,0.7,-0.18,0.68,13.67,3.17,5.49
2026-08-03 12:38:22.840,0.69,-0.17,0.68,12.08,3.85,5.07
2026-08-03 12:38:22.841,0.69,-0.17,0.68,4.33,2.75,3.42
2026-08-03 12:38:22.955,0.68,-0.16,0.69,4.33,2.75,3.42
2026-08-03 12:38:22.973,0.69,-0.17,0.69,3.17,1.59,3.17
2026-08-03 12:38:22.974,0.69,-0.17,0.69,3.17,1.59,3.17
2026-08-03 12:38:22.995,0.69,-0.16,0.69,5.92,-0.06,2.5
2026-08-03 12:38:22.996,0.69,-0.16,0.69,5.92,-0.06,2.5
2026-08-03 12:38:23.011,0.69,-0.14,0.7,8.42,-2.14,-0.18
2026-08-03 12:38:23.012,0.69,-0.14,0.7,8.42,-2.14,-0.18
2026-08-03 12:38:23.012,0.69,-0.14,0.71,23.5,0.06,-0.43
2026-08-03 12:38:23.071,0.69,-0.14,0.71,23.5,0.06,-0.43
2026-08-03 12:38:23.072,0.7,-0.16,0.71,48.83,7.57,2.08
2026-08-03 12:38:23.072,0.7,-0.16,0.71,55.42,13.06,2.14
2026-08-03 12:38:23.190,0.69,-0.14,0.71,55.42,13.06,2.14
2026-08-03 12:38:23.190,0.68,-0.1,0.71,38.02,12.15,0.49
2026-08-03 12:38:23.191,0.68,-0.1,0.71,38.02,12.15,0.49
2026-08-03 12:38:23.191,0.67,-0.09,0.72,18.8,6.53,1.04
2026-08-03 12:38:23.191,0.67,-0.09,0.72,18.8,6.53,1.04
2026-08-03 12:38:23.281,0.68,-0.09,0.72,8.36,0.73,1.53
2026-08-03 12:38:23.285,0.68,-0.09,0.72,4.76,-1.83,-0.12
2026-08-03 12:38:23.285,0.68,-0.08,0.72,4.76,-1.83,-0.12
2026-08-03 12:38:23.310,0.68,-0.08,0.72,1.71,-2.5,-2.99
2026-08-03 12:38:23.311,0.68,-0.08,0.72,1.71,-2.5,-2.99
2026-08-03 12:38:23.447,0.68,-0.07,0.72,-5.19,-2.32,-6.47
2026-08-03 12:38:23.448,0.68,-0.07,0.72,-5.19,-2.32,-6.47
2026-08-03 12:38:23.448,0.68,-0.07,0.72,-12.27,-1.95,-9.89
2026-08-03 12:38:23.449,0.68,-0.07,0.72,-12.27,-1.95,-9.89
2026-08-03 12:38:23.449,0.69,-0.07,0.71,-19.23,-4.09,-13.67
2026-08-03 12:38:23.449,0.69,-0.07,0.71,-19.23,-4.09,-13.67
2026-08-03 12:38:23.490,0.68,-0.09,0.72,-29.72,-6.16,-18.01
2026-08-03 12:38:23.491,0.68,-0.1,0.72,-36.25,-3.36,-17.94
2026-08-03 12:38:23.491,0.68,-0.1,0.72,-36.25,-3.36,-17.94
2026-08-03 12:38:23.611,0.68,-0.12,0.71,-28.44,1.04,-10.68
2026-08-03 12:38:23.611,0.68,-0.12,0.71,-28.44,1.04,-10.68
2026-08-03 12:38:23.671,0.69,-0.11,0.71,-11.78,1.83,-2.44
2026-08-03 12:38:23.672,0.69,-0.11,0.71,-11.78,1.83,-2.44
2026-08-03 12:38:23.673,0.69,-0.11,0.71,-1.1,0.73,0.61
2026-08-03 12:38:23.675,0.69,-0.11,0.71,-1.1,0.73,0.61
2026-08-03 12:38:23.675,0.69,-0.11,0.71,-2.14,0.49,-1.04
2026-08-03 12:38:23.675,0.69,-0.11,0.71,-2.14,0.49,-1.04
2026-08-03 12:38:23.791,0.69,-0.11,0.71,-2.14,0.49,-1.04
2026-08-03 12:38:23.791,0.69,-0.11,0.71,-2.14,0.49,-1.04
2026-08-03 12:38:23.792,0.69,-0.13,0.71,-13.73,4.09,-4.64
2026-08-03 12:38:23.792,0.69,-0.13,0.71,-13.73,4.09,-4.64
2026-08-03 12:38:23.792,0.68,-0.13,0.71,-11.54,4.82,-3.3
2026-08-03 12:38:23.793,0.68,-0.13,0.71,-5.62,2.75,-1.1
2026-08-03 12:38:23.910,0.68,-0.13,0.7,-5.62,2.75,-1.1
2026-08-03 12:38:23.910,0.69,-0.13,0.7,-4.33,-0.06,-0.31
2026-08-03 12:38:23.911,0.69,-0.13,0.7,-4.33,-0.06,-0.31
2026-08-03 12:38:23.912,0.69,-0.14,0.7,-10.68,-1.89,-1.46
2026-08-03 12:38:23.912,0.69,-0.14,0.7,-10.68,-1.89,-1.46
2026-08-03 12:38:23.971,0.68,-0.15,0.7,-16.78,-2.75,-2.2
2026-08-03 12:38:23.972,0.68,-0.15,0.7,-16.78,-2.75,-2.2
2026-08-03 12:38:23.972,0.69,-0.16,0.68,-17.09,-4.46,-1.46
2026-08-03 12:38:24.031,0.69,-0.16,0.68,-17.09,-4.46,-1.46
2026-08-03 12:38:24.031,0.71,-0.17,0.66,-17.21,-11.6,-1.46
2026-08-03 12:38:24.090,0.72,-0.17,0.67,-28.56,-23.62,-4.03
2026-08-03 12:38:24.155,0.72,-0.17,0.67,-28.56,-23.62,-4.03
2026-08-03 12:38:24.160,0.72,-0.18,0.69,-42.91,-27.22,-6.16
2026-08-03 12:38:24.163,0.72,-0.18,0.69,-42.91,-27.22,-6.16
2026-08-03 12:38:24.163,0.73,-0.2,0.67,-38.21,-16.24,-5.07
2026-08-03 12:38:24.165,0.73,-0.2,0.67,-38.21,-16.24,-5.07
2026-08-03 12:38:24.210,0.73,-0.21,0.64,-22.58,-4.27,-3.17
2026-08-03 12:38:24.213,0.73,-0.21,0.64,-22.58,-4.27,-3.17
2026-08-03 12:38:24.214,0.74,-0.22,0.63,-15.93,-1.4,-2.93
2026-08-03 12:38:24.330,0.73,-0.22,0.63,-15.69,-3.36,-2.75
2026-08-03 12:38:24.330,0.73,-0.22,0.63,-15.69,-3.36,-2.75
2026-08-03 12:38:24.331,0.73,-0.22,0.63,-16.78,-4.21,-2.01
2026-08-03 12:38:24.331,0.73,-0.22,0.63,-16.78,-4.21,-2.01
2026-08-03 12:38:24.332,0.73,-0.23,0.63,-19.17,-2.01,-2.44
2026-08-03 12:38:24.390,0.73,-0.23,0.63,-19.17,-2.01,-2.44
2026-08-03 12:38:24.391,0.73,-0.24,0.62,-21.73,1.89,-4.09
2026-08-03 12:38:24.391,0.73,-0.24,0.62,-21.73,1.89,-4.09
2026-08-03 12:38:24.451,0.73,-0.25,0.62,-21.36,5.0,-4.76
2026-08-03 12:38:24.451,0.73,-0.25,0.62,-21.61,7.87,-4.39
2026-08-03 12:38:24.510,0.73,-0.25,0.62,-21.61,7.87,-4.39
2026-08-03 12:38:24.510,0.72,-0.26,0.62,-28.75,12.94,-5.74
2026-08-03 12:38:24.511,0.72,-0.26,0.62,-28.75,12.94,-5.74
2026-08-03 12:38:24.572,0.71,-0.28,0.63,-39.43,22.71,-8.79
2026-08-03 12:38:24.573,0.71,-0.28,0.63,-39.43,22.71,-8.79
2026-08-03 12:38:24.573,0.7,-0.31,0.63,-44.68,36.13,-9.89
2026-08-03 12:38:24.631,0.7,-0.31,0.63,-44.68,36.13,-9.89
2026-08-03 12:38:24.632,0.7,-0.33,0.63,-38.45,42.66,-6.41
2026-08-03 12:38:24.706,0.69,-0.35,0.64,-17.21,30.82,0.61
2026-08-03 12:38:24.724,0.69,-0.35,0.64,-17.21,30.82,0.61
2026-08-03 12:38:24.728,0.68,-0.36,0.65,24.17,7.2,11.6
2026-08-03 12:38:24.754,0.68,-0.36,0.65,24.17,7.2,11.6
2026-08-03 12:38:24.754,0.67,-0.3,0.68,80.57,-8.79,27.59
2026-08-03 12:38:24.755,0.67,-0.3,0.68,80.57,-8.79,27.59
2026-08-03 12:38:24.811,0.66,-0.22,0.7,112.37,-8.67,38.15
2026-08-03 12:38:24.812,0.66,-0.18,0.71,93.44,-1.71,34.67
2026-08-03 12:38:24.871,0.66,-0.18,0.71,93.44,-1.71,34.67
2026-08-03 12:38:24.872,0.66,-0.18,0.71,51.57,1.46,23.8
2026-08-03 12:38:24.872,0.66,-0.18,0.71,51.57,1.46,23.8
2026-08-03 12:38:24.930,0.66,-0.19,0.71,15.69,-0.61,12.27
2026-08-03 12:38:24.931,0.66,-0.19,0.71,15.69,-0.61,12.27
2026-08-03 12:38:24.931,0.66,-0.2,0.71,-8.36,-4.76,1.71
2026-08-03 12:38:25.000,0.66,-0.2,0.71,-8.36,-4.76,1.71
2026-08-03 12:38:25.000,0.66,-0.22,0.71,-20.02,-7.39,-5.19
2026-08-03 12:38:25.050,0.66,-0.22,0.71,-18.37,-7.45,-5.68
2026-08-03 12:38:25.050,0.66,-0.22,0.71,-18.37,-7.45,-5.68
2026-08-03 12:38:25.052,0.66,-0.22,0.7,-10.01,-5.98,-2.32
2026-08-03 12:38:25.170,0.66,-0.22,0.7,-10.01,-5.98,-2.32
2026-08-03 12:38:25.171,0.67,-0.22,0.7,-4.09,-4.58,0.18
2026-08-03 12:38:25.173,0.67,-0.22,0.7,-4.09,-4.58,0.18
2026-08-03 12:38:25.173,0.68,-0.22,0.69,-3.72,-4.15,0.0
2026-08-03 12:38:25.173,0.68,-0.22,0.69,-3.72,-4.15,0.0
2026-08-03 12:38:25.174,0.68,-0.23,0.68,-8.42,-4.58,-2.38
2026-08-03 12:38:25.230,0.68,-0.23,0.67,-16.3,-5.8,-5.92
2026-08-03 12:38:25.231,0.68,-0.23,0.67,-16.3,-5.8,-5.92
2026-08-03 12:38:25.294,0.69,-0.25,0.66,-29.42,-7.57,-10.56
2026-08-03 12:38:25.295,0.69,-0.25,0.66,-29.42,-7.57,-10.56
2026-08-03 12:38:25.350,0.7,-0.28,0.65,-50.96,-8.73,-13.73
2026-08-03 12:38:25.351,0.7,-0.28,0.65,-50.96,-8.73,-13.73
2026-08-03 12:38:25.351,0.7,-0.3,0.66,-57.68,-7.57,-11.41
2026-08-03 12:38:25.410,0.7,-0.31,0.65,-33.51,-2.26,-4.03
2026-08-03 12:38:25.411,0.7,-0.31,0.65,-33.51,-2.26,-4.03
2026-08-03 12:38:25.412,0.7,-0.3,0.64,-4.46,2.81,2.62
2026-08-03 12:38:25.471,0.7,-0.3,0.64,-4.46,2.81,2.62
2026-08-03 12:38:25.472,0.7,-0.29,0.63,7.51,2.26,3.97
2026-08-03 12:38:25.472,0.7,-0.29,0.63,7.51,2.26,3.97
2026-08-03 12:38:25.555,0.7,-0.29,0.64,5.55,-1.22,1.95
2026-08-03 12:38:25.559,0.7,-0.29,0.64,5.55,-1.22,1.95
2026-08-03 12:38:25.605,0.7,-0.3,0.64,0.43,-3.48,0.12
2026-08-03 12:38:25.605,0.7,-0.3,0.64,-3.05,-3.6,-0.92
2026-08-03 12:38:25.606,0.7,-0.3,0.64,-3.05,-3.6,-0.92
2026-08-03 12:38:25.650,0.7,-0.3,0.63,-4.7,-2.69,-1.71
2026-08-03 12:38:25.651,0.7,-0.3,0.63,-4.7,-2.69,-1.71
2026-08-03 12:38:25.651,0.71,-0.3,0.63,-6.59,-2.26,-2.69
2026-08-03 12:38:25.710,0.71,-0.3,0.63,-6.59,-2.26,-2.69
2026-08-03 12:38:25.711,0.71,-0.3,0.62,-11.35,-3.17,-4.39
2026-08-03 12:38:25.711,0.71,-0.3,0.62,-11.35,-3.17,-4.39
2026-08-03 12:38:25.770,0.71,-0.31,0.62,-23.38,-4.27,-8.06
2026-08-03 12:38:25.771,0.71,-0.31,0.62,-36.56,-3.3,-11.29
2026-08-03 12:38:25.838,0.71,-0.33,0.61,-36.56,-3.3,-11.29
2026-08-03 12:38:25.853,0.72,-0.34,0.61,-34.73,0.24,-8.91
2026-08-03 12:38:25.896,0.72,-0.34,0.61,-34.73,0.24,-8.91
2026-08-03 12:38:25.897,0.71,-0.35,0.6,-18.37,3.6,-2.56
2026-08-03 12:38:25.897,0.71,-0.35,0.6,-18.37,3.6,-2.56
2026-08-03 12:38:25.950,0.71,-0.34,0.6,-3.48,4.76,2.32
2026-08-03 12:38:25.952,0.71,-0.34,0.6,-3.48,4.76,2.32
2026-08-03 12:38:25.952,0.71,-0.34,0.6,1.71,3.78,3.42
2026-08-03 12:38:26.010,0.71,-0.34,0.6,1.71,3.78,3.42
2026-08-03 12:38:26.011,0.71,-0.35,0.6,2.81,2.38,2.99
2026-08-03 12:38:26.011,0.71,-0.35,0.6,5.25,1.22,2.99
2026-08-03 12:38:26.073,0.71,-0.35,0.6,5.25,1.22,2.99
2026-08-03 12:38:26.073,0.71,-0.34,0.61,7.2,-0.12,2.93
2026-08-03 12:38:26.074,0.71,-0.34,0.61,7.2,-0.12,2.93
2026-08-03 12:38:26.191,0.71,-0.33,0.61,8.36,-1.59,2.87
2026-08-03 12:38:26.192,0.71,-0.33,0.61,8.36,-1.59,2.87
2026-08-03 12:38:26.194,0.71,-0.33,0.61,8.18,-2.81,2.81
2026-08-03 12:38:26.194,0.71,-0.33,0.61,8.18,-2.81,2.81
2026-08-03 12:38:26.195,0.71,-0.33,0.61,6.59,-2.2,2.44
2026-08-03 12:38:26.250,0.71,-0.33,0.61,4.88,0.43,2.14
2026-08-03 12:38:26.252,0.71,-0.33,0.61,4.88,0.43,2.14
2026-08-03 12:38:26.252,0.71,-0.33,0.61,2.93,2.38,1.65
2026-08-03 12:38:26.310,0.71,-0.33,0.61,2.93,2.38,1.65
2026-08-03 12:38:26.311,0.71,-0.34,0.61,1.65,2.08,0.98
2026-08-03 12:38:26.311,0.71,-0.34,0.61,1.65,2.08,0.98
2026-08-03 12:38:26.432,0.71,-0.35,0.61,2.44,0.73,1.04
2026-08-03 12:38:26.433,0.71,-0.35,0.61,2.44,0.73,1.04
2026-08-03 12:38:26.434,0.71,-0.33,0.61,4.15,-0.12,1.53
2026-08-03 12:38:26.435,0.71,-0.33,0.61,4.15,-0.12,1.53
2026-08-03 12:38:26.436,0.71,-0.31,0.61,3.66,-0.73,1.16
2026-08-03 12:38:26.550,0.71,-0.31,0.61,3.66,-0.73,1.16
2026-08-03 12:38:26.551,0.71,-0.31,0.62,0.85,-1.34,-0.12
2026-08-03 12:38:26.552,0.71,-0.32,0.62,-1.04,-0.92,-0.55
2026-08-03 12:38:26.553,0.71,-0.32,0.62,-1.04,-0.92,-0.55
2026-08-03 12:38:26.553,0.71,-0.33,0.62,-0.06,0.0,0.55
2026-08-03 12:38:26.554,0.71,-0.33,0.62,-0.06,0.0,0.55
2026-08-03 12:38:26.684,0.7,-0.34,0.62,2.2,0.67,1.95
2026-08-03 12:38:26.685,0.7,-0.34,0.62,2.2,0.67,1.95
2026-08-03 12:38:26.686,0.7,-0.34,0.62,3.6,0.67,2.56
2026-08-03 12:38:26.686,0.7,-0.34,0.62,3.6,0.67,2.56
2026-08-03 12:38:26.686,0.69,-0.33,0.62,4.21,0.06,2.5
2026-08-03 12:38:26.730,0.69,-0.33,0.62,4.21,0.06,2.5
2026-08-03 12:38:26.731,0.69,-0.33,0.63,4.64,0.18,2.5
2026-08-03 12:38:26.791,0.71,-0.33,0.62,6.71,1.59,3.36
2026-08-03 12:38:26.792,0.71,-0.33,0.62,6.71,1.59,3.36
2026-08-03 12:38:26.792,0.72,-0.33,0.62,10.68,3.54,5.13
2026-08-03 12:38:26.910,0.72,-0.33,0.62,10.68,3.54,5.13
2026-08-03 12:38:26.911,0.71,-0.32,0.62,13.24,3.36,7.14
2026-08-03 12:38:26.911,0.71,-0.32,0.62,13.24,3.36,7.14
2026-08-03 12:38:26.911,0.7,-0.32,0.63,11.78,0.24,8.12
2026-08-03 12:38:26.912,0.7,-0.32,0.63,11.78,0.24,8.12
2026-08-03 12:38:26.912,0.69,-0.32,0.64,9.77,-1.95,8.12
2026-08-03 12:38:26.970,0.68,-0.32,0.64,8.61,-1.1,7.32
2026-08-03 12:38:26.971,0.68,-0.32,0.64,8.61,-1.1,7.32
2026-08-03 12:38:27.150,0.68,-0.33,0.64,6.53,0.12,5.68
2026-08-03 12:38:27.150,0.68,-0.33,0.64,6.53,0.12,5.68
2026-08-03 12:38:27.151,0.68,-0.32,0.64,4.33,-0.43,3.91
2026-08-03 12:38:27.151,0.68,-0.32,0.64,4.33,-0.43,3.91
2026-08-03 12:38:27.152,0.68,-0.3,0.65,3.42,-0.79,2.81
2026-08-03 12:38:27.152,0.68,-0.3,0.65,3.42,-0.79,2.81
2026-08-03 12:38:27.152,0.69,-0.3,0.64,3.23,0.18,2.01
2026-08-03 12:38:27.152,0.69,-0.3,0.64,3.23,0.18,2.01
2026-08-03 12:38:27.153,0.7,-0.32,0.64,3.54,0.98,1.59
2026-08-03 12:38:27.272,0.69,-0.32,0.64,5.25,0.55,1.89
2026-08-03 12:38:27.274,0.69,-0.32,0.64,5.25,0.55,1.89
2026-08-03 12:38:27.275,0.69,-0.31,0.64,7.26,-0.85,2.56
2026-08-03 12:38:27.275,0.69,-0.31,0.64,7.26,-0.85,2.56
2026-08-03 12:38:27.276,0.69,-0.31,0.64,7.87,-1.53,2.87
2026-08-03 12:38:27.330,0.69,-0.31,0.64,7.87,-1.53,2.87
2026-08-03 12:38:27.330,0.68,-0.31,0.64,6.84,-0.98,2.69
2026-08-03 12:38:27.332,0.68,-0.31,0.64,5.55,-1.1,2.44
2026-08-03 12:38:27.510,0.69,-0.32,0.65,5.55,-1.1,2.44
2026-08-03 12:38:27.511,0.69,-0.31,0.65,6.04,-1.28,2.93
2026-08-03 12:38:27.511,0.69,-0.31,0.65,6.04,-1.28,2.93
2026-08-03 12:38:27.572,0.69,-0.3,0.65,8.3,0.67,3.97
2026-08-03 12:38:27.581,0.69,-0.3,0.65,8.3,0.67,3.97
2026-08-03 12:38:27.581,0.68,-0.3,0.65,9.4,2.87,4.15
2026-08-03 12:38:27.581,0.68,-0.3,0.65,9.4,2.87,4.15
2026-08-03 12:38:27.582,0.67,-0.31,0.67,12.27,3.91,5.49
2026-08-03 12:38:27.582,0.67,-0.31,0.67,12.27,3.91,5.49
2026-08-03 12:38:27.582,0.66,-0.31,0.69,34.12,8.67,15.69
2026-08-03 12:38:27.630,0.65,-0.28,0.71,75.68,17.4,34.91
2026-08-03 12:38:27.631,0.65,-0.28,0.71,75.68,17.4,34.91
2026-08-03 12:38:27.631,0.64,-0.23,0.73,108.28,23.56,49.26
2026-08-03 12:38:27.697,0.64,-0.23,0.73,108.28,23.56,49.26
2026-08-03 12:38:27.698,0.63,-0.18,0.75,115.23,23.56,50.23
2026-08-03 12:38:27.698,0.63,-0.18,0.75,115.23,23.56,50.23
2026-08-03 12:38:27.750,0.6,-0.13,0.77,109.62,19.23,42.97
2026-08-03 12:38:27.750,0.6,-0.13,0.77,109.62,19.23,42.97
2026-08-03 12:38:27.751,0.6,-0.13,0.77,109.62,19.23,42.97
2026-08-03 12:38:27.810,0.6,-0.13,0.77,109.62,19.23,42.97
2026-08-03 12:38:27.810,0.58,-0.05,0.79,91.25,5.74,25.02
2026-08-03 12:38:27.872,0.58,-0.02,0.79,58.47,0.43,12.21
2026-08-03 12:38:27.872,0.58,-0.02,0.79,58.47,0.43,12.21
2026-08-03 12:38:27.873,0.58,-0.01,0.79,12.88,-1.59,0.12
2026-08-03 12:38:27.933,0.58,-0.01,0.79,12.88,-1.59,0.12
2026-08-03 12:38:27.937,0.59,-0.04,0.79,-25.76,-2.93,-4.46
2026-08-03 12:38:27.937,0.59,-0.04,0.79,-25.76,-2.93,-4.46
2026-08-03 12:38:28.049,0.59,-0.1,0.8,-48.03,-4.46,-2.75
2026-08-03 12:38:28.050,0.59,-0.1,0.8,-48.03,-4.46,-2.75
2026-08-03 12:38:28.051,0.58,-0.11,0.82,-44.98,-2.01,-0.67
2026-08-03 12:38:28.110,0.57,-0.11,0.81,-17.52,3.85,0.85
2026-08-03 12:38:28.110,0.57,-0.11,0.81,-17.52,3.85,0.85
2026-08-03 12:38:28.111,0.58,-0.11,0.8,6.65,7.2,1.4
2026-08-03 12:38:28.111,0.58,-0.11,0.8,6.65,7.2,1.4
2026-08-03 12:38:28.112,0.58,-0.12,0.8,13.31,8.42,-1.16
2026-08-03 12:38:28.172,0.58,-0.12,0.8,13.31,8.42,-1.16
2026-08-03 12:38:28.172,0.58,-0.11,0.8,10.31,10.74,-5.92
2026-08-03 12:38:28.172,0.58,-0.11,0.8,10.31,10.74,-5.92
2026-08-03 12:38:28.234,0.57,-0.11,0.8,-3.54,12.88,-11.17
2026-08-03 12:38:28.234,0.57,-0.11,0.8,-3.54,12.88,-11.17
2026-08-03 12:38:28.235,0.57,-0.11,0.8,-3.54,12.88,-11.17
2026-08-03 12:38:28.297,0.57,-0.11,0.8,-3.54,12.88,-11.17
2026-08-03 12:38:28.298,0.56,-0.13,0.83,-51.7,15.99,-17.82
2026-08-03 12:38:28.298,0.56,-0.13,0.83,-51.7,15.99,-17.82
2026-08-03 12:38:28.350,0.55,-0.15,0.83,-48.22,15.5,-10.44
2026-08-03 12:38:28.351,0.54,-0.15,0.83,-27.4,11.66,2.87
2026-08-03 12:38:28.410,0.54,-0.15,0.83,-27.4,11.66,2.87
2026-08-03 12:38:28.411,0.53,-0.16,0.82,-10.56,8.24,13.31
2026-08-03 12:38:28.411,0.53,-0.16,0.82,-10.56,8.24,13.31
2026-08-03 12:38:28.530,0.51,-0.19,0.83,-4.03,7.26,18.37
2026-08-03 12:38:28.531,0.51,-0.19,0.83,-4.03,7.26,18.37
2026-08-03 12:38:28.531,0.52,-0.21,0.87,7.45,11.54,22.89
2026-08-03 12:38:28.532,0.52,-0.21,0.87,32.84,28.14,30.27
2026-08-03 12:38:28.532,0.52,-0.2,0.91,32.84,28.14,30.27
2026-08-03 12:38:28.653,0.51,-0.19,0.9,57.86,51.33,42.72
2026-08-03 12:38:28.653,0.51,-0.19,0.9,57.86,51.33,42.72
2026-08-03 12:38:28.654,0.42,-0.14,0.88,75.62,73.79,62.74
2026-08-03 12:38:28.654,0.42,-0.14,0.88,75.62,73.79,62.74
2026-08-03 12:38:28.771,0.28,-0.07,0.89,100.77,96.86,81.42
2026-08-03 12:38:28.772,0.28,-0.07,0.89,100.77,96.86,81.42
2026-08-03 12:38:28.773,0.2,-0.0,0.9,128.78,95.89,93.08
2026-08-03 12:38:28.773,0.07,-0.1,1.02,138.61,62.5,101.75
2026-08-03 12:38:28.773,0.07,-0.1,1.02,138.61,62.5,101.75
2026-08-03 12:38:28.774,0.01,-0.34,1.16,132.26,27.4,109.19
2026-08-03 12:38:28.774,0.01,-0.34,1.16,132.26,27.4,109.19
2026-08-03 12:38:28.832,0.1,-0.19,1.08,130.19,31.01,134.46
2026-08-03 12:38:28.832,0.1,-0.19,1.08,130.19,31.01,134.46
2026-08-03 12:38:28.950,0.11,0.33,0.83,149.41,65.19,167.66
2026-08-03 12:38:28.951,0.11,0.61,0.66,155.76,69.21,131.65
2026-08-03 12:38:28.951,0.11,0.61,0.66,155.76,69.21,131.65
2026-08-03 12:38:28.951,0.17,0.52,0.68,112.0,27.1,34.61
2026-08-03 12:38:28.952,0.17,0.52,0.68,112.0,27.1,34.61
2026-08-03 12:38:29.010,0.23,0.37,0.75,19.71,-27.95,-42.72
2026-08-03 12:38:29.011,0.23,0.37,0.75,19.71,-27.95,-42.72
2026-08-03 12:38:29.012,0.3,0.36,0.87,-67.63,-63.35,-83.56
2026-08-03 12:38:29.071,0.26,0.38,1.11,-118.35,-58.78,-97.6
2026-08-03 12:38:29.072,0.26,0.38,1.11,-118.35,-58.78,-97.6
2026-08-03 12:38:29.190,0.14,0.35,1.24,-134.89,-14.53,-74.65
2026-08-03 12:38:29.190,0.14,0.35,1.24,-134.89,-14.53,-74.65
2026-08-03 12:38:29.249,0.13,0.33,1.13,-88.26,20.63,-32.47
2026-08-03 12:38:29.250,0.13,0.33,1.13,-88.26,20.63,-32.47
2026-08-03 12:38:29.250,0.21,0.3,0.99,-26.43,17.88,-16.72
2026-08-03 12:38:29.251,0.28,0.24,0.97,2.2,9.89,-8.54
2026-08-03 12:38:29.251,0.28,0.24,0.97,2.2,9.89,-8.54
2026-08-03 12:38:29.251,0.28,0.26,0.93,42.91,35.03,57.07
2026-08-03 12:38:29.372,0.28,0.26,0.93,42.91,35.03,57.07
2026-08-03 12:38:29.372,0.26,0.42,0.77,122.99,75.99,163.82
2026-08-03 12:38:29.373,0.26,0.42,0.77,200.93,57.43,212.77
2026-08-03 12:38:29.373,0.29,0.62,0.54,200.93,57.43,212.77
2026-08-03 12:38:29.373,0.32,0.65,0.39,200.87,-17.46,141.3
2026-08-03 12:38:29.373,0.32,0.65,0.39,200.87,-17.46,141.3
2026-08-03 12:38:29.490,0.34,0.57,0.48,125.67,-61.83,21.42
2026-08-03 12:38:29.490,0.34,0.57,0.48,125.67,-61.83,21.42
2026-08-03 12:38:29.557,0.37,0.52,0.66,70.31,-50.54,-19.71
2026-08-03 12:38:29.560,0.37,0.53,0.7,68.66,-13.24,38.45
2026-08-03 12:38:29.561,0.37,0.53,0.7,68.66,-13.24,38.45
2026-08-03 12:38:29.561,0.42,0.57,0.59,91.86,19.41,134.34
2026-08-03 12:38:29.562,0.42,0.57,0.59,91.86,19.41,134.34
2026-08-03 12:38:29.615,0.5,0.6,0.44,96.5,21.48,180.97
2026-08-03 12:38:29.615,0.5,0.6,0.44,96.5,21.48,180.97
2026-08-03 12:38:29.616,0.56,0.61,0.41,36.99,18.55,124.33
2026-08-03 12:38:29.670,0.56,0.61,0.41,-62.44,34.91,12.39
2026-08-03 12:38:29.672,0.49,0.64,0.59,-62.44,34.91,12.39
2026-08-03 12:38:29.730,0.42,0.59,0.78,-140.32,6.04,-51.27
2026-08-03 12:38:29.731,0.42,0.59,0.78,-140.32,6.04,-51.27
2026-08-03 12:38:29.731,0.43,0.48,0.86,-173.46,-55.42,-50.11
2026-08-03 12:38:29.913,0.43,0.48,0.86,-173.46,-55.42,-50.11
2026-08-03 12:38:29.913,0.41,0.44,0.86,-176.09,-69.27,-34.06
2026-08-03 12:38:29.914,0.41,0.44,0.86,-176.09,-69.27,-34.06
2026-08-03 12:38:29.915,0.37,0.41,0.99,-195.07,-46.81,-21.85
2026-08-03 12:38:29.915,0.38,0.24,1.18,-238.71,-35.95,-17.33
2026-08-03 12:38:29.916,0.38,0.24,1.18,-238.71,-35.95,-17.33
2026-08-03 12:38:29.916,0.44,0.07,1.13,-263.55,-23.62,-27.77
2026-08-03 12:38:29.916,0.44,0.07,1.13,-263.55,-23.62,-27.77
2026-08-03 12:38:29.970,0.46,-0.07,0.91,-248.9,44.74,-53.04
2026-08-03 12:38:30.030,0.46,-0.07,0.91,-248.9,44.74,-53.04
2026-08-03 12:38:30.030,0.46,-0.26,0.74,-194.76,119.38,-76.97
2026-08-03 12:38:30.031,0.46,-0.38,0.65,-124.21,113.83,-85.33
2026-08-03 12:38:30.031,0.46,-0.38,0.65,-124.21,113.83,-85.33
2026-08-03 12:38:30.158,0.41,-0.4,0.74,-90.82,46.57,-86.18
2026-08-03 12:38:30.159,0.41,-0.4,0.74,-90.82,46.57,-86.18
2026-08-03 12:38:30.159,0.34,-0.45,0.9,-106.32,2.32,-90.52
2026-08-03 12:38:30.159,0.34,-0.45,0.9,-106.32,2.32,-90.52
2026-08-03 12:38:30.160,0.33,-0.56,0.88,-121.77,20.26,-83.13
2026-08-03 12:38:30.212,0.34,-0.6,0.79,-100.1,53.22,-47.06
2026-08-03 12:38:30.212,0.34,-0.6,0.79,-100.1,53.22,-47.06
2026-08-03 12:38:30.213,0.31,-0.53,0.77,-56.82,62.56,-5.0
2026-08-03 12:38:30.271,0.31,-0.53,0.77,-56.82,62.56,-5.0
2026-08-03 12:38:30.271,0.27,-0.39,0.8,-23.93,65.25,8.12
2026-08-03 12:38:30.271,0.27,-0.39,0.8,-23.93,65.25,8.12
2026-08-03 12:38:30.330,0.29,-0.31,0.8,-6.23,75.5,-9.09
2026-08-03 12:38:30.330,0.29,-0.39,0.8,-2.01,80.99,-43.03
2026-08-03 12:38:30.397,0.29,-0.39,0.8,-2.01,80.99,-43.03
2026-08-03 12:38:30.450,0.23,-0.57,0.85,-18.74,73.3,-80.99
2026-08-03 12:38:30.451,0.23,-0.57,0.85,-18.74,73.3,-80.99
2026-08-03 12:38:30.451,0.23,-0.64,0.81,-29.3,50.96,-86.24
2026-08-03 12:38:30.452,0.23,-0.64,0.81,-29.3,50.96,-86.24
2026-08-03 12:38:30.452,0.24,-0.57,0.76,-17.46,20.2,-56.4
2026-08-03 12:38:30.523,0.16,-0.56,0.79,-9.03,-3.91,-34.97
2026-08-03 12:38:30.524,0.16,-0.56,0.79,-9.03,-3.91,-34.97
2026-08-03 12:38:30.570,0.08,-0.59,0.78,-9.28,-18.43,-10.5
2026-08-03 12:38:30.663,0.08,-0.59,0.78,-9.28,-18.43,-10.5
2026-08-03 12:38:30.666,0.18,-0.43,0.79,-1.22,-25.76,28.69
2026-08-03 12:38:30.668,0.18,-0.43,0.79,-1.22,-25.76,28.69
2026-08-03 12:38:30.668,0.31,-0.37,0.9,6.23,-26.55,31.13
2026-08-03 12:38:30.668,0.31,-0.37,0.9,6.23,-26.55,31.13
2026-08-03 12:38:30.750,0.32,-0.54,0.92,1.22,-12.39,2.56
2026-08-03 12:38:30.752,0.27,-0.57,0.81,-1.34,17.7,3.97
2026-08-03 12:38:30.752,0.27,-0.57,0.81,-1.34,17.7,3.97
2026-08-03 12:38:30.753,0.21,-0.48,0.77,1.95,36.62,23.25
2026-08-03 12:38:30.753,0.21,-0.48,0.77,1.95,36.62,23.25
2026-08-03 12:38:30.812,0.19,-0.48,0.79,3.23,30.15,23.86
2026-08-03 12:38:30.812,0.19,-0.48,0.79,3.23,30.15,23.86
2026-08-03 12:38:30.813,0.18,-0.5,0.82,1.1,13.31,13.0
2026-08-03 12:38:30.870,0.18,-0.5,0.82,1.1,13.31,13.0
2026-08-03 12:38:30.870,0.18,-0.5,0.83,-2.2,3.23,4.7
2026-08-03 12:38:30.996,0.18,-0.51,0.83,-4.7,3.36,-0.12
2026-08-03 12:38:31.050,0.18,-0.51,0.83,-4.7,3.36,-0.12
2026-08-03 12:38:31.050,0.17,-0.52,0.82,-4.52,6.9,-2.69
2026-08-03 12:38:31.051,0.17,-0.52,0.82,-4.52,6.9,-2.69
2026-08-03 12:38:31.173,0.17,-0.52,0.81,-2.5,8.91,-3.48
2026-08-03 12:38:31.174,0.17,-0.52,0.81,-2.5,8.91,-3.48
2026-08-03 12:38:31.174,0.17,-0.52,0.82,-0.67,7.39,-3.85
2026-08-03 12:38:31.175,0.17,-0.52,0.82,-0.67,7.39,-3.85
2026-08-03 12:38:31.238,0.16,-0.52,0.82,1.77,4.27,-2.2
2026-08-03 12:38:31.239,0.16,-0.52,0.82,1.77,4.27,-2.2
2026-08-03 12:38:31.243,0.17,-0.51,0.82,4.7,2.69,2.2
2026-08-03 12:38:31.243,0.17,-0.5,0.82,4.64,2.14,4.64
2026-08-03 12:38:31.243,0.17,-0.5,0.82,4.64,2.14,4.64
2026-08-03 12:38:31.244,0.16,-0.5,0.82,1.53,1.77,3.11
2026-08-03 12:38:31.244,0.16,-0.5,0.82,1.53,1.77,3.11
2026-08-03 12:38:31.244,0.15,-0.51,0.82,-1.71,2.56,-0.12
2026-08-03 12:38:31.245,0.15,-0.51,0.82,-1.71,2.56,-0.12
2026-08-03 12:38:31.294,0.15,-0.52,0.82,-2.56,3.6,-2.14
2026-08-03 12:38:31.350,0.15,-0.52,0.82,-0.73,3.97,-1.28
2026-08-03 12:38:31.351,0.15,-0.52,0.82,-0.73,3.97,-1.28
2026-08-03 12:38:31.351,0.15,-0.51,0.82,1.59,3.97,-0.06
2026-08-03 12:38:31.352,0.15,-0.51,0.82,1.59,3.97,-0.06
2026-08-03 12:38:31.413,0.15,-0.51,0.82,2.14,2.56,0.18
2026-08-03 12:38:31.414,0.15,-0.51,0.82,2.14,2.56,0.18
2026-08-03 12:38:31.414,0.15,-0.51,0.82,1.71,0.37,1.28
2026-08-03 12:38:31.538,0.15,-0.51,0.82,1.71,0.37,1.28
2026-08-03 12:38:31.592,0.15,-0.51,0.83,1.89,-0.37,3.05
2026-08-03 12:38:31.592,0.15,-0.51,0.83,1.89,-0.37,3.05
2026-08-03 12:38:31.593,0.15,-0.5,0.82,2.32,0.49,3.3
2026-08-03 12:38:31.594,0.15,-0.5,0.82,2.32,0.49,3.3
2026-08-03 12:38:31.594,0.15,-0.5,0.82,1.53,1.34,1.59
2026-08-03 12:38:31.594,0.14,-0.51,0.83,0.12,1.34,-0.79
2026-08-03 12:38:31.595,0.14,-0.51,0.83,0.12,1.34,-0.79
2026-08-03 12:38:31.650,0.14,-0.51,0.83,-0.31,1.1,-1.89
2026-08-03 12:38:31.651,0.14,-0.51,0.83,-0.31,1.1,-1.89
2026-08-03 12:38:31.652,0.15,-0.51,0.83,-0.18,1.16,-1.71
2026-08-03 12:38:31.711,0.15,-0.51,0.83,-0.18,1.16,-1.71
2026-08-03 12:38:31.711,0.15,-0.51,0.82,-0.61,1.22,-1.95
2026-08-03 12:38:31.769,0.15,-0.51,0.82,-0.61,1.22,-1.95
2026-08-03 12:38:31.770,0.15,-0.51,0.83,-1.04,0.85,-2.69
2026-08-03 12:38:31.771,0.15,-0.51,0.83,-1.04,0.85,-2.69
2026-08-03 12:38:31.891,0.15,-0.51,0.83,-0.73,0.73,-2.75
2026-08-03 12:38:31.892,0.15,-0.51,0.83,-0.43,0.85,-2.2
2026-08-03 12:38:31.893,0.15,-0.51,0.83,-0.43,0.85,-2.2
2026-08-03 12:38:31.893,0.15,-0.51,0.82,-0.37,0.31,-0.85
2026-08-03 12:38:31.894,0.15,-0.51,0.82,-0.37,0.31,-0.85
2026-08-03 12:38:31.896,0.15,-0.51,0.82,-0.31,-0.49,0.12
2026-08-03 12:38:32.010,0.15,-0.51,0.82,-0.31,-0.49,0.12
2026-08-03 12:38:32.011,0.15,-0.51,0.82,-0.24,0.12,-0.49
2026-08-03 12:38:32.011,0.15,-0.51,0.82,-0.24,0.12,-0.49
2026-08-03 12:38:32.012,0.15,-0.53,0.82,0.31,1.59,-1.83
2026-08-03 12:38:32.012,0.15,-0.53,0.82,0.31,1.59,-1.83
2026-08-03 12:38:32.078,0.16,-0.55,0.81,3.17,4.64,-5.49
2026-08-03 12:38:32.078,0.16,-0.52,0.83,6.1,10.74,-9.7
2026-08-03 12:38:32.088,0.16,-0.52,0.83,6.1,10.74,-9.7
2026-08-03 12:38:32.130,0.14,-0.48,0.84,4.21,14.89,-9.09
2026-08-03 12:38:32.138,0.14,-0.48,0.84,4.21,14.89,-9.09
2026-08-03 12:38:32.193,0.12,-0.47,0.84,-0.06,11.66,-4.58
2026-08-03 12:38:32.194,0.12,-0.47,0.84,-0.06,11.66,-4.58
2026-08-03 12:38:32.195,0.12,-0.47,0.84,-1.46,4.09,-0.37
2026-08-03 12:38:32.310,0.12,-0.47,0.84,-1.46,4.09,-0.37
2026-08-03 12:38:32.311,0.13,-0.48,0.83,-1.28,-1.4,0.92
2026-08-03 12:38:32.311,0.13,-0.48,0.83,-1.28,-1.4,0.92
2026-08-03 12:38:32.312,0.14,-0.49,0.83,-2.14,-2.87,-0.31
2026-08-03 12:38:32.312,0.14,-0.51,0.83,-3.11,-2.26,-1.4
2026-08-03 12:38:32.385,0.14,-0.51,0.83,-3.11,-2.26,-1.4
2026-08-03 12:38:32.396,0.14,-0.51,0.83,-3.72,-1.28,-1.77
2026-08-03 12:38:32.397,0.14,-0.51,0.83,-3.72,-1.28,-1.77
2026-08-03 12:38:32.491,0.14,-0.51,0.82,-4.03,-0.73,-2.14
2026-08-03 12:38:32.492,0.14,-0.51,0.82,-4.03,-0.73,-2.14
2026-08-03 12:38:32.492,0.14,-0.51,0.82,-3.72,-0.55,-3.05
2026-08-03 12:38:32.492,0.14,-0.51,0.82,-3.72,-0.55,-3.05
2026-08-03 12:38:32.493,0.14,-0.52,0.82,-3.05,0.12,-3.91
2026-08-03 12:38:32.493,0.14,-0.52,0.82,-3.05,0.12,-3.91
2026-08-03 12:38:32.550,0.15,-0.52,0.82,-1.83,0.55,-3.3
2026-08-03 12:38:32.551,0.15,-0.52,0.82,-0.31,0.43,-1.83
2026-08-03 12:38:32.553,0.15,-0.52,0.82,-0.31,0.43,-1.83
2026-08-03 12:38:32.610,0.15,-0.51,0.82,0.55,0.31,-0.85
2026-08-03 12:38:32.611,0.15,-0.51,0.82,0.55,0.31,-0.85
2026-08-03 12:38:32.677,0.15,-0.51,0.82,0.73,-0.18,-0.37
2026-08-03 12:38:32.678,0.15,-0.51,0.82,0.73,-0.18,-0.37
2026-08-03 12:38:32.790,0.15,-0.51,0.82,0.37,-0.79,-0.06
2026-08-03 12:38:32.849,0.15,-0.51,0.82,0.37,-0.79,-0.06
2026-08-03 12:38:32.850,0.15,-0.51,0.82,-0.31,-0.79,0.43
2026-08-03 12:38:32.851,0.15,-0.51,0.82,-0.31,-0.79,0.43
2026-08-03 12:38:32.851,0.14,-0.51,0.82,-0.98,-0.49,0.61
2026-08-03 12:38:32.851,0.14,-0.51,0.82,-1.16,-0.06,0.18
2026-08-03 12:38:32.852,0.14,-0.52,0.82,-1.16,-0.06,0.18
2026-08-03 12:38:32.852,0.15,-0.52,0.82,-0.67,0.55,-0.12
2026-08-03 12:38:32.852,0.15,-0.52,0.82,-0.67,0.55,-0.12
2026-08-03 12:38:32.910,0.15,-0.51,0.82,-0.06,0.85,0.06
2026-08-03 12:38:32.910,0.15,-0.51,0.82,-0.06,0.85,0.06
2026-08-03 12:38:32.911,0.15,-0.51,0.82,-0.12,0.37,0.31
2026-08-03 12:38:32.971,0.15,-0.51,0.82,-0.12,0.37,0.31
2026-08-03 12:38:32.971,0.15,-0.51,0.82,-0.61,-0.31,0.31
2026-08-03 12:38:32.972,0.15,-0.51,0.82,-0.61,-0.31,0.31
2026-08-03 12:38:33.031,0.15,-0.52,0.82,-0.67,-0.67,0.06
2026-08-03 12:38:33.032,0.15,-0.52,0.82,-0.61,-0.67,-0.49
2026-08-03 12:38:33.032,0.15,-0.52,0.82,-0.61,-0.67,-0.49
2026-08-03 12:38:33.091,0.15,-0.52,0.82,-0.79,-0.37,-1.04
2026-08-03 12:38:33.091,0.15,-0.52,0.82,-0.79,-0.37,-1.04
2026-08-03 12:38:33.150,0.15,-0.52,0.82,-0.98,0.06,-0.98
2026-08-03 12:38:33.151,0.15,-0.52,0.82,-0.98,0.06,-0.98
2026-08-03 12:38:33.151,0.15,-0.52,0.82,-1.1,0.43,-0.37
2026-08-03 12:38:33.224,0.15,-0.52,0.82,-1.1,0.43,-0.37
2026-08-03 12:38:33.236,0.15,-0.52,0.82,-1.28,0.55,0.49
2026-08-03 12:38:33.242,0.15,-0.52,0.82,-1.28,0.55,0.49
2026-08-03 12:38:33.390,0.15,-0.52,0.82,-1.4,0.49,0.98
2026-08-03 12:38:33.391,0.15,-0.52,0.82,-1.53,0.49,0.55
2026-08-03 12:38:33.393,0.15,-0.52,0.82,-1.53,0.49,0.55
2026-08-03 12:38:33.394,0.15,-0.52,0.81,-1.46,0.43,-0.55
2026-08-03 12:38:33.395,0.15,-0.52,0.81,-1.46,0.43,-0.55
2026-08-03 12:38:33.395,0.15,-0.53,0.81,-1.22,0.49,-1.65
2026-08-03 12:38:33.570,0.15,-0.53,0.81,-1.22,0.49,-1.65
2026-08-03 12:38:33.570,0.15,-0.53,0.81,-0.92,0.61,-1.65
2026-08-03 12:38:33.570,0.15,-0.53,0.81,-0.92,0.61,-1.65
2026-08-03 12:38:33.571,0.15,-0.52,0.81,-0.67,0.55,-0.61
2026-08-03 12:38:33.573,0.15,-0.52,0.81,-0.67,0.55,-0.61
2026-08-03 12:38:33.573,0.15,-0.53,0.81,-0.73,0.37,0.55
2026-08-03 12:38:33.574,0.15,-0.53,0.81,-1.04,0.06,1.46
2026-08-03 12:38:33.589,0.15,-0.53,0.81,-1.04,0.06,1.46
2026-08-03 12:38:33.591,0.15,-0.54,0.81,-1.04,-0.49,3.23
2026-08-03 12:38:33.592,0.15,-0.54,0.81,-1.04,-0.49,3.23
2026-08-03 12:38:33.694,0.15,-0.53,0.81,-1.1,-2.44,6.96
2026-08-03 12:38:33.695,0.15,-0.53,0.81,-1.1,-2.44,6.96
2026-08-03 12:38:33.695,0.14,-0.53,0.81,-1.83,-5.49,10.62
2026-08-03 12:38:33.696,0.14,-0.53,0.81,-1.83,-5.49,10.62
2026-08-03 12:38:33.749,0.14,-0.53,0.81,-2.26,-6.53,10.31
2026-08-03 12:38:33.750,0.14,-0.53,0.81,-2.26,-6.53,10.31
2026-08-03 12:38:33.750,0.14,-0.53,0.81,-1.46,-5.0,7.08
2026-08-03 12:38:33.751,0.14,-0.54,0.81,-0.12,-2.99,5.25
2026-08-03 12:38:33.811,0.14,-0.54,0.81,-0.12,-2.99,5.25
2026-08-03 12:38:33.849,0.14,-0.54,0.81,0.98,-1.65,5.55
2026-08-03 12:38:33.850,0.14,-0.54,0.81,0.98,-1.65,5.55
2026-08-03 12:38:33.931,0.14,-0.53,0.81,1.83,-0.67,6.41
2026-08-03 12:38:33.932,0.14,-0.53,0.81,1.83,-0.67,6.41
2026-08-03 12:38:33.932,0.14,-0.53,0.81,2.2,0.0,7.2
2026-08-03 12:38:33.933,0.14,-0.53,0.81,2.2,0.0,7.2
2026-08-03 12:38:33.933,0.14,-0.53,0.81,2.2,-0.24,7.57
2026-08-03 12:38:33.933,0.14,-0.53,0.81,2.2,-0.24,7.57
2026-08-03 12:38:33.991,0.14,-0.52,0.81,1.95,-0.55,5.74
2026-08-03 12:38:33.992,0.14,-0.53,0.81,1.4,-0.37,1.83
2026-08-03 12:38:34.050,0.14,-0.53,0.81,1.4,-0.37,1.83
2026-08-03 12:38:34.051,0.13,-0.53,0.81,0.67,-0.67,-1.04
2026-08-03 12:38:34.051,0.13,-0.53,0.81,0.67,-0.67,-1.04
2026-08-03 12:38:34.130,0.13,-0.53,0.81,0.18,-0.85,-1.65
2026-08-03 12:38:34.136,0.13,-0.53,0.81,0.18,-0.85,-1.65
2026-08-03 12:38:34.140,0.13,-0.53,0.81,0.37,0.12,-1.83
2026-08-03 12:38:34.233,0.13,-0.53,0.81,0.37,0.12,-1.83
2026-08-03 12:38:34.234,0.14,-0.53,0.81,0.98,0.55,-2.5
2026-08-03 12:38:34.234,0.14,-0.53,0.81,0.98,0.55,-2.5
2026-08-03 12:38:34.235,0.14,-0.53,0.81,1.46,-0.61,-2.56
2026-08-03 12:38:34.235,0.14,-0.53,0.81,2.14,-2.26,-1.59
2026-08-03 12:38:34.425,0.14,-0.53,0.81,2.14,-2.26,-1.59
2026-08-03 12:38:34.430,0.15,-0.53,0.81,2.81,-3.36,-1.34
2026-08-03 12:38:34.431,0.15,-0.53,0.81,2.81,-3.36,-1.34
2026-08-03 12:38:34.432,0.15,-0.52,0.81,2.56,-3.66,-2.44
2026-08-03 12:38:34.432,0.15,-0.52,0.81,2.56,-3.66,-2.44
2026-08-03 12:38:34.432,0.15,-0.53,0.82,1.71,-3.23,-2.69
2026-08-03 12:38:34.433,0.15,-0.53,0.82,1.71,-3.23,-2.69
2026-08-03 12:38:34.433,0.15,-0.52,0.81,1.34,-2.62,-1.4
2026-08-03 12:38:34.433,0.15,-0.52,0.81,1.34,-2.62,-1.4
2026-08-03 12:38:34.482,0.15,-0.52,0.81,1.16,-2.2,-0.37
2026-08-03 12:38:34.590,0.16,-0.53,0.81,0.73,-1.46,0.85
2026-08-03 12:38:34.591,0.16,-0.53,0.81,0.73,-1.46,0.85
2026-08-03 12:38:34.591,0.15,-0.52,0.81,0.61,-1.4,3.36
2026-08-03 12:38:34.592,0.15,-0.52,0.81,0.61,-1.4,3.36
2026-08-03 12:38:34.592,0.15,-0.52,0.81,-0.12,-2.69,4.09
2026-08-03 12:38:34.592,0.15,-0.52,0.81,-0.12,-2.69,4.09
2026-08-03 12:38:34.593,0.15,-0.53,0.81,-0.85,-3.42,3.54
2026-08-03 12:38:34.650,0.15,-0.53,0.81,-0.85,-3.42,3.54
2026-08-03 12:38:34.651,0.15,-0.52,0.81,-0.55,-2.87,4.46
2026-08-03 12:38:34.777,0.15,-0.52,0.81,-0.55,-2.87,4.46
2026-08-03 12:38:34.778,0.15,-0.52,0.81,-0.61,-1.65,2.87
2026-08-03 12:38:34.890,0.15,-0.53,0.81,-0.79,0.12,-1.4
2026-08-03 12:38:34.891,0.15,-0.53,0.81,-0.79,0.12,-1.4
2026-08-03 12:38:34.891,0.15,-0.53,0.81,0.31,1.71,-3.6
2026-08-03 12:38:34.891,0.15,-0.53,0.81,0.31,1.71,-3.6
2026-08-03 12:38:34.892,0.16,-0.52,0.81,0.73,2.08,-3.66
2026-08-03 12:38:34.892,0.16,-0.52,0.81,0.73,2.08,-3.66
2026-08-03 12:38:34.893,0.16,-0.53,0.81,-0.31,1.4,-3.36
2026-08-03 12:38:34.893,0.16,-0.53,0.81,-0.31,1.4,-3.36
2026-08-03 12:38:34.894,0.16,-0.53,0.81,-0.67,0.61,-2.2
2026-08-03 12:38:34.894,0.16,-0.53,0.81,-0.67,0.61,-2.2
2026-08-03 12:38:34.967,0.16,-0.52,0.81,-0.06,-0.18,-0.55
2026-08-03 12:38:34.985,0.16,-0.52,0.81,-0.06,-0.18,-0.55
2026-08-03 12:38:35.011,0.16,-0.52,0.81,-0.06,-0.18,-0.55
2026-08-03 12:38:35.011,0.16,-0.52,0.81,-0.06,-0.18,-0.55
2026-08-03 12:38:35.012,0.15,-0.53,0.81,0.37,-1.16,0.92
2026-08-03 12:38:35.130,0.15,-0.53,0.81,0.37,-1.16,0.92
2026-08-03 12:38:35.256,0.15,-0.53,0.81,0.37,-0.43,1.34
2026-08-03 12:38:35.257,0.15,-0.53,0.81,0.49,0.79,0.79
2026-08-03 12:38:35.258,0.15,-0.53,0.81,0.49,0.79,0.79
2026-08-03 12:38:35.258,0.15,-0.53,0.81,1.28,1.59,0.0
2026-08-03 12:38:35.259,0.15,-0.53,0.81,1.28,1.59,0.0
2026-08-03 12:38:35.259,0.16,-0.52,0.81,2.14,1.34,0.0
2026-08-03 12:38:35.260,0.16,-0.52,0.81,2.14,1.34,0.0
2026-08-03 12:38:35.260,0.16,-0.52,0.81,2.2,0.73,0.43
2026-08-03 12:38:35.260,0.16,-0.52,0.81,2.2,0.73,0.43
2026-08-03 12:38:35.260,0.16,-0.52,0.81,1.53,0.12,1.65
2026-08-03 12:38:35.314,0.15,-0.52,0.81,0.49,-0.98,2.44
2026-08-03 12:38:35.314,0.15,-0.52,0.81,0.49,-0.98,2.44
2026-08-03 12:38:35.371,0.15,-0.52,0.82,-0.43,-1.71,1.1
2026-08-03 12:38:35.371,0.15,-0.52,0.82,-0.43,-1.71,1.1
2026-08-03 12:38:35.371,0.15,-0.53,0.82,-0.06,-0.98,1.04
2026-08-03 12:38:35.430,0.15,-0.53,0.82,-0.06,-0.98,1.04
2026-08-03 12:38:35.431,0.15,-0.52,0.81,1.28,0.18,2.87
2026-08-03 12:38:35.431,0.15,-0.52,0.81,1.28,0.18,2.87
2026-08-03 12:38:35.490,0.15,-0.52,0.81,1.4,0.85,2.08
2026-08-03 12:38:35.491,0.15,-0.52,0.81,1.4,0.85,2.08
2026-08-03 12:38:35.491,0.15,-0.52,0.82,1.04,1.1,-0.31
2026-08-03 12:38:35.555,0.16,-0.52,0.82,0.92,1.28,-1.28
2026-08-03 12:38:35.556,0.16,-0.52,0.82,0.92,1.28,-1.28
2026-08-03 12:38:35.670,0.15,-0.52,0.82,0.55,1.22,-1.34
2026-08-03 12:38:35.672,0.15,-0.52,0.82,0.55,1.22,-1.34
2026-08-03 12:38:35.673,0.15,-0.52,0.82,0.0,0.79,-0.98
2026-08-03 12:38:35.673,0.15,-0.52,0.82,0.0,0.79,-0.98
2026-08-03 12:38:35.674,0.15,-0.52,0.82,0.0,0.37,-0.06
2026-08-03 12:38:35.674,0.15,-0.52,0.82,0.0,0.37,-0.06
2026-08-03 12:38:35.790,0.15,-0.52,0.82,0.31,0.31,0.55
2026-08-03 12:38:35.791,0.15,-0.52,0.82,0.31,0.31,0.55
2026-08-03 12:38:35.791,0.15,-0.52,0.82,0.37,0.55,0.79
2026-08-03 12:38:35.791,0.15,-0.52,0.82,0.37,0.55,0.79
2026-08-03 12:38:35.792,0.15,-0.52,0.82,0.31,0.73,0.55
2026-08-03 12:38:36.031,0.15,-0.52,0.82,0.49,0.73,-0.67
2026-08-03 12:38:36.031,0.15,-0.52,0.82,0.49,0.73,-0.67
2026-08-03 12:38:36.032,0.15,-0.52,0.82,1.46,0.67,-1.71
2026-08-03 12:38:36.032,0.15,-0.52,0.82,1.46,0.67,-1.71
2026-08-03 12:38:36.033,0.15,-0.52,0.82,2.26,0.85,-1.53
2026-08-03 12:38:36.034,0.15,-0.52,0.82,2.26,0.85,-1.53
2026-08-03 12:38:36.034,0.15,-0.52,0.82,2.2,1.1,-0.67
2026-08-03 12:38:36.035,0.15,-0.52,0.82,2.2,1.1,-0.67
2026-08-03 12:38:36.035,0.15,-0.52,0.82,1.83,1.1,0.0
2026-08-03 12:38:36.036,0.15,-0.52,0.82,1.83,1.1,0.0
2026-08-03 12:38:36.036,0.15,-0.51,0.82,1.71,0.92,0.49
2026-08-03 12:38:36.037,0.15,-0.51,0.82,1.65,0.67,0.73
2026-08-03 12:38:36.154,0.15,-0.51,0.82,1.65,0.67,0.73
2026-08-03 12:38:36.210,0.15,-0.51,0.82,1.59,0.31,0.49
2026-08-03 12:38:36.211,0.15,-0.51,0.82,1.59,0.31,0.49
2026-08-03 12:38:36.390,0.15,-0.51,0.82,1.77,0.0,0.0
2026-08-03 12:38:36.390,0.15,-0.51,0.82,1.77,0.0,0.0
2026-08-03 12:38:36.391,0.15,-0.51,0.82,1.59,0.06,-0.43
2026-08-03 12:38:36.391,0.15,-0.51,0.82,1.59,0.06,-0.43
2026-08-03 12:38:36.392,0.15,-0.51,0.82,0.85,0.43,-0.67
2026-08-03 12:38:36.392,0.15,-0.51,0.82,0.85,0.43,-0.67
2026-08-03 12:38:36.393,0.15,-0.51,0.82,0.55,0.43,-0.92
2026-08-03 12:38:36.393,0.15,-0.51,0.82,0.55,0.43,-0.92
2026-08-03 12:38:36.394,0.15,-0.51,0.82,0.79,0.0,-0.67
2026-08-03 12:38:36.394,0.15,-0.51,0.82,1.16,-0.43,0.0
2026-08-03 12:38:36.395,0.15,-0.51,0.82,1.16,-0.43,0.0
2026-08-03 12:38:36.395,0.15,-0.51,0.82,1.53,-0.67,0.06
2026-08-03 12:38:36.396,0.15,-0.51,0.82,1.53,-0.67,0.06
2026-08-03 12:38:36.450,0.15,-0.51,0.82,1.53,-0.43,-0.18
2026-08-03 12:38:36.451,0.15,-0.51,0.82,1.53,-0.43,-0.18
2026-08-03 12:38:36.451,0.15,-0.51,0.82,1.16,-0.24,-0.43
2026-08-03 12:38:36.510,0.15,-0.51,0.82,1.16,-0.24,-0.43
2026-08-03 12:38:36.511,0.15,-0.51,0.83,1.04,-0.49,-0.18
2026-08-03 12:38:36.511,0.15,-0.51,0.83,1.04,-0.49,-0.18
2026-08-03 12:38:36.577,0.15,-0.51,0.83,1.28,-0.61,0.73
2026-08-03 12:38:36.577,0.15,-0.5,0.83,1.28,-0.18,1.22
2026-08-03 12:38:36.630,0.15,-0.5,0.83,1.28,-0.18,1.22
2026-08-03 12:38:36.631,0.15,-0.5,0.83,0.98,0.43,0.79
2026-08-03 12:38:36.631,0.15,-0.5,0.83,0.98,0.43,0.79
2026-08-03 12:38:36.690,0.15,-0.51,0.83,0.85,0.98,-0.12
2026-08-03 12:38:36.691,0.15,-0.51,0.83,0.85,0.98,-0.12
2026-08-03 12:38:36.691,0.15,-0.51,0.83,1.16,1.28,-0.55
2026-08-03 12:38:36.750,0.15,-0.51,0.83,1.16,1.28,-0.55
2026-08-03 12:38:36.753,0.15,-0.5,0.83,1.46,1.4,-0.49
2026-08-03 12:38:36.811,0.15,-0.5,0.83,1.4,1.34,-0.79
2026-08-03 12:38:36.812,0.15,-0.5,0.83,1.4,1.34,-0.79
2026-08-03 12:38:36.813,0.15,-0.5,0.83,1.1,0.98,-1.95
2026-08-03 12:38:36.872,0.15,-0.5,0.83,1.1,0.98,-1.95
2026-08-03 12:38:36.873,0.15,-0.5,0.83,0.79,0.92,-3.05
2026-08-03 12:38:37.050,0.15,-0.5,0.83,0.79,0.92,-3.05
2026-08-03 12:38:37.050,0.16,-0.5,0.83,0.73,1.46,-3.11
2026-08-03 12:38:37.051,0.16,-0.5,0.83,0.73,1.46,-3.11
2026-08-03 12:38:37.170,0.18,-0.49,0.83,-0.85,5.8,-1.28
2026-08-03 12:38:37.356,0.18,-0.49,0.83,-0.85,5.8,-1.28
2026-08-03 12:38:37.412,0.16,-0.5,0.84,-7.39,22.95,0.0
2026-08-03 12:38:37.413,0.16,-0.5,0.84,-12.76,45.23,-6.35
2026-08-03 12:38:37.413,0.11,-0.53,0.83,-12.76,45.23,-6.35
2026-08-03 12:38:37.413,0.06,-0.53,0.82,-9.22,49.8,-17.09
2026-08-03 12:38:37.414,0.06,-0.53,0.82,-9.22,49.8,-17.09
2026-08-03 12:38:37.414,0.05,-0.52,0.82,-0.37,32.29,-20.39
2026-08-03 12:38:37.414,0.05,-0.52,0.82,-0.37,32.29,-20.39
2026-08-03 12:38:37.414,0.06,-0.51,0.82,6.53,7.93,-13.49
2026-08-03 12:38:37.414,0.06,-0.51,0.82,6.53,7.93,-13.49
2026-08-03 12:38:37.415,0.08,-0.5,0.83,8.48,-8.18,-3.23
2026-08-03 12:38:37.415,0.08,-0.5,0.83,7.08,-12.27,2.75
2026-08-03 12:38:37.415,0.1,-0.5,0.84,7.08,-12.27,2.75
2026-08-03 12:38:37.416,0.1,-0.5,0.84,5.25,-9.34,2.62
2026-08-03 12:38:37.416,0.1,-0.5,0.84,5.25,-9.34,2.62
2026-08-03 12:38:37.416,0.1,-0.5,0.84,4.46,-5.68,0.06
2026-08-03 12:38:37.416,0.1,-0.5,0.84,4.46,-5.68,0.06
2026-08-03 12:38:37.417,0.12,-0.5,0.84,4.52,-2.81,-0.92
2026-08-03 12:38:37.418,0.12,-0.5,0.84,4.52,-2.81,-0.92
2026-08-03 12:38:37.418,0.13,-0.5,0.86,6.1,4.76,-3.36
2026-08-03 12:38:37.420,0.11,-0.48,0.87,16.05,21.79,-17.21
2026-08-03 12:38:37.711,0.11,-0.48,0.87,16.05,21.79,-17.21
2026-08-03 12:38:37.712,0.07,-0.45,0.86,31.31,34.55,-35.28
2026-08-03 12:38:37.713,0.07,-0.45,0.86,31.31,34.55,-35.28
2026-08-03 12:38:37.714,0.05,-0.43,0.86,34.67,28.81,-36.99
2026-08-03 12:38:37.714,0.05,-0.43,0.86,34.67,28.81,-36.99
2026-08-03 12:38:37.715,0.06,-0.42,0.87,24.6,12.27,-21.3
2026-08-03 12:38:37.715,0.06,-0.42,0.87,12.76,-1.83,-2.69
2026-08-03 12:38:37.718,0.07,-0.41,0.88,12.76,-1.83,-2.69
2026-08-03 12:38:37.719,0.09,-0.41,0.89,4.76,-8.61,8.42
2026-08-03 12:38:37.719,0.09,-0.41,0.89,4.76,-8.61,8.42
2026-08-03 12:38:37.719,0.09,-0.41,0.89,1.28,-9.64,10.38
2026-08-03 12:38:37.720,0.09,-0.41,0.89,1.28,-9.64,10.38
2026-08-03 12:38:37.720,0.09,-0.41,0.89,1.22,-8.42,7.39
2026-08-03 12:38:37.722,0.09,-0.41,0.89,1.22,-8.42,7.39
2026-08-03 12:38:37.771,0.09,-0.41,0.89,2.14,-7.02,3.72
2026-08-03 12:38:37.771,0.09,-0.41,0.89,2.14,-7.02,3.72
2026-08-03 12:38:38.012,0.1,-0.41,0.89,2.2,-5.8,1.16
2026-08-03 12:38:38.014,0.1,-0.41,0.89,1.65,-4.7,0.79
2026-08-03 12:38:38.014,0.1,-0.41,0.89,1.65,-4.7,0.79
2026-08-03 12:38:38.015,0.1,-0.41,0.89,1.28,-3.91,2.2
2026-08-03 12:38:38.015,0.1,-0.41,0.89,1.28,-3.91,2.2
2026-08-03 12:38:38.016,0.1,-0.4,0.89,1.16,-3.6,3.17
2026-08-03 12:38:38.017,0.1,-0.4,0.89,1.16,-3.6,3.17
2026-08-03 12:38:38.017,0.11,-0.4,0.89,0.85,-3.3,2.99
2026-08-03 12:38:38.017,0.11,-0.4,0.89,0.85,-3.3,2.99
2026-08-03 12:38:38.018,0.11,-0.4,0.89,0.37,-2.56,2.32
2026-08-03 12:38:38.018,0.11,-0.4,0.89,0.37,-2.56,2.32
2026-08-03 12:38:38.430,0.11,-0.4,0.89,0.31,-1.89,1.53
2026-08-03 12:38:38.430,0.11,-0.4,0.89,0.79,-1.53,0.79
2026-08-03 12:38:38.431,0.11,-0.4,0.89,0.79,-1.53,0.79
2026-08-03 12:38:38.431,0.11,-0.4,0.89,1.59,-1.04,0.18
2026-08-03 12:38:38.431,0.11,-0.4,0.89,1.59,-1.04,0.18
2026-08-03 12:38:38.432,0.11,-0.4,0.89,2.14,-0.67,-0.37
2026-08-03 12:38:38.432,0.11,-0.4,0.89,2.14,-0.67,-0.37
2026-08-03 12:38:38.432,0.11,-0.4,0.89,1.89,-0.55,-1.22
2026-08-03 12:38:38.433,0.11,-0.4,0.89,1.89,-0.55,-1.22
2026-08-03 12:38:38.433,0.11,-0.4,0.89,1.1,-0.43,-1.53
2026-08-03 12:38:38.434,0.11,-0.4,0.89,1.1,-0.43,-1.53
2026-08-03 12:38:38.492,0.11,-0.4,0.89,0.79,-0.37,-0.37
2026-08-03 12:38:38.493,0.11,-0.4,0.89,1.1,-0.55,1.46
2026-08-03 12:38:38.493,0.11,-0.4,0.89,1.1,-0.55,1.46
2026-08-03 12:38:38.493,0.11,-0.4,0.89,1.59,-0.73,2.62
2026-08-03 12:38:38.494,0.11,-0.4,0.89,1.59,-0.73,2.62
2026-08-03 12:38:38.494,0.11,-0.39,0.89,1.59,-0.79,2.01
2026-08-03 12:38:38.495,0.11,-0.39,0.89,1.59,-0.79,2.01
2026-08-03 12:38:38.495,0.11,-0.4,0.89,1.34,-0.79,0.85
2026-08-03 12:38:38.495,0.11,-0.4,0.89,1.34,-0.79,0.85
2026-08-03 12:38:38.496,0.11,-0.4,0.89,1.22,-0.85,0.67
2026-08-03 12:38:38.496,0.11,-0.4,0.89,1.22,-0.85,0.67
2026-08-03 12:38:39.456,0.11,-0.4,0.89,1.16,-0.85,0.98
2026-08-03 12:38:39.457,0.11,-0.4,0.89,0.85,-0.61,0.85
2026-08-03 12:38:39.457,0.11,-0.4,0.89,0.85,-0.61,0.85
2026-08-03 12:38:39.458,0.11,-0.39,0.89,0.67,-0.12,0.55
2026-08-03 12:38:39.458,0.11,-0.39,0.89,0.67,-0.12,0.55
2026-08-03 12:38:39.459,0.11,-0.39,0.89,0.67,0.18,0.31
2026-08-03 12:38:39.459,0.11,-0.39,0.89,0.67,0.18,0.31
2026-08-03 12:38:39.460,0.11,-0.39,0.89,0.92,0.12,0.18
2026-08-03 12:38:39.460,0.11,-0.39,0.89,0.92,0.12,0.18
2026-08-03 12:38:39.460,0.11,-0.39,0.89,1.1,0.0,0.0
2026-08-03 12:38:39.461,0.11,-0.39,0.89,1.1,0.0,0.0
2026-08-03 12:38:39.461,0.11,-0.39,0.89,1.16,0.0,-0.12
2026-08-03 12:38:39.461,0.11,-0.39,0.89,1.16,0.0,-0.12
2026-08-03 12:38:39.461,0.11,-0.39,0.89,1.22,0.06,0.0
2026-08-03 12:38:39.462,0.11,-0.39,0.89,1.28,0.12,0.24
2026-08-03 12:38:39.462,0.11,-0.39,0.89,1.28,0.12,0.24
2026-08-03 12:38:39.463,0.11,-0.39,0.89,1.34,0.12,0.49
2026-08-03 12:38:39.463,0.11,-0.39,0.89,1.34,0.12,0.49
2026-08-03 12:38:39.464,0.11,-0.39,0.89,1.46,-0.06,0.55
2026-08-03 12:38:39.465,0.11,-0.39,0.89,1.46,-0.06,0.55
2026-08-03 12:38:39.465,0.11,-0.39,0.89,1.53,-0.24,0.92
2026-08-03 12:38:39.468,0.11,-0.39,0.89,1.53,-0.24,0.92
2026-08-03 12:38:39.468,0.11,-0.39,0.89,1.65,-0.43,1.71
2026-08-03 12:38:39.469,0.11,-0.39,0.89,1.65,-0.43,1.71
2026-08-03 12:38:39.469,0.11,-0.39,0.89,1.95,-0.43,2.75
2026-08-03 12:38:39.470,0.11,-0.39,0.89,1.95,-0.43,2.75
2026-08-03 12:38:39.471,0.11,-0.38,0.89,2.26,-0.37,2.87
2026-08-03 12:38:39.471,0.11,-0.38,0.89,1.83,-0.12,1.83
2026-08-03 12:38:39.472,0.11,-0.38,0.89,1.83,-0.12,1.83
2026-08-03 12:38:39.473,0.11,-0.38,0.89,1.04,0.55,0.85
2026-08-03 12:38:39.473,0.11,-0.38,0.89,1.04,0.55,0.85
2026-08-03 12:38:39.473,0.11,-0.39,0.9,0.49,1.34,0.55
2026-08-03 12:38:39.474,0.11,-0.39,0.9,0.49,1.34,0.55
2026-08-03 12:38:39.474,0.11,-0.39,0.9,0.55,1.77,1.22
2026-08-03 12:38:39.475,0.11,-0.39,0.9,0.55,1.77,1.22
2026-08-03 12:38:39.478,0.1,-0.39,0.9,1.04,1.71,2.2
2026-08-03 12:38:39.478,0.1,-0.39,0.9,1.04,1.71,2.2
2026-08-03 12:38:39.479,0.1,-0.39,0.9,1.04,1.71,2.2
2026-08-03 12:38:39.479,0.1,-0.39,0.9,1.04,1.71,2.2
2026-08-03 12:38:39.480,0.1,-0.38,0.9,1.4,1.34,2.62
2026-08-03 12:38:39.481,0.1,-0.38,0.9,1.4,1.34,2.62
2026-08-03 12:38:39.481,0.1,-0.38,0.9,1.34,1.22,2.62
2026-08-03 12:38:39.481,0.1,-0.38,0.9,1.34,1.22,2.62
2026-08-03 12:38:39.484,0.1,-0.38,0.9,1.4,1.1,2.56
2026-08-03 12:38:39.485,0.1,-0.38,0.9,1.4,1.1,2.2
2026-08-03 12:38:39.630,0.1,-0.38,0.9,1.4,1.1,2.2
2026-08-03 12:38:39.631,0.09,-0.38,0.9,1.4,1.22,2.01
2026-08-03 12:38:39.631,0.09,-0.38,0.9,1.4,1.22,2.01
2026-08-03 12:38:39.632,0.09,-0.38,0.9,1.4,1.28,2.56
2026-08-03 12:38:39.632,0.09,-0.38,0.9,1.4,1.28,2.56
2026-08-03 12:38:39.632,0.09,-0.39,0.9,1.46,1.28,4.15
2026-08-03 12:38:39.638,0.09,-0.39,0.9,1.46,1.28,4.15
2026-08-03 12:38:39.638,0.08,-0.39,0.9,1.95,0.79,9.28
2026-08-03 12:38:39.691,0.05,-0.37,0.91,4.09,-1.4,24.66
2026-08-03 12:38:39.692,0.05,-0.37,0.91,4.09,-1.4,24.66
2026-08-03 12:38:39.870,0.05,-0.36,0.92,5.68,-8.97,51.88
2026-08-03 12:38:39.991,0.05,-0.36,0.92,5.68,-8.97,51.88
2026-08-03 12:38:39.991,0.07,-0.38,0.92,2.87,-22.28,72.88
2026-08-03 12:38:39.992,0.07,-0.38,0.92,2.87,-22.28,72.88
2026-08-03 12:38:39.992,0.1,-0.4,0.89,3.3,-33.2,69.4
2026-08-03 12:38:39.993,0.1,-0.4,0.89,3.3,-33.2,69.4
2026-08-03 12:38:39.994,0.11,-0.38,0.87,10.62,-31.98,44.19
2026-08-03 12:38:39.994,0.1,-0.35,0.9,15.08,-21.67,13.43
2026-08-03 12:38:39.995,0.1,-0.35,0.9,15.08,-21.67,13.43
2026-08-03 12:38:39.995,0.09,-0.34,0.92,13.06,-13.67,-2.93
2026-08-03 12:38:39.995,0.09,-0.34,0.92,13.06,-13.67,-2.93
2026-08-03 12:38:39.995,0.1,-0.33,0.92,8.36,-11.72,-0.24
2026-08-03 12:38:39.996,0.1,-0.33,0.92,8.36,-11.72,-0.24
2026-08-03 12:38:39.996,0.12,-0.35,0.9,3.48,-13.06,7.14
2026-08-03 12:38:40.292,0.12,-0.35,0.9,3.48,-13.06,7.14
2026-08-03 12:38:40.293,0.13,-0.37,0.89,0.24,-11.54,6.16
2026-08-03 12:38:40.469,0.13,-0.38,0.89,0.31,-3.17,-3.48
2026-08-03 12:38:40.471,0.13,-0.38,0.89,0.31,-3.17,-3.48
2026-08-03 12:38:40.471,0.13,-0.37,0.89,1.4,7.81,-16.05
2026-08-03 12:38:40.471,0.13,-0.37,0.89,1.4,7.81,-16.05
2026-08-03 12:38:40.472,0.13,-0.36,0.9,-0.67,15.2,-26.12
2026-08-03 12:38:40.472,0.13,-0.36,0.9,-0.67,15.2,-26.12
2026-08-03 12:38:40.473,0.12,-0.37,0.9,-6.53,19.29,-31.8
2026-08-03 12:38:40.473,0.12,-0.37,0.9,-6.53,19.29,-31.8
2026-08-03 12:38:40.474,0.09,-0.37,0.92,-11.9,23.86,-34.12
2026-08-03 12:38:40.474,0.07,-0.35,0.93,-11.6,26.49,-29.66
2026-08-03 12:38:40.475,0.07,-0.35,0.93,-11.6,26.49,-29.66
2026-08-03 12:38:40.475,0.07,-0.34,0.92,-5.31,22.4,-17.7
2026-08-03 12:38:40.476,0.07,-0.34,0.92,-5.31,22.4,-17.7
2026-08-03 12:38:40.476,0.08,-0.35,0.91,2.2,13.43,-6.65
2026-08-03 12:38:40.477,0.08,-0.35,0.91,2.2,13.43,-6.65
2026-08-03 12:38:40.477,0.08,-0.35,0.91,7.2,4.94,-0.06
2026-08-03 12:38:40.478,0.08,-0.35,0.91,7.2,4.94,-0.06
2026-08-03 12:38:40.478,0.08,-0.34,0.91,8.97,0.31,3.72
2026-08-03 12:38:40.479,0.08,-0.34,0.91,7.32,-0.43,4.46
2026-08-03 12:38:40.548,0.08,-0.34,0.91,7.32,-0.43,4.46
2026-08-03 12:38:40.565,0.08,-0.34,0.92,4.09,0.79,2.69
2026-08-03 12:38:40.566,0.08,-0.34,0.92,4.09,0.79,2.69
2026-08-03 12:38:40.590,0.08,-0.34,0.91,1.95,1.59,0.43
2026-08-03 12:38:40.591,0.08,-0.34,0.91,1.95,1.59,0.43
2026-08-03 12:38:41.017,0.07,-0.34,0.91,1.34,0.98,-0.85
2026-08-03 12:38:41.018,0.07,-0.34,0.91,1.34,0.98,-0.85
2026-08-03 12:38:41.018,0.07,-0.34,0.92,1.28,0.0,-0.61
2026-08-03 12:38:41.019,0.07,-0.34,0.92,1.28,0.0,-0.61
2026-08-03 12:38:41.020,0.07,-0.34,0.92,1.16,-0.49,0.31
2026-08-03 12:38:41.021,0.07,-0.34,0.92,0.98,-0.24,0.98
2026-08-03 12:38:41.021,0.07,-0.34,0.92,0.98,-0.24,0.98
2026-08-03 12:38:41.021,0.08,-0.34,0.92,0.67,-0.18,1.28
2026-08-03 12:38:41.021,0.08,-0.34,0.92,0.67,-0.18,1.28
2026-08-03 12:38:41.022,0.08,-0.34,0.92,0.18,-0.55,1.59
2026-08-03 12:38:41.023,0.08,-0.34,0.92,0.18,-0.55,1.59
2026-08-03 12:38:41.023,0.08,-0.34,0.92,-0.43,-0.92,1.53
2026-08-03 12:38:41.024,0.08,-0.34,0.92,-0.43,-0.92,1.53
2026-08-03 12:38:41.025,0.08,-0.34,0.92,-0.61,-0.98,1.22
2026-08-03 12:38:41.025,0.08,-0.34,0.92,-0.61,-0.98,1.22
2026-08-03 12:38:41.025,0.08,-0.35,0.92,-0.12,-0.61,1.46
2026-08-03 12:38:41.025,0.08,-0.35,0.92,-0.12,-0.61,1.46
2026-08-03 12:38:41.026,0.08,-0.35,0.92,0.73,0.06,2.32
2026-08-03 12:38:41.026,0.08,-0.35,0.92,1.83,0.79,3.17
2026-08-03 12:38:41.026,0.07,-0.34,0.92,1.83,0.79,3.17
2026-08-03 12:38:41.190,0.07,-0.34,0.92,2.69,1.34,3.11
2026-08-03 12:38:41.191,0.07,-0.34,0.92,2.69,1.34,3.11
2026-08-03 12:38:41.193,0.07,-0.33,0.92,2.99,1.22,2.14
2026-08-03 12:38:41.193,0.07,-0.33,0.92,2.99,1.22,2.14
2026-08-03 12:38:41.194,0.07,-0.33,0.92,2.62,0.67,0.55
2026-08-03 12:38:41.257,0.07,-0.33,0.92,2.62,0.67,0.55
2026-08-03 12:38:41.257,0.07,-0.33,0.92,1.89,0.31,-0.67
2026-08-03 12:38:41.258,0.07,-0.33,0.92,1.89,0.31,-0.67
2026-08-03 12:38:41.259,0.07,-0.33,0.92,1.4,0.43,-0.98
2026-08-03 12:38:41.259,0.07,-0.33,0.92,1.4,0.43,-0.98
2026-08-03 12:38:41.259,0.07,-0.33,0.92,1.4,0.43,-0.98
2026-08-03 12:38:41.370,0.07,-0.33,0.92,1.4,0.43,-0.98
2026-08-03 12:38:41.371,0.07,-0.33,0.92,0.85,0.37,-0.12
2026-08-03 12:38:41.372,0.07,-0.33,0.92,0.85,-0.06,0.37
2026-08-03 12:38:41.372,0.07,-0.33,0.92,0.85,-0.06,0.37
2026-08-03 12:38:41.372,0.08,-0.33,0.92,0.85,-0.49,0.18
2026-08-03 12:38:41.910,0.08,-0.33,0.92,0.85,-0.49,0.18
2026-08-03 12:38:41.911,0.08,-0.33,0.92,0.92,-0.85,-0.06
2026-08-03 12:38:41.912,0.08,-0.33,0.92,0.92,-0.85,-0.06
2026-08-03 12:38:41.914,0.07,-0.33,0.92,0.98,-0.79,-0.31
2026-08-03 12:38:41.915,0.07,-0.33,0.92,0.98,-0.79,-0.31
2026-08-03 12:38:41.915,0.07,-0.33,0.92,0.73,-0.55,-0.67
2026-08-03 12:38:41.915,0.07,-0.33,0.92,0.73,-0.55,-0.67
2026-08-03 12:38:41.916,0.07,-0.33,0.92,0.61,-0.37,-0.79
2026-08-03 12:38:41.916,0.07,-0.33,0.92,0.67,0.24,-1.1
2026-08-03 12:38:41.916,0.07,-0.33,0.92,0.67,0.24,-1.1
2026-08-03 12:38:41.917,0.07,-0.32,0.92,0.37,0.98,-4.21
2026-08-03 12:38:41.917,0.07,-0.32,0.92,0.37,0.98,-4.21
2026-08-03 12:38:41.917,0.08,-0.32,0.92,-1.22,0.61,-10.31
2026-08-03 12:38:41.918,0.08,-0.32,0.92,-1.22,0.61,-10.31
2026-08-03 12:38:41.918,0.08,-0.33,0.92,-3.05,-0.67,-14.89
2026-08-03 12:38:41.969,0.08,-0.33,0.92,-3.05,-0.67,-14.89
2026-08-03 12:38:41.970,0.09,-0.34,0.92,-3.42,-1.4,-14.53
2026-08-03 12:38:41.971,0.09,-0.34,0.92,-3.42,-1.4,-14.53
2026-08-03 12:38:41.971,0.09,-0.34,0.92,-2.32,-0.73,-10.44
2026-08-03 12:38:41.972,0.09,-0.34,0.92,-0.49,0.85,-5.31
2026-08-03 12:38:41.973,0.09,-0.34,0.92,-0.49,0.85,-5.31
2026-08-03 12:38:41.974,0.09,-0.33,0.92,1.1,2.01,-1.59
2026-08-03 12:38:41.974,0.09,-0.33,0.92,1.1,2.01,-1.59
2026-08-03 12:38:41.975,0.09,-0.33,0.92,1.77,1.89,0.0
2026-08-03 12:38:41.976,0.09,-0.33,0.92,1.77,1.89,0.0
2026-08-03 12:38:41.977,0.08,-0.33,0.92,1.59,1.16,0.92
2026-08-03 12:38:41.977,0.08,-0.33,0.92,1.59,1.16,0.92
2026-08-03 12:38:42.029,0.08,-0.33,0.92,0.67,1.1,2.69
2026-08-03 12:38:42.030,0.08,-0.33,0.92,0.67,1.1,2.69
2026-08-03 12:38:42.031,0.07,-0.31,0.92,0.06,1.04,6.41
2026-08-03 12:38:42.100,0.07,-0.31,0.92,-0.12,-0.43,13.24
2026-08-03 12:38:42.109,0.07,-0.31,0.92,-0.12,-0.43,13.24
2026-08-03 12:38:42.113,0.08,-0.34,0.92,-2.5,-2.44,16.91
2026-08-03 12:38:42.155,0.08,-0.34,0.92,-2.5,-2.44,16.91
2026-08-03 12:38:42.156,0.08,-0.36,0.92,-4.7,-3.72,11.35
2026-08-03 12:38:42.157,0.08,-0.36,0.92,-4.7,-3.72,11.35
2026-08-03 12:38:42.210,0.08,-0.35,0.92,-4.7,-3.78,2.14
2026-08-03 12:38:42.210,0.08,-0.35,0.92,-4.7,-3.78,2.14
2026-08-03 12:38:42.211,0.08,-0.34,0.92,-7.45,-1.77,-3.85
2026-08-03 12:38:42.270,0.08,-0.34,0.92,-7.45,-1.77,-3.85
2026-08-03 12:38:42.271,0.08,-0.34,0.92,-7.45,-1.77,-3.85
2026-08-03 12:38:42.271,0.08,-0.34,0.92,-7.45,-1.77,-3.85
2026-08-03 12:38:42.330,0.07,-0.4,0.91,-12.94,8.42,3.66
2026-08-03 12:38:42.331,0.07,-0.4,0.91,-12.94,8.42,3.66
2026-08-03 12:38:42.416,0.06,-0.38,0.89,-4.52,10.44,13.31
2026-08-03 12:38:42.417,0.07,-0.36,0.89,3.17,8.12,14.22
2026-08-03 12:38:42.417,0.07,-0.36,0.89,3.17,8.12,14.22
2026-08-03 12:38:42.450,0.07,-0.36,0.89,5.25,3.11,5.92
2026-08-03 12:38:42.451,0.07,-0.36,0.89,5.25,3.11,5.92
2026-08-03 12:38:42.451,0.06,-0.36,0.91,4.82,-1.16,-3.17
2026-08-03 12:38:42.513,0.06,-0.36,0.91,4.82,-1.16,-3.17
2026-08-03 12:38:42.514,0.06,-0.36,0.92,4.33,-2.5,-7.51
2026-08-03 12:38:42.515,0.06,-0.36,0.92,4.33,-2.5,-7.51
2026-08-03 12:38:42.630,0.06,-0.36,0.92,4.15,-2.01,-6.71
2026-08-03 12:38:42.631,0.06,-0.36,0.92,4.21,-1.4,-4.33
2026-08-03 12:38:42.632,0.06,-0.36,0.92,4.21,-1.4,-4.33
2026-08-03 12:38:42.632,0.06,-0.35,0.92,4.52,-1.04,-1.89
2026-08-03 12:38:42.632,0.06,-0.35,0.92,4.52,-1.04,-1.89
2026-08-03 12:38:42.705,0.07,-0.35,0.92,4.82,-0.85,0.37
2026-08-03 12:38:42.707,0.07,-0.35,0.92,4.82,-0.85,0.37
2026-08-03 12:38:42.712,0.07,-0.34,0.92,5.19,-0.73,1.65
2026-08-03 12:38:42.750,0.07,-0.34,0.92,5.19,-0.73,1.65
2026-08-03 12:38:42.751,0.07,-0.34,0.92,5.37,-0.55,2.01
2026-08-03 12:38:42.752,0.07,-0.34,0.92,5.37,-0.55,2.01
2026-08-03 12:38:42.810,0.07,-0.34,0.92,5.13,-0.49,1.95
2026-08-03 12:38:42.869,0.06,-0.34,0.92,5.07,-0.79,2.32
2026-08-03 12:38:42.870,0.06,-0.34,0.92,5.07,-0.79,2.32
2026-08-03 12:38:42.871,0.06,-0.33,0.92,5.49,-1.34,4.27
2026-08-03 12:38:42.871,0.06,-0.33,0.92,5.49,-1.34,4.27
2026-08-03 12:38:42.930,0.06,-0.32,0.93,6.1,-1.89,7.08
2026-08-03 12:38:42.930,0.06,-0.32,0.93,6.1,-1.89,7.08
2026-08-03 12:38:42.930,0.06,-0.31,0.93,6.65,-1.34,8.54
2026-08-03 12:38:43.008,0.06,-0.31,0.93,6.65,-1.34,8.54
2026-08-03 12:38:43.014,0.06,-0.31,0.93,6.29,-0.24,7.75
2026-08-03 12:38:43.052,0.06,-0.31,0.93,6.29,-0.24,7.75
2026-08-03 12:38:43.052,0.06,-0.31,0.93,5.13,-0.31,6.29
2026-08-03 12:38:43.053,0.06,-0.31,0.93,4.58,-1.1,6.04
2026-08-03 12:38:43.111,0.06,-0.31,0.93,4.58,-1.1,6.04
2026-08-03 12:38:43.112,0.06,-0.3,0.93,5.13,-1.16,5.62
2026-08-03 12:38:43.112,0.06,-0.3,0.93,5.13,-1.16,5.62
2026-08-03 12:38:43.171,0.06,-0.3,0.93,5.68,-1.1,3.66
2026-08-03 12:38:43.172,0.06,-0.3,0.93,5.68,-1.1,3.66
2026-08-03 12:38:43.230,0.06,-0.3,0.93,5.25,-2.08,1.89
2026-08-03 12:38:43.231,0.06,-0.3,0.93,5.25,-2.08,1.89
2026-08-03 12:38:43.231,0.06,-0.3,0.93,4.39,-2.99,1.65
2026-08-03 12:38:43.305,0.06,-0.3,0.93,3.72,-3.11,1.83
2026-08-03 12:38:43.305,0.06,-0.3,0.93,3.72,-3.11,1.83
2026-08-03 12:38:43.312,0.06,-0.29,0.93,3.36,-2.99,1.22
2026-08-03 12:38:43.355,0.06,-0.29,0.93,3.36,-2.99,1.22
2026-08-03 12:38:43.355,0.06,-0.29,0.93,3.3,-2.87,0.43
2026-08-03 12:38:43.411,0.06,-0.29,0.93,3.3,-2.87,0.43
2026-08-03 12:38:43.412,0.07,-0.29,0.94,3.91,-2.62,0.12
2026-08-03 12:38:43.413,0.07,-0.29,0.94,3.91,-2.62,0.12
2026-08-03 12:38:43.471,0.07,-0.29,0.94,3.91,-2.62,0.12
2026-08-03 12:38:43.471,0.07,-0.29,0.94,3.91,-2.62,0.12
2026-08-03 12:38:43.472,0.07,-0.28,0.94,7.32,-1.89,2.75
2026-08-03 12:38:43.530,0.07,-0.28,0.94,7.32,-1.89,2.75
2026-08-03 12:38:43.530,0.07,-0.27,0.93,8.48,-2.75,2.62
2026-08-03 12:38:43.531,0.08,-0.26,0.94,8.36,-5.31,-2.08
2026-08-03 12:38:43.650,0.08,-0.26,0.94,8.36,-5.31,-2.08
2026-08-03 12:38:43.650,0.08,-0.27,0.95,7.14,-6.9,-7.57
2026-08-03 12:38:43.651,0.08,-0.27,0.95,7.14,-6.9,-7.57
2026-08-03 12:38:43.652,0.09,-0.27,0.95,5.86,-5.55,-7.87
2026-08-03 12:38:43.652,0.09,-0.27,0.95,5.86,-5.55,-7.87
2026-08-03 12:38:43.712,0.09,-0.26,0.95,4.21,-2.99,-4.52
2026-08-03 12:38:43.713,0.09,-0.26,0.95,4.21,-2.99,-4.52
2026-08-03 12:38:43.714,0.09,-0.25,0.94,1.4,-1.34,-2.32
2026-08-03 12:38:43.775,0.09,-0.25,0.94,-2.87,-0.73,-2.87
2026-08-03 12:38:43.791,0.09,-0.25,0.94,-2.87,-0.73,-2.87
2026-08-03 12:38:43.792,0.09,-0.26,0.94,-6.41,-0.55,-4.21
2026-08-03 12:38:43.830,0.09,-0.26,0.94,-6.41,-0.55,-4.21
2026-08-03 12:38:43.830,0.09,-0.27,0.94,-7.63,-0.55,-5.13
2026-08-03 12:38:43.890,0.09,-0.27,0.94,-7.63,-0.55,-5.13
2026-08-03 12:38:43.890,0.09,-0.29,0.93,-7.14,-0.98,-3.85
2026-08-03 12:38:43.890,0.09,-0.29,0.93,-7.14,-0.98,-3.85
2026-08-03 12:38:43.955,0.09,-0.3,0.94,-5.13,-2.14,3.05
2026-08-03 12:38:43.955,0.09,-0.3,0.94,-5.13,-2.14,3.05
2026-08-03 12:38:43.956,0.09,-0.3,0.94,-5.13,-2.14,3.05
2026-08-03 12:38:44.011,0.09,-0.3,0.94,-5.13,-2.14,3.05
2026-08-03 12:38:44.011,0.09,-0.28,0.94,1.53,-2.14,27.53
2026-08-03 12:38:44.011,0.09,-0.28,0.94,1.53,-2.14,27.53
2026-08-03 12:38:44.069,0.09,-0.28,0.94,1.46,0.49,27.65
2026-08-03 12:38:44.069,0.08,-0.28,0.94,1.71,2.26,22.58
2026-08-03 12:38:44.070,0.08,-0.28,0.94,1.71,2.26,22.58
2026-08-03 12:38:44.129,0.07,-0.28,0.93,2.56,2.38,17.88
2026-08-03 12:38:44.130,0.07,-0.28,0.93,2.56,2.38,17.88
2026-08-03 12:38:44.189,0.07,-0.28,0.93,2.62,1.65,16.48
2026-08-03 12:38:44.190,0.07,-0.28,0.93,2.62,1.65,16.48
2026-08-03 12:38:44.190,0.07,-0.27,0.94,1.22,1.34,14.83
2026-08-03 12:38:44.258,0.07,-0.27,0.94,1.22,1.34,14.83
2026-08-03 12:38:44.258,0.07,-0.27,0.94,-2.62,2.01,8.42
2026-08-03 12:38:44.310,0.06,-0.29,0.94,-5.74,2.62,1.71
2026-08-03 12:38:44.310,0.06,-0.29,0.94,-5.74,2.62,1.71
2026-08-03 12:38:44.310,0.06,-0.29,0.94,-5.68,2.87,-1.28
2026-08-03 12:38:44.369,0.06,-0.29,0.94,-5.68,2.87,-1.28
2026-08-03 12:38:44.369,0.06,-0.3,0.93,-3.91,3.42,-2.14
2026-08-03 12:38:44.370,0.06,-0.3,0.93,-3.91,3.42,-2.14
2026-08-03 12:38:44.435,0.06,-0.29,0.93,-2.62,3.78,-3.36
2026-08-03 12:38:44.437,0.06,-0.29,0.93,-2.62,3.78,-3.36
2026-08-03 12:38:44.437,0.06,-0.3,0.93,-2.75,3.48,-4.82
2026-08-03 12:38:44.490,0.06,-0.3,0.94,-2.93,3.42,-5.07
2026-08-03 12:38:44.491,0.06,-0.3,0.94,-2.93,3.42,-5.07
2026-08-03 12:38:44.550,0.05,-0.31,0.93,-2.44,4.03,-3.78
2026-08-03 12:38:44.551,0.05,-0.31,0.93,-2.44,4.03,-3.78
2026-08-03 12:38:44.551,0.05,-0.31,0.92,-1.4,3.91,-1.89
2026-08-03 12:38:44.610,0.05,-0.31,0.92,-1.4,3.91,-1.89
2026-08-03 12:38:44.610,0.05,-0.3,0.92,-0.49,1.34,-1.95
2026-08-03 12:38:44.611,0.05,-0.3,0.92,-0.49,1.34,-1.95
2026-08-03 12:38:44.736,0.05,-0.29,0.93,-1.1,-2.5,-7.08
2026-08-03 12:38:44.736,0.05,-0.29,0.93,-3.54,-3.11,-14.53
2026-08-03 12:38:44.737,0.06,-0.3,0.94,-3.54,-3.11,-14.53
2026-08-03 12:38:44.738,0.07,-0.32,0.96,-5.92,1.65,-17.46
2026-08-03 12:38:44.738,0.07,-0.32,0.96,-5.92,1.65,-17.46
2026-08-03 12:38:44.790,0.07,-0.33,0.96,-7.57,8.18,-13.55
2026-08-03 12:38:44.791,0.07,-0.33,0.96,-7.57,8.18,-13.55
2026-08-03 12:38:44.792,0.06,-0.33,0.94,-10.25,10.62,-6.04
2026-08-03 12:38:44.850,0.06,-0.33,0.94,-10.25,10.62,-6.04
2026-08-03 12:38:44.851,0.05,-0.33,0.92,-13.49,8.06,-0.85
2026-08-03 12:38:44.853,0.05,-0.33,0.92,-16.42,3.11,-2.87
2026-08-03 12:38:44.910,0.05,-0.34,0.9,-16.42,3.11,-2.87
2026-08-03 12:38:44.910,0.04,-0.34,0.89,-17.76,-1.53,-10.38
2026-08-03 12:38:44.987,0.04,-0.34,0.89,-17.76,-1.53,-10.38
2026-08-03 12:38:44.994,0.03,-0.33,0.87,-16.36,-2.38,-19.59
2026-08-03 12:38:44.994,0.03,-0.33,0.87,-16.36,-2.38,-19.59
2026-08-03 12:38:45.030,0.04,-0.34,0.87,-14.16,2.14,-28.69
2026-08-03 12:38:45.031,0.04,-0.34,0.87,-14.16,2.14,-28.69
2026-08-03 12:38:45.031,0.06,-0.39,0.88,-13.06,7.81,-32.35
2026-08-03 12:38:45.095,0.09,-0.44,0.89,-12.15,9.22,-25.27
2026-08-03 12:38:45.096,0.09,-0.44,0.89,-12.15,9.22,-25.27
2026-08-03 12:38:45.150,0.09,-0.43,0.9,-8.36,6.35,-9.52
2026-08-03 12:38:45.151,0.09,-0.43,0.9,-8.36,6.35,-9.52
2026-08-03 12:38:45.151,0.08,-0.39,0.9,-2.14,2.81,3.85
2026-08-03 12:38:45.210,0.08,-0.39,0.9,-2.14,2.81,3.85
2026-08-03 12:38:45.210,0.05,-0.34,0.9,1.59,0.0,3.85
2026-08-03 12:38:45.211,0.05,-0.34,0.9,1.59,0.0,3.85
2026-08-03 12:38:45.295,0.05,-0.34,0.89,1.04,-1.77,-9.52
2026-08-03 12:38:45.295,0.05,-0.34,0.89,-0.43,-2.56,-24.9
2026-08-03 12:38:45.330,0.09,-0.38,0.89,-0.43,-2.56,-24.9
2026-08-03 12:38:45.331,0.12,-0.4,0.91,0.31,-3.91,-30.52
2026-08-03 12:38:45.332,0.12,-0.4,0.91,0.31,-3.91,-30.52
2026-08-03 12:38:45.390,0.13,-0.38,0.92,1.59,-7.45,-25.51
2026-08-03 12:38:45.391,0.13,-0.38,0.92,1.59,-7.45,-25.51
2026-08-03 12:38:45.451,0.12,-0.36,0.91,-0.79,-11.47,-20.94
2026-08-03 12:38:45.452,0.13,-0.38,0.89,-6.41,-13.98,-24.11
2026-08-03 12:38:45.452,0.13,-0.38,0.89,-6.41,-13.98,-24.11
2026-08-03 12:38:45.510,0.16,-0.4,0.88,-10.8,-15.5,-28.93
2026-08-03 12:38:45.510,0.16,-0.4,0.88,-10.8,-15.5,-28.93
2026-08-03 12:38:45.511,0.18,-0.4,0.89,-12.21,-16.91,-28.56
2026-08-03 12:38:45.592,0.18,-0.4,0.89,-12.21,-16.91,-28.56
2026-08-03 12:38:45.601,0.19,-0.4,0.88,-12.21,-17.21,-27.59
2026-08-03 12:38:45.635,0.19,-0.4,0.88,-11.54,-16.24,-30.88
2026-08-03 12:38:45.636,0.2,-0.4,0.86,-11.54,-16.24,-30.88
2026-08-03 12:38:45.637,0.22,-0.4,0.84,-10.07,-15.26,-36.8
2026-08-03 12:38:45.692,0.22,-0.4,0.84,-10.07,-15.26,-36.8
2026-08-03 12:38:45.693,0.25,-0.4,0.84,-9.03,-15.44,-41.63
2026-08-03 12:38:45.694,0.25,-0.4,0.84,-9.03,-15.44,-41.63
2026-08-03 12:38:45.750,0.28,-0.39,0.84,-9.28,-18.49,-44.07
2026-08-03 12:38:45.751,0.28,-0.39,0.84,-9.28,-18.49,-44.07
2026-08-03 12:38:45.810,0.31,-0.39,0.84,-10.74,-24.23,-47.36
2026-08-03 12:38:45.811,0.34,-0.39,0.84,-13.67,-29.79,-53.22
2026-08-03 12:38:45.811,0.34,-0.39,0.84,-13.67,-29.79,-53.22
2026-08-03 12:38:45.888,0.36,-0.41,0.86,-19.04,-31.8,-58.65
2026-08-03 12:38:45.902,0.36,-0.41,0.86,-19.04,-31.8,-58.65
2026-08-03 12:38:45.932,0.36,-0.46,0.88,-31.62,-26.31,-59.69
2026-08-03 12:38:45.932,0.36,-0.46,0.88,-31.62,-26.31,-59.69
2026-08-03 12:38:45.933,0.4,-0.48,0.85,-49.07,-13.49,-49.74
2026-08-03 12:38:45.991,0.44,-0.46,0.79,-48.95,-6.96,-22.46
2026-08-03 12:38:45.992,0.44,-0.46,0.79,-48.95,-6.96,-22.46
2026-08-03 12:38:45.993,0.39,-0.42,0.8,-22.28,-16.11,15.01
2026-08-03 12:38:46.052,0.39,-0.42,0.8,-22.28,-16.11,15.01
2026-08-03 12:38:46.052,0.25,-0.39,0.9,10.56,-31.25,45.04
2026-08-03 12:38:46.053,0.25,-0.39,0.9,10.56,-31.25,45.04
2026-08-03 12:38:46.110,0.08,-0.34,1.01,48.46,-39.31,79.22
2026-08-03 12:38:46.183,0.05,-0.17,1.06,111.39,-36.99,147.09
2026-08-03 12:38:46.210,0.05,-0.17,1.06,111.39,-36.99,147.09
2026-08-03 12:38:46.211,0.12,0.06,1.07,176.88,-31.8,214.72
2026-08-03 12:38:46.211,0.12,0.06,1.07,176.88,-31.8,214.72
2026-08-03 12:38:46.230,0.14,0.24,1.05,197.02,-25.33,216.92
2026-08-03 12:38:46.231,0.14,0.24,1.05,197.02,-25.33,216.92
2026-08-03 12:38:46.291,0.13,0.28,1.03,184.45,-12.21,159.79
2026-08-03 12:38:46.292,0.14,0.15,1.05,166.44,4.15,78.19
2026-08-03 12:38:46.292,0.14,0.15,1.05,166.44,4.15,78.19
2026-08-03 12:38:46.361,0.2,-0.03,1.09,129.33,12.15,-3.66
2026-08-03 12:38:46.362,0.2,-0.03,1.09,129.33,12.15,-3.66
2026-08-03 12:38:46.410,0.3,-0.14,1.1,87.22,0.79,-38.51
2026-08-03 12:38:46.411,0.3,-0.14,1.1,87.22,0.79,-38.51
2026-08-03 12:38:46.411,0.43,-0.26,1.11,74.58,-22.28,-22.22
2026-08-03 12:38:46.470,0.43,-0.26,1.11,40.1,-34.06,-55.85
2026-08-03 12:38:46.470,0.45,-0.69,1.16,40.1,-34.06,-55.85
2026-08-03 12:38:46.471,0.39,-1.08,1.09,-57.68,-17.03,-165.04
2026-08-03 12:38:46.531,0.39,-1.08,1.09,-57.68,-17.03,-165.04
2026-08-03 12:38:46.532,0.36,-0.88,0.92,-101.38,8.06,-197.14
2026-08-03 12:38:46.590,0.36,-0.88,0.92,-101.38,8.06,-197.14
2026-08-03 12:38:46.591,0.34,-0.38,0.86,-44.13,10.07,-101.62
2026-08-03 12:38:46.591,0.34,-0.38,0.86,-44.13,10.07,-101.62
2026-08-03 12:38:46.658,0.35,0.04,0.88,8.61,-2.14,2.93
2026-08-03 12:38:46.710,0.35,0.25,0.88,9.7,-2.62,43.95
2026-08-03 12:38:46.710,0.35,0.25,0.88,9.7,-2.62,43.95
2026-08-03 12:38:46.711,0.32,0.33,0.86,-0.31,10.74,44.56
2026-08-03 12:38:46.711,0.32,0.33,0.86,-0.31,10.74,44.56
2026-08-03 12:38:46.770,0.29,0.38,0.82,4.82,17.52,39.31
2026-08-03 12:38:46.771,0.29,0.38,0.82,4.82,17.52,39.31
2026-08-03 12:38:46.771,0.29,0.4,0.79,7.57,14.47,24.66
2026-08-03 12:38:46.831,0.33,0.38,0.78,4.7,14.34,-2.69
2026-08-03 12:38:46.831,0.33,0.38,0.78,4.7,14.34,-2.69
2026-08-03 12:38:46.890,0.35,0.35,0.8,9.64,15.5,-23.38
2026-08-03 12:38:46.891,0.35,0.35,0.8,9.64,15.5,-23.38
2026-08-03 12:38:46.897,0.36,0.32,0.81,23.01,10.86,-27.1
2026-08-03 12:38:46.950,0.36,0.32,0.81,23.01,10.86,-27.1
2026-08-03 12:38:46.951,0.35,0.29,0.84,34.91,3.36,-25.33
2026-08-03 12:38:46.957,0.35,0.29,0.84,34.91,3.36,-25.33
2026-08-03 12:38:47.010,0.33,0.25,0.88,40.77,-2.81,-29.66
2026-08-03 12:38:47.010,0.33,0.17,0.92,42.3,-7.51,-36.93
2026-08-03 12:38:47.011,0.33,0.17,0.92,42.3,-7.51,-36.93
2026-08-03 12:38:47.070,0.22,-0.1,1.11,34.91,-15.99,-43.95
2026-08-03 12:38:47.071,0.22,-0.1,1.11,34.91,-15.99,-43.95
2026-08-03 12:38:47.189,0.1,-0.41,1.29,8.24,-26.92,-55.3
2026-08-03 12:38:47.190,0.1,-0.41,1.29,8.24,-26.92,-55.3
2026-08-03 12:38:47.191,0.15,-0.33,1.16,-3.36,-7.87,-28.87
2026-08-03 12:38:47.191,0.25,0.01,0.9,24.23,19.59,30.15
2026-08-03 12:38:47.192,0.25,0.01,0.9,24.23,19.59,30.15
2026-08-03 12:38:47.250,0.32,0.25,0.72,50.17,16.36,51.51
2026-08-03 12:38:47.252,0.32,0.25,0.72,50.17,16.36,51.51
2026-08-03 12:38:47.253,0.34,0.32,0.67,40.28,-2.38,32.17
2026-08-03 12:38:47.310,0.34,0.32,0.67,40.28,-2.38,32.17
2026-08-03 12:38:47.311,0.32,0.32,0.71,7.81,-22.09,6.71
2026-08-03 12:38:47.311,0.32,0.32,0.71,7.81,-22.09,6.71
2026-08-03 12:38:47.399,0.32,0.34,0.81,-10.44,-34.18,-1.16
2026-08-03 12:38:47.404,0.35,0.37,0.95,-9.58,-38.21,3.05
2026-08-03 12:38:47.430,0.35,0.37,0.95,-9.58,-38.21,3.05
2026-08-03 12:38:47.431,0.36,0.38,1.08,-9.28,-38.15,2.56
2026-08-03 12:38:47.431,0.36,0.38,1.08,-9.28,-38.15,2.56
2026-08-03 12:38:47.490,0.27,0.38,1.15,-12.82,-36.74,-2.69
2026-08-03 12:38:47.491,0.27,0.38,1.15,-6.47,-24.66,-2.87
2026-08-03 12:38:47.492,0.17,0.35,1.15,-6.47,-24.66,-2.87
2026-08-03 12:38:47.553,0.17,0.31,1.08,18.01,-0.06,7.2
2026-08-03 12:38:47.554,0.17,0.31,1.08,18.01,-0.06,7.2
2026-08-03 12:38:47.610,0.25,0.26,1.0,38.51,22.77,16.66
2026-08-03 12:38:47.611,0.25,0.26,1.0,38.51,22.77,16.66
2026-08-03 12:38:47.611,0.34,0.2,0.95,39.67,28.02,16.36
2026-08-03 12:38:47.689,0.34,0.2,0.95,39.67,28.02,16.36
2026-08-03 12:38:47.691,0.43,0.21,0.9,49.32,15.08,6.16
2026-08-03 12:38:47.738,0.45,0.32,0.84,79.47,19.78,-18.37
2026-08-03 12:38:47.739,0.45,0.32,0.84,79.47,19.78,-18.37
2026-08-03 12:38:47.739,0.42,0.46,0.85,84.78,52.0,-25.94
2026-08-03 12:38:47.790,0.42,0.46,0.85,84.78,52.0,-25.94
2026-08-03 12:38:47.791,0.4,0.54,0.9,51.76,76.48,7.69
2026-08-03 12:38:47.791,0.4,0.54,0.9,51.76,76.48,7.69
2026-08-03 12:38:47.850,0.33,0.61,0.89,23.44,81.67,49.74
2026-08-03 12:38:47.910,0.23,0.67,0.84,10.8,79.47,72.39
2026-08-03 12:38:47.911,0.23,0.67,0.84,10.8,79.47,72.39
2026-08-03 12:38:47.911,0.2,0.64,0.82,-7.57,79.28,82.03
2026-08-03 12:38:47.911,0.2,0.64,0.82,-7.57,79.28,82.03
2026-08-03 12:38:47.982,0.25,0.47,0.82,-39.73,64.21,90.52
2026-08-03 12:38:47.982,0.25,0.47,0.82,-39.73,64.21,90.52
2026-08-03 12:38:47.983,0.29,0.29,0.84,-58.96,29.42,89.23
2026-08-03 12:38:48.030,0.29,0.29,0.84,-35.22,7.14,92.29
2026-08-03 12:38:48.030,0.28,0.21,0.91,-35.22,7.14,92.29
2026-08-03 12:38:48.090,0.3,0.24,0.92,20.94,-3.42,113.1
2026-08-03 12:38:48.091,0.3,0.24,0.92,20.94,-3.42,113.1
2026-08-03 12:38:48.092,0.35,0.33,0.84,69.15,-12.76,124.63
2026-08-03 12:38:48.150,0.35,0.33,0.84,69.15,-12.76,124.63
2026-08-03 12:38:48.150,0.4,0.4,0.72,89.84,-11.66,114.32
2026-08-03 12:38:48.151,0.4,0.4,0.72,89.84,-11.66,114.32
2026-08-03 12:38:48.210,0.4,0.41,0.6,93.57,-10.74,95.89
2026-08-03 12:38:48.211,0.39,0.4,0.55,84.78,-14.53,81.6
2026-08-03 12:38:48.286,0.39,0.4,0.55,84.78,-14.53,81.6
2026-08-03 12:38:48.287,0.39,0.42,0.59,56.4,-10.99,70.62
2026-08-03 12:38:48.287,0.39,0.42,0.59,56.4,-10.99,70.62
2026-08-03 12:38:48.331,0.4,0.46,0.68,11.41,-10.93,51.76
2026-08-03 12:38:48.332,0.4,0.46,0.68,11.41,-10.93,51.76
2026-08-03 12:38:48.395,0.4,0.48,0.74,-29.54,-30.94,26.79
2026-08-03 12:38:48.396,0.42,0.46,0.77,-50.96,-52.25,18.01
2026-08-03 12:38:48.396,0.42,0.46,0.77,-50.96,-52.25,18.01
2026-08-03 12:38:48.450,0.45,0.39,0.82,-61.95,-44.62,22.46
2026-08-03 12:38:48.451,0.45,0.39,0.82,-61.95,-44.62,22.46
2026-08-03 12:38:48.451,0.48,0.32,0.87,-51.27,-20.81,22.4
2026-08-03 12:38:48.579,0.48,0.32,0.87,-51.27,-20.81,22.4
2026-08-03 12:38:48.579,0.49,0.36,0.85,4.39,-5.86,15.32
2026-08-03 12:38:48.579,0.47,0.48,0.71,57.01,14.65,-12.15
2026-08-03 12:38:48.584,0.47,0.48,0.71,57.01,14.65,-12.15
2026-08-03 12:38:48.584,0.4,0.54,0.56,57.31,41.93,-36.74
2026-08-03 12:38:48.631,0.4,0.54,0.56,57.31,41.93,-36.74
2026-08-03 12:38:48.632,0.36,0.55,0.51,37.78,61.83,-27.4
2026-08-03 12:38:48.633,0.36,0.55,0.51,37.78,61.83,-27.4
2026-08-03 12:38:48.690,0.35,0.59,0.57,41.38,72.33,-3.05
2026-08-03 12:38:48.693,0.35,0.59,0.57,41.38,72.33,-3.05
2026-08-03 12:38:48.750,0.37,0.61,0.67,53.59,61.71,15.32
2026-08-03 12:38:48.751,0.39,0.54,0.77,34.36,25.39,20.94
2026-08-03 12:38:48.751,0.39,0.54,0.77,34.36,25.39,20.94
2026-08-03 12:38:48.871,0.42,0.43,0.85,-7.08,-12.39,24.29
2026-08-03 12:38:48.872,0.42,0.43,0.85,-7.08,-12.39,24.29
2026-08-03 12:38:48.873,0.47,0.4,0.88,-33.2,-29.48,38.82
2026-08-03 12:38:48.874,0.47,0.4,0.88,-33.2,-29.48,38.82
2026-08-03 12:38:48.874,0.53,0.45,0.89,-35.28,-35.77,59.81
2026-08-03 12:38:48.933,0.56,0.51,0.88,-26.92,-35.34,73.85
2026-08-03 12:38:48.933,0.56,0.51,0.88,-26.92,-35.34,73.85
2026-08-03 12:38:49.002,0.56,0.53,0.88,-15.01,-20.2,73.73
2026-08-03 12:38:49.003,0.56,0.53,0.88,-15.01,-20.2,73.73
2026-08-03 12:38:49.003,0.54,0.5,0.86,-2.32,1.59,61.4
2026-08-03 12:38:49.004,0.54,0.5,0.86,-2.32,1.59,61.4
2026-08-03 12:38:49.110,0.55,0.43,0.81,5.25,17.64,44.37
2026-08-03 12:38:49.111,0.55,0.43,0.81,3.05,23.5,32.71
2026-08-03 12:38:49.111,0.53,0.26,0.87,3.05,23.5,32.71
2026-08-03 12:38:49.111,0.49,0.05,0.98,-20.69,19.78,20.26
2026-08-03 12:38:49.112,0.49,0.05,0.98,-20.69,19.78,20.26
2026-08-03 12:38:49.172,0.5,0.06,0.9,-42.18,30.15,19.04
2026-08-03 12:38:49.173,0.5,0.06,0.9,-42.18,30.15,19.04
2026-08-03 12:38:49.230,0.53,0.24,0.65,-8.36,39.18,50.35
2026-08-03 12:38:49.230,0.53,0.24,0.65,-8.36,39.18,50.35
2026-08-03 12:38:49.231,0.55,0.39,0.46,46.08,18.62,72.75
2026-08-03 12:38:49.304,0.53,0.41,0.54,42.54,-1.28,51.15
2026-08-03 12:38:49.304,0.53,0.41,0.54,42.54,-1.28,51.15
2026-08-03 12:38:49.305,0.5,0.31,0.73,-9.83,-6.41,18.13
2026-08-03 12:38:49.350,0.5,0.31,0.73,-9.83,-6.41,18.13
2026-08-03 12:38:49.351,0.49,0.22,0.9,-44.19,-7.63,7.26
2026-08-03 12:38:49.410,0.47,0.21,1.0,-38.39,-9.77,12.15
2026-08-03 12:38:49.411,0.47,0.21,1.0,-38.39,-9.77,12.15
2026-08-03 12:38:49.411,0.45,0.25,1.02,-15.93,-12.08,16.17
2026-08-03 12:38:49.472,0.45,0.25,1.02,-15.93,-12.08,16.17
2026-08-03 12:38:49.473,0.46,0.27,0.95,1.46,-7.63,12.33
2026-08-03 12:38:49.532,0.46,0.27,0.95,1.46,-7.63,12.33
2026-08-03 12:38:49.533,0.5,0.22,0.87,-0.24,5.13,-2.81
2026-08-03 12:38:49.533,0.5,0.22,0.87,-0.24,5.13,-2.81
2026-08-03 12:38:49.593,0.52,0.14,0.82,-16.6,16.6,-20.57
2026-08-03 12:38:49.594,0.53,0.09,0.8,-26.43,17.94,-24.96
2026-08-03 12:38:49.595,0.53,0.09,0.8,-26.43,17.94,-24.96
2026-08-03 12:38:49.650,0.5,0.09,0.81,-23.74,10.07,-17.03
2026-08-03 12:38:49.651,0.5,0.09,0.81,-23.74,10.07,-17.03
2026-08-03 12:38:49.710,0.47,0.1,0.85,-20.87,0.61,-12.51
2026-08-03 12:38:49.710,0.47,0.1,0.85,-20.87,0.61,-12.51
2026-08-03 12:38:49.711,0.44,0.12,0.89,-20.2,-2.99,-13.31
2026-08-03 12:38:49.771,0.44,0.12,0.89,-12.45,0.49,-5.86
2026-08-03 12:38:49.775,0.45,0.15,0.91,-12.45,0.49,-5.86
2026-08-03 12:38:49.776,0.48,0.18,0.89,-1.53,6.59,6.29
2026-08-03 12:38:49.833,0.48,0.18,0.89,-1.53,6.59,6.29
2026-08-03 12:38:49.834,0.51,0.2,0.87,2.26,11.23,8.54
2026-08-03 12:38:49.892,0.51,0.2,0.87,2.26,11.23,8.54
2026-08-03 12:38:49.892,0.5,0.17,0.86,0.18,14.47,3.97
2026-08-03 12:38:49.893,0.5,0.17,0.86,0.18,14.47,3.97
2026-08-03 12:38:49.950,0.47,0.1,0.9,-2.99,20.57,3.6
2026-08-03 12:38:49.951,0.47,0.1,0.9,-2.99,20.57,3.6
2026-08-03 12:38:49.951,0.43,0.07,0.97,1.53,28.69,12.63
2026-08-03 12:38:50.047,0.4,0.18,1.06,24.96,29.91,33.69
2026-08-03 12:38:50.051,0.4,0.18,1.06,24.96,29.91,33.69
2026-08-03 12:38:50.075,0.4,0.35,1.17,58.96,13.67,66.59
2026-08-03 12:38:50.075,0.4,0.35,1.17,58.96,13.67,66.59
2026-08-03 12:38:50.076,0.51,0.48,1.18,91.13,-45.78,99.67
2026-08-03 12:38:50.250,0.51,0.48,1.18,91.13,-45.78,99.67
2026-08-03 12:38:50.250,0.61,0.42,0.91,113.1,-118.23,101.14
2026-08-03 12:38:50.251,0.59,0.19,0.54,99.61,-115.42,49.38
2026-08-03 12:38:50.251,0.59,0.19,0.54,99.61,-115.42,49.38
2026-08-03 12:38:50.252,0.54,0.03,0.4,43.64,-40.41,-23.74
2026-08-03 12:38:50.252,0.54,0.03,0.4,43.64,-40.41,-23.74
2026-08-03 12:38:50.253,0.48,0.01,0.45,-15.38,28.26,-71.41
2026-08-03 12:38:50.253,0.48,0.01,0.45,-15.38,28.26,-71.41
2026-08-03 12:38:50.326,0.47,0.05,0.5,-40.34,47.55,-78.12
2026-08-03 12:38:50.344,0.47,0.05,0.5,-38.57,26.37,-55.24
2026-08-03 12:38:50.344,0.54,0.14,0.55,-38.57,26.37,-55.24
2026-08-03 12:38:50.385,0.64,0.21,0.6,-36.99,-8.48,-29.79
2026-08-03 12:38:50.386,0.64,0.21,0.6,-36.99,-8.48,-29.79
2026-08-03 12:38:50.430,0.68,0.2,0.63,-49.87,-29.85,-17.76
2026-08-03 12:38:50.431,0.68,0.2,0.63,-49.87,-29.85,-17.76
2026-08-03 12:38:50.431,0.7,0.17,0.69,-72.27,-29.48,-19.71
2026-08-03 12:38:50.490,0.7,0.17,0.69,-86.85,-26.37,-24.78
2026-08-03 12:38:50.492,0.72,0.19,0.77,-86.85,-26.37,-24.78
2026-08-03 12:38:50.550,0.73,0.19,0.82,-86.91,-32.96,-13.98
2026-08-03 12:38:50.550,0.73,0.19,0.82,-86.91,-32.96,-13.98
2026-08-03 12:38:50.551,0.76,0.08,0.8,-88.56,-29.3,11.29
2026-08-03 12:38:50.621,0.76,0.08,0.8,-88.56,-29.3,11.29
2026-08-03 12:38:50.625,0.72,-0.08,0.78,-83.01,6.9,47.0
2026-08-03 12:38:50.626,0.72,-0.08,0.78,-83.01,6.9,47.0
2026-08-03 12:38:50.733,0.57,-0.15,0.81,-17.7,66.22,76.78
2026-08-03 12:38:50.734,0.36,0.01,0.87,101.44,112.55,41.08
2026-08-03 12:38:50.735,0.36,0.01,0.87,101.44,112.55,41.08
2026-08-03 12:38:50.735,0.24,0.26,0.92,140.69,92.9,-26.92
2026-08-03 12:38:50.736,0.24,0.26,0.92,140.69,92.9,-26.92
2026-08-03 12:38:50.850,0.29,0.33,0.93,62.93,17.21,-17.4
2026-08-03 12:38:50.850,0.29,0.33,0.93,62.93,17.21,-17.4
2026-08-03 12:38:50.851,0.39,0.28,0.96,-19.41,-44.98,56.7
2026-08-03 12:38:50.851,0.46,0.19,0.99,-44.56,-59.39,105.96
2026-08-03 12:38:50.852,0.46,0.19,0.99,-44.56,-59.39,105.96
2026-08-03 12:38:50.917,0.49,0.12,0.96,-23.62,-32.84,96.74
2026-08-03 12:38:50.918,0.49,0.12,0.96,-23.62,-32.84,96.74
2026-08-03 12:38:50.918,0.48,0.09,0.91,4.52,5.74,58.23
2026-08-03 12:38:50.972,0.48,0.09,0.91,4.52,5.74,58.23
2026-08-03 12:38:50.973,0.47,0.09,0.88,20.87,33.39,25.51
2026-08-03 12:38:51.040,0.45,0.1,0.87,24.84,45.84,9.52
2026-08-03 12:38:51.041,0.45,0.1,0.87,24.84,45.84,9.52
2026-08-03 12:38:51.089,0.45,0.1,0.88,11.72,47.06,4.21
2026-08-03 12:38:51.090,0.45,0.1,0.88,11.72,47.06,4.21
2026-08-03 12:38:51.090,0.43,0.08,0.89,-12.15,44.8,0.73
2026-08-03 12:38:51.091,0.43,0.08,0.89,-12.15,44.8,0.73
2026-08-03 12:38:51.210,0.41,0.04,0.89,-29.66,42.05,-2.69
2026-08-03 12:38:51.211,0.41,0.04,0.89,-29.66,42.05,-2.69
2026-08-03 12:38:51.212,0.39,-0.01,0.9,-34.06,37.72,-5.74
2026-08-03 12:38:51.212,0.37,-0.05,0.9,-29.79,31.49,-7.69
2026-08-03 12:38:51.212,0.37,-0.05,0.9,-29.79,31.49,-7.69
2026-08-03 12:38:51.271,0.35,-0.08,0.91,-25.33,25.88,-8.79
2026-08-03 12:38:51.271,0.35,-0.08,0.91,-25.33,25.88,-8.79
2026-08-03 12:38:51.272,0.34,-0.1,0.91,-29.24,23.93,-13.31
2026-08-03 12:38:51.390,0.34,-0.1,0.91,-29.24,23.93,-13.31
2026-08-03 12:38:51.391,0.33,-0.11,0.92,-37.05,22.77,-20.32
2026-08-03 12:38:51.391,0.3,-0.11,0.93,-35.1,16.66,-22.4
2026-08-03 12:38:51.391,0.3,-0.11,0.93,-35.1,16.66,-22.4
2026-08-03 12:38:51.392,0.29,-0.11,0.94,-23.99,7.69,-18.49
2026-08-03 12:38:51.470,0.29,-0.11,0.94,-23.99,7.69,-18.49
2026-08-03 12:38:51.487,0.28,-0.11,0.94,-17.7,4.15,-15.44
2026-08-03 12:38:51.488,0.28,-0.11,0.94,-17.7,4.15,-15.44
2026-08-03 12:38:51.510,0.27,-0.11,0.95,-21.24,7.93,-16.17
2026-08-03 12:38:51.511,0.26,-0.12,0.99,-20.63,12.39,-14.28
2026-08-03 12:38:51.571,0.26,-0.12,0.99,-20.63,12.39,-14.28
2026-08-03 12:38:51.572,0.24,-0.12,1.05,-11.47,14.65,-11.29
2026-08-03 12:38:51.573,0.24,-0.12,1.05,-11.47,14.65,-11.29
2026-08-03 12:38:51.630,0.2,-0.1,1.11,-1.46,15.93,-14.28
2026-08-03 12:38:51.631,0.2,-0.1,1.11,-1.46,15.93,-14.28
2026-08-03 12:38:51.690,0.17,-0.1,1.13,10.99,14.59,-15.62
2026-08-03 12:38:51.691,0.17,-0.1,1.13,20.81,17.4,-15.87
2026-08-03 12:38:51.691,0.14,-0.11,1.1,20.81,17.4,-15.87
2026-08-03 12:38:51.766,0.14,-0.13,1.04,8.24,36.01,-24.05
2026-08-03 12:38:51.771,0.14,-0.13,1.04,8.24,36.01,-24.05
2026-08-03 12:38:51.771,0.15,-0.16,0.97,-26.79,54.93,-31.19
2026-08-03 12:38:51.810,0.15,-0.16,0.97,-26.79,54.93,-31.19
2026-08-03 12:38:51.811,0.14,-0.19,0.91,-38.88,59.14,-31.37
2026-08-03 12:38:51.870,0.14,-0.19,0.91,-38.88,59.14,-31.37
2026-08-03 12:38:51.871,0.08,-0.17,0.83,-6.96,60.91,-33.14
2026-08-03 12:38:51.872,0.06,-0.1,0.76,21.06,57.86,-36.07
2026-08-03 12:38:51.930,0.06,-0.1,0.76,21.06,57.86,-36.07
2026-08-03 12:38:51.930,0.08,-0.07,0.79,19.29,29.54,-30.88
2026-08-03 12:38:51.931,0.08,-0.07,0.79,19.29,29.54,-30.88
2026-08-03 12:38:51.990,0.09,-0.05,0.86,11.23,-14.77,-10.99
2026-08-03 12:38:51.991,0.09,-0.05,0.86,11.23,-14.77,-10.99
2026-08-03 12:38:52.056,0.08,0.03,0.89,8.42,-45.47,19.23
2026-08-03 12:38:52.056,0.06,0.11,0.9,-18.49,-45.9,61.04
2026-08-03 12:38:52.057,0.06,0.11,0.9,-18.49,-45.9,61.04
2026-08-03 12:38:52.117,0.12,0.02,0.92,-98.94,-26.79,110.96
2026-08-03 12:38:52.117,0.12,0.02,0.92,-98.94,-26.79,110.96
2026-08-03 12:38:52.183,0.24,-0.32,1.02,-173.52,-23.25,137.82
2026-08-03 12:38:52.190,0.24,-0.32,1.02,-173.52,-23.25,137.82
2026-08-03 12:38:52.192,0.29,-0.49,1.04,-134.7,-33.57,111.02
2026-08-03 12:38:52.230,0.22,-0.42,0.95,-49.5,-30.64,41.26
2026-08-03 12:38:52.230,0.22,-0.42,0.95,-49.5,-30.64,41.26
2026-08-03 12:38:52.231,0.19,-0.41,0.95,-26.98,-54.14,-11.84
2026-08-03 12:38:52.290,0.19,-0.41,0.95,-26.98,-54.14,-11.84
2026-08-03 12:38:52.291,0.35,-0.49,0.92,-30.94,-125.0,-48.95
2026-08-03 12:38:52.359,0.35,-0.49,0.92,-30.94,-125.0,-48.95
2026-08-03 12:38:52.359,0.51,-0.54,0.85,-9.83,-157.1,-98.51
2026-08-03 12:38:52.360,0.51,-0.54,0.85,49.87,-129.21,-121.34
2026-08-03 12:38:52.418,0.5,-0.47,0.84,49.87,-129.21,-121.34
2026-08-03 12:38:52.418,0.5,-0.28,0.85,125.55,-110.84,-113.22
2026-08-03 12:38:52.419,0.5,-0.28,0.85,125.55,-110.84,-113.22
2026-08-03 12:38:52.470,0.59,-0.05,0.87,180.11,-109.44,-103.82
2026-08-03 12:38:52.471,0.59,-0.05,0.87,180.11,-109.44,-103.82
2026-08-03 12:38:52.652,0.7,0.1,0.91,180.66,-82.28,-95.52
2026-08-03 12:38:52.653,0.71,0.2,0.96,130.55,-25.15,-99.61
2026-08-03 12:38:52.653,0.71,0.2,0.96,130.55,-25.15,-99.61
2026-08-03 12:38:52.654,0.67,0.29,0.99,76.84,26.73,-116.27
2026-08-03 12:38:52.654,0.67,0.29,0.99,76.84,26.73,-116.27
2026-08-03 12:38:52.655,0.6,0.35,0.93,56.95,49.93,-130.86
2026-08-03 12:38:52.655,0.6,0.35,0.93,56.95,49.93,-130.86
2026-08-03 12:38:52.655,0.49,0.42,0.76,55.36,54.81,-153.08
2026-08-03 12:38:52.773,0.34,0.47,0.53,37.35,64.27,-166.32
2026-08-03 12:38:52.774,0.34,0.47,0.53,37.35,64.27,-166.32
2026-08-03 12:38:52.775,0.2,0.4,0.21,-22.03,85.39,-143.92
2026-08-03 12:38:52.775,0.2,0.4,0.21,-22.03,85.39,-143.92
2026-08-03 12:38:52.776,0.14,0.14,-0.12,-144.04,91.19,-101.5
2026-08-03 12:38:52.830,0.14,0.14,-0.12,-144.04,91.19,-101.5
2026-08-03 12:38:52.831,0.25,-0.17,-0.11,-247.31,29.72,-56.27
2026-08-03 12:38:52.890,0.54,-0.23,0.21,-214.84,-82.03,-6.35
2026-08-03 12:38:52.891,0.54,-0.23,0.21,-214.84,-82.03,-6.35
2026-08-03 12:38:52.891,0.86,-0.23,0.49,-126.4,-151.25,31.43
2026-08-03 12:38:53.014,0.86,-0.23,0.49,-126.4,-151.25,31.43
2026-08-03 12:38:53.015,1.13,-0.33,0.64,-97.23,-152.34,39.61
2026-08-03 12:38:53.015,1.13,-0.33,0.64,-97.23,-152.34,39.61
2026-08-03 12:38:53.016,1.35,-0.37,0.74,-75.99,-159.73,59.81
2026-08-03 12:38:53.016,1.43,-0.31,0.88,-39.55,-207.89,126.89
2026-08-03 12:38:53.016,1.43,-0.31,0.88,-39.55,-207.89,126.89
2026-08-03 12:38:53.071,1.29,-0.3,0.92,-59.33,-236.39,202.03
2026-08-03 12:38:53.072,1.29,-0.3,0.92,-59.33,-236.39,202.03
2026-08-03 12:38:53.130,0.94,-0.48,0.8,-145.94,-175.96,241.7
2026-08-03 12:38:53.131,0.64,-0.66,0.55,-164.31,-80.26,205.75
2026-08-03 12:38:53.131,0.64,-0.66,0.55,-164.31,-80.26,205.75
2026-08-03 12:38:53.190,0.54,-0.64,0.29,-70.37,-39.49,106.93
2026-08-03 12:38:53.190,0.54,-0.64,0.29,-70.37,-39.49,106.93
2026-08-03 12:38:53.251,0.56,-0.59,0.17,10.07,-54.32,35.4
2026-08-03 12:38:53.251,0.56,-0.59,0.17,10.07,-54.32,35.4
2026-08-03 12:38:53.252,0.64,-0.59,0.23,29.05,-108.64,22.77
2026-08-03 12:38:53.378,0.73,-0.62,0.37,23.74,-164.92,26.06
2026-08-03 12:38:53.379,0.73,-0.62,0.37,23.74,-164.92,26.06
2026-08-03 12:38:53.430,0.78,-0.63,0.51,2.32,-155.4,-5.55
2026-08-03 12:38:53.431,0.78,-0.63,0.51,2.32,-155.4,-5.55
2026-08-03 12:38:53.431,0.73,-0.64,0.61,-28.5,-64.51,-63.96
2026-08-03 12:38:53.432,0.73,-0.63,0.62,-4.46,27.89,-109.56
2026-08-03 12:38:53.432,0.73,-0.63,0.62,-4.46,27.89,-109.56
2026-08-03 12:38:53.490,0.81,-0.6,0.61,61.89,73.36,-120.79
2026-08-03 12:38:53.491,0.81,-0.6,0.61,61.89,73.36,-120.79
2026-08-03 12:38:53.492,0.84,-0.54,0.66,115.11,68.97,-83.86
2026-08-03 12:38:53.551,0.84,-0.54,0.66,115.11,68.97,-83.86
2026-08-03 12:38:53.552,0.93,-0.49,0.8,147.95,18.19,-32.1
2026-08-03 12:38:53.611,0.95,-0.57,0.93,114.56,-6.29,-2.87
2026-08-03 12:38:53.612,0.95,-0.57,0.93,114.56,-6.29,-2.87
2026-08-03 12:38:53.612,0.79,-0.7,0.97,21.18,43.27,18.31
2026-08-03 12:38:53.685,0.79,-0.7,0.97,21.18,43.27,18.31
2026-08-03 12:38:53.686,0.65,-0.7,0.9,-40.22,125.67,29.97
2026-08-03 12:38:53.686,0.65,-0.7,0.9,-40.22,125.67,29.97
2026-08-03 12:38:53.730,0.67,-0.65,0.76,-34.24,204.41,5.37
2026-08-03 12:38:53.730,0.74,-0.67,0.6,2.56,254.03,-44.49
2026-08-03 12:38:53.791,0.74,-0.67,0.6,2.56,254.03,-44.49
2026-08-03 12:38:53.791,0.78,-0.68,0.59,31.49,232.48,-71.78
2026-08-03 12:38:53.864,0.78,-0.68,0.59,31.49,232.48,-71.78
2026-08-03 12:38:53.864,0.8,-0.54,0.72,35.52,160.4,-51.57
2026-08-03 12:38:53.865,0.8,-0.54,0.72,35.52,160.4,-51.57
2026-08-03 12:38:53.871,0.79,-0.29,0.77,18.55,108.4,-10.99
2026-08-03 12:38:53.910,0.74,-0.11,0.72,-3.17,99.37,13.37
2026-08-03 12:38:53.911,0.74,-0.11,0.72,-3.17,99.37,13.37
2026-08-03 12:38:53.974,0.68,-0.05,0.63,-14.4,109.92,10.56
2026-08-03 12:38:53.975,0.68,-0.05,0.63,-14.4,109.92,10.56
2026-08-03 12:38:53.975,0.63,-0.06,0.52,-4.46,111.15,-10.8
2026-08-03 12:38:54.040,0.63,-0.06,0.52,-4.46,111.15,-10.8
2026-08-03 12:38:54.047,0.59,-0.09,0.37,19.41,87.95,-33.33
2026-08-03 12:38:54.090,0.59,-0.09,0.37,33.69,46.87,-45.84
2026-08-03 12:38:54.090,0.56,-0.09,0.21,33.69,46.87,-45.84
2026-08-03 12:38:54.091,0.52,-0.12,0.14,19.23,10.5,-49.87
2026-08-03 12:38:54.210,0.52,-0.12,0.14,19.23,10.5,-49.87
2026-08-03 12:38:54.211,0.51,-0.19,0.2,-0.73,-19.9,-43.09
2026-08-03 12:38:54.211,0.51,-0.19,0.2,-0.73,-19.9,-43.09
2026-08-03 12:38:54.211,0.65,-0.26,0.33,10.62,-68.36,-23.07
2026-08-03 12:38:54.212,0.65,-0.26,0.33,10.62,-68.36,-23.07
2026-08-03 12:38:54.270,0.99,-0.38,0.52,37.84,-132.45,-3.42
2026-08-03 12:38:54.271,1.33,-0.64,0.85,43.88,-187.62,1.4
2026-08-03 12:38:54.272,1.33,-0.64,0.85,43.88,-187.62,1.4
2026-08-03 12:38:54.344,1.28,-0.9,1.23,12.94,-210.88,-10.68
2026-08-03 12:38:54.389,1.28,-0.9,1.23,12.94,-210.88,-10.68
2026-08-03 12:38:54.390,0.85,-1.0,1.4,-31.37,-184.75,-22.09
2026-08-03 12:38:54.391,0.85,-1.0,1.4,-31.37,-184.75,-22.09
2026-08-03 12:38:54.391,0.55,-0.85,1.22,-37.11,-115.05,1.77
2026-08-03 12:38:54.450,0.65,-0.51,0.89,0.61,-39.31,64.88
2026-08-03 12:38:54.450,0.65,-0.51,0.89,0.61,-39.31,64.88
2026-08-03 12:38:54.451,0.86,-0.2,0.64,45.1,2.62,126.59
2026-08-03 12:38:54.510,0.86,-0.2,0.64,45.1,2.62,126.59
2026-08-03 12:38:54.513,0.89,0.02,0.5,80.2,0.85,158.26
2026-08-03 12:38:54.515,0.89,0.02,0.5,80.2,0.85,158.26
2026-08-03 12:38:54.573,0.76,0.19,0.45,100.65,-27.47,169.19
2026-08-03 12:38:54.573,0.64,0.33,0.46,99.49,-57.37,167.66
2026-08-03 12:38:54.640,0.64,0.33,0.46,99.49,-57.37,167.66
2026-08-03 12:38:54.641,0.6,0.43,0.51,73.12,-70.62,140.81
2026-08-03 12:38:54.642,0.6,0.43,0.51,73.12,-70.62,140.81
2026-08-03 12:38:54.750,0.61,0.4,0.56,33.75,-66.47,79.35
2026-08-03 12:38:54.750,0.61,0.4,0.56,33.75,-66.47,79.35
2026-08-03 12:38:54.751,0.64,0.22,0.63,4.39,-59.27,4.52
2026-08-03 12:38:54.751,0.67,-0.0,0.74,-14.34,-55.85,-50.05
2026-08-03 12:38:54.752,0.67,-0.0,0.74,-14.34,-55.85,-50.05
2026-08-03 12:38:54.870,0.68,-0.24,0.85,-29.6,-48.89,-71.84
2026-08-03 12:38:54.871,0.68,-0.24,0.85,-29.6,-48.89,-71.84
2026-08-03 12:38:54.871,0.69,-0.45,0.93,-28.75,-38.88,-63.78
2026-08-03 12:38:54.879,0.69,-0.45,0.93,-28.75,-38.88,-63.78
2026-08-03 12:38:54.879,0.69,-0.64,1.0,-8.12,-34.06,-40.53
2026-08-03 12:38:54.934,0.69,-0.64,1.0,19.78,-29.97,-24.6
2026-08-03 12:38:54.934,0.66,-0.86,1.03,19.78,-29.97,-24.6
2026-08-03 12:38:54.934,0.56,-1.23,0.76,41.2,-11.11,-16.11
2026-08-03 12:38:54.990,0.56,-1.23,0.76,41.2,-11.11,-16.11
2026-08-03 12:38:54.990,0.51,-1.58,0.23,66.83,2.44,2.56
2026-08-03 12:38:54.991,0.51,-1.58,0.23,66.83,2.44,2.56
2026-08-03 12:38:55.050,0.59,-1.38,0.14,78.86,-8.85,16.11
2026-08-03 12:38:55.050,0.59,-1.38,0.14,78.86,-8.85,16.11
2026-08-03 12:38:55.111,0.64,-0.94,0.59,11.41,-12.21,2.62
2026-08-03 12:38:55.169,0.62,-0.66,1.01,-58.72,-9.95,-13.61
2026-08-03 12:38:55.170,0.62,-0.66,1.01,-58.72,-9.95,-13.61
2026-08-03 12:38:55.170,0.66,-0.37,1.13,-46.02,-6.23,-7.69
2026-08-03 12:38:55.171,0.66,-0.37,1.13,-46.02,-6.23,-7.69
2026-08-03 12:38:55.241,0.81,-0.14,1.02,-30.03,34.67,0.98
2026-08-03 12:38:55.242,0.81,-0.14,1.02,-30.03,34.67,0.98
2026-08-03 12:38:55.242,1.01,-0.1,0.84,-67.2,103.52,-10.01
2026-08-03 12:38:55.290,1.01,-0.1,0.84,-67.2,103.52,-10.01
2026-08-03 12:38:55.291,1.11,-0.16,0.71,-123.9,153.38,-25.39
2026-08-03 12:38:55.292,1.06,-0.2,0.68,-144.65,158.87,-16.3
2026-08-03 12:38:55.350,1.06,-0.2,0.68,-144.65,158.87,-16.3
2026-08-03 12:38:55.350,0.91,-0.13,0.67,-103.15,129.76,21.97
2026-08-03 12:38:55.410,0.91,-0.13,0.67,-27.65,93.26,63.42
2026-08-03 12:38:55.411,0.8,0.02,0.61,-27.65,93.26,63.42
2026-08-03 12:38:55.411,0.77,0.15,0.52,24.54,72.02,77.15
2026-08-03 12:38:55.472,0.77,0.15,0.52,24.54,72.02,77.15
2026-08-03 12:38:55.473,0.74,0.18,0.43,30.64,68.85,55.05
2026-08-03 12:38:55.532,0.74,0.18,0.43,30.64,68.85,55.05
2026-08-03 12:38:55.532,0.71,0.12,0.37,15.93,68.24,15.26
2026-08-03 12:38:55.533,0.71,0.12,0.37,15.93,68.24,15.26
2026-08-03 12:38:55.590,0.69,0.04,0.33,10.99,53.16,-19.53
2026-08-03 12:38:55.590,0.7,-0.0,0.33,19.47,19.65,-42.42
2026-08-03 12:38:55.591,0.7,-0.0,0.33,19.47,19.65,-42.42
2026-08-03 12:38:55.650,0.78,-0.05,0.39,23.68,-22.64,-59.63
2026-08-03 12:38:55.651,0.78,-0.05,0.39,23.68,-22.64,-59.63
2026-08-03 12:38:55.717,0.9,-0.18,0.51,4.88,-57.62,-78.25
2026-08-03 12:38:55.718,0.9,-0.18,0.51,4.88,-57.62,-78.25
2026-08-03 12:38:55.718,0.99,-0.48,0.65,-35.52,-71.47,-98.21
2026-08-03 12:38:55.770,0.86,-0.98,0.81,-84.35,-56.4,-117.25
2026-08-03 12:38:55.772,0.86,-0.98,0.81,-84.35,-56.4,-117.25
2026-08-03 12:38:55.889,0.39,-2.02,0.63,-90.33,-10.31,-137.08
2026-08-03 12:38:55.890,0.39,-2.02,0.63,-90.33,-10.31,-137.08
2026-08-03 12:38:55.891,0.25,-2.24,0.4,-12.57,0.67,-71.59
2026-08-03 12:38:55.891,0.25,-2.24,0.4,-12.57,0.67,-71.59
2026-08-03 12:38:55.891,0.66,-1.01,0.62,38.51,-65.49,83.8
2026-08-03 12:38:55.892,0.96,-0.15,0.86,-1.65,-96.25,144.96
2026-08-03 12:38:55.950,0.96,-0.15,0.86,-1.65,-96.25,144.96
2026-08-03 12:38:55.951,1.01,-0.08,0.79,-2.62,-69.89,81.3
2026-08-03 12:38:56.014,1.01,-0.08,0.79,-2.62,-69.89,81.3
2026-08-03 12:38:56.015,0.84,-0.06,0.67,81.05,-88.56,29.79
2026-08-03 12:38:56.015,0.84,-0.06,0.67,81.05,-88.56,29.79
2026-08-03 12:38:56.072,0.61,0.08,0.67,151.79,-134.4,28.63
2026-08-03 12:38:56.073,0.52,0.1,0.65,151.25,-129.52,15.56
2026-08-03 12:38:56.073,0.52,0.1,0.65,151.25,-129.52,15.56
2026-08-03 12:38:56.133,0.59,-0.05,0.55,86.43,-68.97,-19.35
2026-08-03 12:38:56.133,0.59,-0.05,0.55,86.43,-68.97,-19.35
2026-08-03 12:38:56.250,0.72,-0.21,0.47,14.95,-8.91,-27.04
2026-08-03 12:38:56.251,0.72,-0.21,0.47,14.95,-8.91,-27.04
2026-08-03 12:38:56.251,0.83,-0.4,0.54,-32.96,35.28,-1.53
2026-08-03 12:38:56.252,0.77,-0.81,0.63,-90.64,85.08,-10.68
2026-08-03 12:38:56.252,0.77,-0.81,0.63,-90.64,85.08,-10.68
2026-08-03 12:38:56.310,0.71,-0.97,0.6,-132.45,105.04,-32.96
2026-08-03 12:38:56.311,0.71,-0.97,0.6,-132.45,105.04,-32.96
2026-08-03 12:38:56.312,0.77,-0.65,0.54,-147.09,109.86,-7.32
2026-08-03 12:38:56.370,0.77,-0.65,0.54,-147.09,109.86,-7.32
2026-08-03 12:38:56.371,0.69,-0.38,0.53,-185.61,157.47,33.94
2026-08-03 12:38:56.433,0.54,-0.37,0.47,-208.01,177.0,64.88
2026-08-03 12:38:56.493,0.54,-0.37,0.47,-208.01,177.0,64.88
2026-08-03 12:38:56.494,0.5,-0.49,0.39,-124.27,74.16,66.1
2026-08-03 12:38:56.494,0.5,-0.49,0.39,-124.27,74.16,66.1
2026-08-03 12:38:56.494,0.51,-0.58,0.4,28.99,-72.51,29.72
2026-08-03 12:38:56.550,0.51,-0.58,0.4,28.99,-72.51,29.72
2026-08-03 12:38:56.551,0.46,-0.58,0.48,124.39,-122.74,-12.21
2026-08-03 12:38:56.551,0.46,-0.62,0.56,130.74,-88.5,-27.04
2026-08-03 12:38:56.618,0.46,-0.62,0.56,130.74,-88.5,-27.04
2026-08-03 12:38:56.624,0.59,-0.75,0.62,150.09,-75.32,-10.38
2026-08-03 12:38:56.630,0.59,-0.75,0.62,150.09,-75.32,-10.38
2026-08-03 12:38:56.683,0.78,-0.72,0.68,233.89,-87.77,-8.18
2026-08-03 12:38:56.684,0.78,-0.72,0.68,233.89,-87.77,-8.18
2026-08-03 12:38:56.684,0.92,-0.45,0.73,325.01,-96.25,-45.96
2026-08-03 12:38:56.731,0.97,-0.01,0.61,385.19,-132.02,-130.31
2026-08-03 12:38:56.732,0.97,-0.01,0.61,385.19,-132.02,-130.31
2026-08-03 12:38:56.791,0.93,0.4,0.39,375.0,-142.58,-227.97
2026-08-03 12:38:56.792,0.93,0.4,0.39,375.0,-142.58,-227.97
2026-08-03 12:38:56.792,0.85,0.55,0.31,256.53,-64.88,-249.08
2026-08-03 12:38:56.850,0.85,0.55,0.31,256.53,-64.88,-249.08
2026-08-03 12:38:56.850,0.85,0.55,0.31,256.53,-64.88,-249.08
2026-08-03 12:38:56.851,0.85,0.55,0.31,256.53,-64.88,-249.08
2026-08-03 12:38:56.979,0.62,0.58,0.31,27.22,67.5,-151.67
2026-08-03 12:38:56.979,0.48,0.61,0.38,-82.28,53.96,-105.29
2026-08-03 12:38:56.979,0.48,0.61,0.38,-82.28,53.96,-105.29
2026-08-03 12:38:56.980,0.43,0.5,0.61,-224.55,64.88,-37.23
2026-08-03 12:38:56.980,0.43,0.5,0.61,-224.55,64.88,-37.23
2026-08-03 12:38:57.030,0.46,0.24,0.97,-318.97,113.65,71.84
2026-08-03 12:38:57.030,0.46,0.24,0.97,-318.97,113.65,71.84
2026-08-03 12:38:57.105,0.48,0.09,1.25,-276.31,119.08,136.23
2026-08-03 12:38:57.106,0.46,0.11,1.37,-168.7,82.95,103.76
2026-08-03 12:38:57.106,0.46,0.11,1.37,-168.7,82.95,103.76
2026-08-03 12:38:57.150,0.36,0.02,1.29,-136.35,88.56,64.64
2026-08-03 12:38:57.151,0.36,0.02,1.29,-136.35,88.56,64.64
2026-08-03 12:38:57.151,0.24,-0.16,1.13,-141.91,120.79,72.08
2026-08-03 12:38:57.210,0.24,-0.16,1.13,-141.91,120.79,72.08
2026-08-03 12:38:57.210,0.24,-0.16,1.13,-141.91,120.79,72.08
2026-08-03 12:38:57.211,0.24,-0.16,1.13,-141.91,120.79,72.08
2026-08-03 12:38:57.272,0.04,-0.3,0.81,-64.94,152.22,96.74
2026-08-03 12:38:57.272,-0.03,-0.29,0.71,4.64,153.93,74.95
2026-08-03 12:38:57.331,-0.03,-0.29,0.71,4.64,153.93,74.95
2026-08-03 12:38:57.332,0.0,-0.06,0.63,140.93,139.04,17.27
2026-08-03 12:38:57.332,0.0,-0.06,0.63,140.93,139.04,17.27
2026-08-03 12:38:57.392,-0.0,0.14,0.54,208.13,154.05,-44.01
2026-08-03 12:38:57.392,-0.16,0.19,0.42,132.08,169.8,-86.06
2026-08-03 12:38:57.451,-0.16,0.19,0.42,132.08,169.8,-86.06
2026-08-03 12:38:57.451,-0.19,0.19,0.38,-28.87,132.26,-85.14
2026-08-03 12:38:57.452,-0.19,0.19,0.38,-28.87,132.26,-85.14
2026-08-03 12:38:57.510,-0.07,0.11,0.43,-189.82,68.36,-53.96
2026-08-03 12:38:57.511,-0.07,0.11,0.43,-189.82,68.36,-53.96
2026-08-03 12:38:57.588,-0.01,-0.01,0.46,-166.63,-25.88,-73.67
2026-08-03 12:38:57.599,0.08,-0.08,0.54,39.12,-153.26,-124.39
2026-08-03 12:38:57.609,0.08,-0.08,0.54,39.12,-153.26,-124.39
2026-08-03 12:38:57.690,0.18,-0.06,0.69,193.24,-239.56,-108.15
2026-08-03 12:38:57.691,0.18,-0.06,0.69,193.24,-239.56,-108.15
2026-08-03 12:38:57.691,0.35,-0.03,0.76,187.81,-257.75,-26.43
2026-08-03 12:38:57.692,0.35,-0.03,0.76,187.81,-257.75,-26.43
2026-08-03 12:38:57.749,0.61,-0.16,0.81,62.81,-251.53,18.31
2026-08-03 12:38:57.750,0.85,-0.26,1.25,-68.91,-255.62,-7.39
2026-08-03 12:38:57.870,0.85,-0.26,1.25,-68.91,-255.62,-7.39
2026-08-03 12:38:57.872,0.8,-0.18,1.93,-78.37,-238.28,-25.39
2026-08-03 12:38:57.872,0.8,-0.18,1.93,-78.37,-238.28,-25.39
2026-08-03 12:38:57.873,0.44,-0.2,2.16,-10.31,-159.85,-8.12
2026-08-03 12:38:57.873,0.44,-0.2,2.16,-10.31,-159.85,-8.12
2026-08-03 12:38:57.874,0.09,-0.45,1.88,1.28,-49.07,10.38
2026-08-03 12:38:57.875,0.11,-0.55,1.37,-37.6,33.69,42.91
2026-08-03 12:38:57.943,0.11,-0.55,1.37,-37.6,33.69,42.91
2026-08-03 12:38:57.943,0.42,-0.38,0.89,-64.39,64.7,80.63
2026-08-03 12:38:57.944,0.42,-0.38,0.89,-64.39,64.7,80.63
2026-08-03 12:38:57.992,0.52,-0.25,0.69,-52.31,70.25,70.43
2026-08-03 12:38:57.993,0.52,-0.25,0.69,-52.31,70.25,70.43
2026-08-03 12:38:58.051,0.43,-0.2,0.73,9.09,47.3,23.62
2026-08-03 12:38:58.051,0.43,-0.2,0.73,110.11,-10.68,-16.66
2026-08-03 12:38:58.051,0.38,-0.06,0.85,110.11,-10.68,-16.66
2026-08-03 12:38:58.170,0.46,0.17,0.85,232.91,-99.24,-55.66
2026-08-03 12:38:58.171,0.46,0.17,0.85,232.91,-99.24,-55.66
2026-08-03 12:38:58.171,0.63,0.41,0.62,317.2,-213.81,-100.34
2026-08-03 12:38:58.171,0.63,0.41,0.62,317.2,-213.81,-100.34
2026-08-03 12:38:58.171,0.74,0.53,0.36,274.78,-243.04,-127.93
2026-08-03 12:38:58.266,0.74,0.53,0.36,150.39,-140.93,-122.25
2026-08-03 12:38:58.271,0.76,0.54,0.27,150.39,-140.93,-122.25
2026-08-03 12:38:58.272,0.7,0.55,0.24,66.35,-27.83,-118.29
2026-08-03 12:38:58.290,0.7,0.55,0.24,66.35,-27.83,-118.29
2026-08-03 12:38:58.291,0.58,0.6,0.19,39.31,17.76,-137.02
2026-08-03 12:38:58.355,0.58,0.6,0.19,39.31,17.76,-137.02
2026-08-03 12:38:58.356,0.56,0.69,0.13,24.84,14.47,-117.25
2026-08-03 12:38:58.356,0.56,0.69,0.13,-30.7,22.71,-48.1
2026-08-03 12:38:58.418,0.57,0.72,0.16,-30.7,22.71,-48.1
2026-08-03 12:38:58.421,0.51,0.62,0.3,-112.79,46.39,3.6
2026-08-03 12:38:58.422,0.51,0.62,0.3,-112.79,46.39,3.6
2026-08-03 12:38:58.530,0.51,0.52,0.49,-169.19,67.99,42.91
2026-08-03 12:38:58.530,0.51,0.52,0.49,-169.19,67.99,42.91
2026-08-03 12:38:58.531,0.56,0.32,0.77,-247.31,111.39,109.5
2026-08-03 12:38:58.531,0.56,0.32,0.77,-344.85,125.85,148.07
2026-08-03 12:38:58.532,0.52,-0.09,0.97,-344.85,125.85,148.07
2026-08-03 12:38:58.591,0.45,-0.4,0.96,-336.67,59.63,102.91
2026-08-03 12:38:58.592,0.45,-0.4,0.96,-336.67,59.63,102.91
2026-08-03 12:38:58.650,0.43,-0.48,0.89,-232.85,-14.04,47.12
2026-08-03 12:38:58.651,0.43,-0.48,0.89,-232.85,-14.04,47.12
2026-08-03 12:38:58.654,0.39,-0.53,0.81,-191.96,-11.35,53.53
2026-08-03 12:38:58.711,0.32,-0.63,0.74,-212.34,39.12,79.71
2026-08-03 12:38:58.713,0.32,-0.63,0.74,-212.34,39.12,79.71
2026-08-03 12:38:58.770,0.27,-0.66,0.7,-173.28,47.55,79.35
2026-08-03 12:38:58.770,0.27,-0.66,0.7,-173.28,47.55,79.35
2026-08-03 12:38:58.771,0.24,-0.67,0.67,-99.73,22.64,73.36
2026-08-03 12:38:59.017,0.24,-0.67,0.67,-99.73,22.64,73.36
2026-08-03 12:38:59.018,0.18,-0.72,0.67,-69.64,12.51,86.91
2026-08-03 12:38:59.019,0.13,-0.75,0.7,-58.41,4.09,93.69
2026-08-03 12:38:59.019,0.13,-0.75,0.7,-58.41,4.09,93.69
2026-08-03 12:38:59.020,0.13,-0.76,0.73,-39.31,-6.1,77.7
2026-08-03 12:38:59.024,0.13,-0.76,0.73,-39.31,-6.1,77.7
2026-08-03 12:38:59.025,0.11,-0.77,0.71,-23.5,-0.06,57.62
2026-08-03 12:38:59.025,0.11,-0.77,0.71,-23.5,-0.06,57.62
2026-08-03 12:38:59.027,0.03,-0.79,0.63,3.78,0.67,30.7
2026-08-03 12:38:59.028,0.03,-0.79,0.63,3.78,0.67,30.7
2026-08-03 12:38:59.028,0.04,-0.78,0.55,75.74,-43.46,-18.92
2026-08-03 12:38:59.070,0.18,-0.65,0.59,231.45,-131.84,-70.43
2026-08-03 12:38:59.071,0.18,-0.65,0.59,231.45,-131.84,-70.43
2026-08-03 12:38:59.197,0.43,-0.31,0.75,436.95,-217.71,-87.77
2026-08-03 12:38:59.198,0.43,-0.31,0.75,436.95,-217.71,-87.77
2026-08-03 12:38:59.198,0.6,0.06,0.9,500.67,-220.64,-50.84
2026-08-03 12:38:59.216,0.6,0.06,0.9,500.67,-220.64,-50.84
2026-08-03 12:38:59.216,0.63,0.25,0.88,373.17,-150.51,12.27
2026-08-03 12:38:59.261,0.65,0.33,0.73,215.39,-88.5,40.47
2026-08-03 12:38:59.262,0.65,0.33,0.73,215.39,-88.5,40.47
2026-08-03 12:38:59.263,0.67,0.31,0.62,100.46,-47.85,10.07
2026-08-03 12:38:59.315,0.67,0.31,0.62,100.46,-47.85,10.07
2026-08-03 12:38:59.315,0.67,0.28,0.61,51.82,-11.54,-34.48
2026-08-03 12:38:59.316,0.67,0.28,0.61,51.82,-11.54,-34.48
2026-08-03 12:38:59.371,0.67,0.35,0.59,76.48,12.08,-54.38
2026-08-03 12:38:59.372,0.65,0.49,0.55,97.84,17.15,-57.25
2026-08-03 12:38:59.495,0.65,0.49,0.55,97.84,17.15,-57.25
2026-08-03 12:38:59.550,0.63,0.56,0.54,43.7,14.47,-50.54
2026-08-03 12:38:59.553,0.63,0.56,0.54,43.7,14.47,-50.54
2026-08-03 12:38:59.554,0.61,0.53,0.58,-39.92,13.49,-41.2
2026-08-03 12:38:59.555,0.58,0.54,0.61,-80.69,18.37,-34.91
2026-08-03 12:38:59.555,0.58,0.54,0.61,-80.69,18.37,-34.91
2026-08-03 12:38:59.556,0.53,0.48,0.63,-122.25,18.55,-30.09
2026-08-03 12:38:59.556,0.53,0.48,0.63,-122.25,18.55,-30.09
2026-08-03 12:38:59.616,0.53,0.26,0.72,-184.27,10.99,-9.4
2026-08-03 12:38:59.616,0.53,0.26,0.72,-184.27,10.99,-9.4
2026-08-03 12:38:59.617,0.55,0.14,0.8,-155.15,0.67,5.68
2026-08-03 12:38:59.670,0.54,0.18,0.83,-60.49,1.59,2.81
2026-08-03 12:38:59.671,0.54,0.18,0.83,-60.49,1.59,2.81
2026-08-03 12:38:59.730,0.51,0.22,0.84,-19.35,15.56,6.35
2026-08-03 12:38:59.731,0.51,0.22,0.84,-19.35,15.56,6.35
2026-08-03 12:38:59.731,0.49,0.21,0.84,-37.41,21.24,13.92
2026-08-03 12:38:59.816,0.49,0.21,0.84,-37.41,21.24,13.92
2026-08-03 12:38:59.817,0.5,0.13,0.84,-94.18,14.95,20.69
2026-08-03 12:38:59.817,0.5,0.13,0.84,-94.18,14.95,20.69
2026-08-03 12:38:59.851,0.51,-0.03,0.86,-155.76,5.13,25.76
2026-08-03 12:38:59.852,0.51,-0.2,0.88,-170.96,-1.65,28.32
2026-08-03 12:38:59.910,0.51,-0.2,0.88,-170.96,-1.65,28.32
2026-08-03 12:38:59.911,0.49,-0.3,0.87,-115.91,-2.69,26.25
2026-08-03 12:38:59.912,0.49,-0.3,0.87,-115.91,-2.69,26.25
2026-08-03 12:38:59.970,0.49,-0.31,0.86,-19.9,6.9,14.77
2026-08-03 12:38:59.970,0.49,-0.31,0.86,-19.9,6.9,14.77
2026-08-03 12:39:00.030,0.48,-0.21,0.86,82.09,31.43,-13.85
2026-08-03 12:39:00.031,0.41,-0.0,0.85,142.76,61.83,-43.33
