Timestamp,AccX,AccY,AccZ,GyroX,GyroY,GyroZ
2026-07-27 14:42:07.751,0.27,-0.93,0.28,-1.46,1.53,-1.71
2026-07-27 14:42:07.751,-0.77,0.24,-0.07,-130.37,105.35,126.77
2026-07-27 14:42:07.752,-0.77,0.24,-0.07,-130.37,105.35,126.77
2026-07-27 14:42:07.752,-0.86,0.08,-0.22,-256.65,-30.58,113.34
2026-07-27 14:42:07.810,-0.49,-0.48,0.04,-207.64,-116.15,17.7
2026-07-27 14:42:07.819,-0.49,-0.48,0.04,-207.64,-116.15,17.7
2026-07-27 14:42:07.882,-0.1,-0.91,0.41,-53.53,-128.66,-74.28
2026-07-27 14:42:07.883,-0.1,-0.91,0.41,-53.53,-128.66,-74.28
2026-07-27 14:42:07.883,0.2,-1.06,0.74,43.27,-107.54,-101.32
2026-07-27 14:42:07.928,0.2,-1.06,0.74,43.27,-107.54,-101.32
2026-07-27 14:42:07.937,0.36,-1.06,0.94,50.42,-92.47,-60.79
2026-07-27 14:42:07.990,0.35,-0.96,0.95,52.49,-64.45,-4.21
2026-07-27 14:42:07.991,0.35,-0.96,0.95,52.49,-64.45,-4.21
2026-07-27 14:42:07.991,0.25,-0.82,0.87,57.31,-21.12,25.02
2026-07-27 14:42:08.049,0.25,-0.82,0.87,57.31,-21.12,25.02
2026-07-27 14:42:08.049,0.17,-0.7,0.82,49.93,9.7,22.4
2026-07-27 14:42:08.049,0.17,-0.7,0.82,49.93,9.7,22.4
2026-07-27 14:42:08.108,0.1,-0.62,0.82,59.51,27.59,0.31
2026-07-27 14:42:08.109,0.1,-0.62,0.82,79.47,46.02,-23.01
2026-07-27 14:42:08.174,0.04,-0.55,0.8,79.47,46.02,-23.01
2026-07-27 14:42:08.175,-0.03,-0.46,0.8,81.18,67.02,-25.09
2026-07-27 14:42:08.175,-0.03,-0.46,0.8,81.18,67.02,-25.09
2026-07-27 14:42:08.229,-0.04,-0.37,0.84,86.49,64.45,-17.58
2026-07-27 14:42:08.229,-0.04,-0.37,0.84,86.49,64.45,-17.58
2026-07-27 14:42:08.230,-0.03,-0.37,0.89,83.68,47.0,-11.23
2026-07-27 14:42:08.290,-0.03,-0.37,0.89,83.68,47.0,-11.23
2026-07-27 14:42:08.302,-0.05,-0.45,0.87,37.05,49.56,2.44
2026-07-27 14:42:08.349,-0.13,-0.49,0.87,-19.65,75.99,16.05
2026-07-27 14:42:08.350,-0.13,-0.49,0.87,-19.65,75.99,16.05
2026-07-27 14:42:08.350,-0.2,-0.48,0.9,-43.95,94.36,19.53
2026-07-27 14:42:08.420,-0.2,-0.48,0.9,-43.95,94.36,19.53
2026-07-27 14:42:08.423,-0.2,-0.52,0.91,-46.51,60.18,10.93
2026-07-27 14:42:08.423,-0.2,-0.52,0.91,-46.51,60.18,10.93
2026-07-27 14:42:08.468,-0.13,-0.59,0.89,-47.85,2.14,-10.38
2026-07-27 14:42:08.468,-0.07,-0.61,0.87,-24.29,-26.67,-32.47
2026-07-27 14:42:08.528,-0.07,-0.61,0.87,-24.29,-26.67,-32.47
2026-07-27 14:42:08.528,-0.07,-0.54,0.84,41.75,-24.29,-34.67
2026-07-27 14:42:08.528,-0.07,-0.54,0.84,41.75,-24.29,-34.67
2026-07-27 14:42:08.593,-0.11,-0.43,0.85,101.07,-10.31,-17.7
2026-07-27 14:42:08.593,-0.11,-0.43,0.85,101.07,-10.31,-17.7
2026-07-27 14:42:08.594,-0.14,-0.36,0.88,87.59,-2.5,4.76
2026-07-27 14:42:08.648,-0.14,-0.36,0.88,87.59,-2.5,4.76
2026-07-27 14:42:08.649,-0.16,-0.38,0.9,1.89,-1.1,21.06
2026-07-27 14:42:08.707,-0.16,-0.45,0.89,-91.19,1.46,26.49
2026-07-27 14:42:08.708,-0.16,-0.45,0.89,-91.19,1.46,26.49
2026-07-27 14:42:08.708,-0.16,-0.52,0.85,-122.5,5.92,22.16
2026-07-27 14:42:08.772,-0.16,-0.52,0.85,-122.5,5.92,22.16
2026-07-27 14:42:08.772,-0.16,-0.58,0.79,-97.41,6.04,13.73
2026-07-27 14:42:08.772,-0.16,-0.58,0.79,-97.41,6.04,13.73
2026-07-27 14:42:08.828,-0.16,-0.63,0.75,-65.61,-1.59,7.75
2026-07-27 14:42:08.829,-0.16,-0.63,0.75,-65.61,-1.59,7.75
2026-07-27 14:42:08.887,-0.14,-0.67,0.74,-45.04,-10.68,6.23
2026-07-27 14:42:08.888,-0.13,-0.69,0.73,-29.11,-11.84,6.84
2026-07-27 14:42:08.888,-0.13,-0.69,0.73,-29.11,-11.84,6.84
2026-07-27 14:42:08.949,-0.14,-0.67,0.73,-18.86,-7.02,6.84
2026-07-27 14:42:08.949,-0.14,-0.67,0.73,-18.86,-7.02,6.84
2026-07-27 14:42:08.950,-0.15,-0.66,0.75,-15.2,-5.19,5.0
2026-07-27 14:42:09.008,-0.15,-0.66,0.75,-15.2,-5.19,5.0
2026-07-27 14:42:09.009,-0.15,-0.67,0.76,-13.24,-6.77,2.26
2026-07-27 14:42:09.067,-0.15,-0.67,0.76,-13.24,-6.77,2.26
2026-07-27 14:42:09.068,-0.15,-0.69,0.75,-14.47,-5.92,0.98
2026-07-27 14:42:09.068,-0.15,-0.69,0.75,-15.81,-1.4,1.22
2026-07-27 14:42:09.130,-0.15,-0.71,0.73,-15.81,-1.4,1.22
2026-07-27 14:42:09.189,-0.14,-0.71,0.71,-12.15,2.01,1.65
2026-07-27 14:42:09.189,-0.14,-0.71,0.71,-12.15,2.01,1.65
2026-07-27 14:42:09.189,-0.15,-0.71,0.69,-9.83,3.3,2.56
2026-07-27 14:42:09.189,-0.15,-0.71,0.69,-9.83,3.3,2.56
2026-07-27 14:42:09.308,-0.16,-0.72,0.68,-12.21,4.58,3.6
2026-07-27 14:42:09.308,-0.16,-0.72,0.68,-12.21,4.58,3.6
2026-07-27 14:42:09.309,-0.17,-0.72,0.67,-14.4,5.13,3.48
2026-07-27 14:42:09.309,-0.17,-0.72,0.67,-14.4,5.13,3.48
2026-07-27 14:42:09.309,-0.16,-0.72,0.66,-13.73,4.7,2.44
2026-07-27 14:42:09.310,-0.16,-0.72,0.66,-11.47,3.3,1.34
2026-07-27 14:42:09.369,-0.16,-0.73,0.64,-11.47,3.3,1.34
2026-07-27 14:42:09.369,-0.16,-0.73,0.62,-9.34,-0.31,0.61
2026-07-27 14:42:09.369,-0.16,-0.73,0.62,-9.34,-0.31,0.61
2026-07-27 14:42:09.432,-0.17,-0.74,0.62,-6.47,-5.49,0.0
2026-07-27 14:42:09.433,-0.17,-0.74,0.62,-6.47,-5.49,0.0
2026-07-27 14:42:09.488,-0.17,-0.74,0.63,-0.37,-10.31,-1.22
2026-07-27 14:42:09.489,-0.17,-0.74,0.63,-0.37,-10.31,-1.22
2026-07-27 14:42:09.490,-0.16,-0.72,0.65,18.25,-14.04,-3.17
2026-07-27 14:42:09.551,-0.16,-0.72,0.65,18.25,-14.04,-3.17
2026-07-27 14:42:09.551,-0.14,-0.67,0.69,58.53,-25.21,-6.47
2026-07-27 14:42:09.552,-0.11,-0.62,0.74,102.66,-49.99,-8.42
2026-07-27 14:42:09.610,-0.11,-0.62,0.74,102.66,-49.99,-8.42
2026-07-27 14:42:09.611,-0.06,-0.56,0.79,117.55,-73.18,-7.14
2026-07-27 14:42:09.611,-0.06,-0.56,0.79,117.55,-73.18,-7.14
2026-07-27 14:42:09.668,0.0,-0.51,0.84,100.71,-83.92,-8.12
2026-07-27 14:42:09.671,0.0,-0.51,0.84,100.71,-83.92,-8.12
2026-07-27 14:42:09.729,0.07,-0.49,0.9,67.87,-81.18,-13.98
2026-07-27 14:42:09.729,0.11,-0.48,0.93,25.39,-59.63,-28.93
2026-07-27 14:42:09.729,0.11,-0.48,0.93,25.39,-59.63,-28.93
2026-07-27 14:42:09.788,0.13,-0.46,0.89,-10.01,-32.41,-55.24
2026-07-27 14:42:09.788,0.13,-0.46,0.89,-10.01,-32.41,-55.24
2026-07-27 14:42:09.852,0.16,-0.47,0.84,-22.4,-20.14,-76.54
2026-07-27 14:42:09.852,0.16,-0.47,0.84,-22.4,-20.14,-76.54
2026-07-27 14:42:09.852,0.22,-0.51,0.86,-36.99,-15.08,-80.75
2026-07-27 14:42:09.908,0.28,-0.58,0.89,-78.8,5.37,-62.62
2026-07-27 14:42:09.908,0.28,-0.58,0.89,-78.8,5.37,-62.62
2026-07-27 14:42:09.970,0.26,-0.68,0.86,-133.42,42.97,-22.71
2026-07-27 14:42:09.971,0.26,-0.68,0.86,-133.42,42.97,-22.71
2026-07-27 14:42:09.971,0.17,-0.79,0.75,-195.74,79.96,5.86
2026-07-27 14:42:10.029,0.17,-0.79,0.75,-195.74,79.96,5.86
2026-07-27 14:42:10.030,0.11,-0.89,0.52,-278.26,92.96,-16.42
2026-07-27 14:42:10.031,0.11,-0.89,0.52,-383.0,73.43,-63.54
2026-07-27 14:42:10.088,0.17,-0.96,0.24,-383.0,73.43,-63.54
2026-07-27 14:42:10.089,0.23,-0.99,0.04,-390.81,43.95,-60.12
2026-07-27 14:42:10.154,0.23,-0.99,0.04,-390.81,43.95,-60.12
2026-07-27 14:42:10.154,0.18,-0.99,-0.07,-203.74,25.51,-2.2
2026-07-27 14:42:10.154,0.18,-0.99,-0.07,-203.74,25.51,-2.2
2026-07-27 14:42:10.208,0.13,-0.98,-0.06,24.54,13.92,43.15
2026-07-27 14:42:10.224,0.13,-0.98,-0.06,130.86,0.61,51.82
2026-07-27 14:42:10.225,0.1,-0.98,0.01,130.86,0.61,51.82
2026-07-27 14:42:10.270,0.08,-0.97,0.05,123.35,-18.31,48.34
2026-07-27 14:42:10.271,0.08,-0.97,0.05,123.35,-18.31,48.34
2026-07-27 14:42:10.328,0.04,-0.98,0.12,90.27,-38.94,46.14
2026-07-27 14:42:10.329,0.04,-0.98,0.12,90.27,-38.94,46.14
2026-07-27 14:42:10.329,0.02,-0.95,0.3,118.47,-60.3,50.72
2026-07-27 14:42:10.448,0.02,-0.95,0.3,318.3,-90.27,50.48
2026-07-27 14:42:10.449,0.04,-0.75,0.6,318.3,-90.27,50.48
2026-07-27 14:42:10.449,0.02,-0.47,0.86,555.91,-86.49,21.06
2026-07-27 14:42:10.449,0.02,-0.47,0.86,555.91,-86.49,21.06
2026-07-27 14:42:10.450,-0.03,-0.27,0.97,553.71,-14.59,-40.34
2026-07-27 14:42:10.510,-0.03,-0.27,0.97,553.71,-14.59,-40.34
2026-07-27 14:42:10.511,-0.01,-0.06,0.97,409.06,39.61,-115.48
2026-07-27 14:42:10.512,-0.01,-0.06,0.97,409.06,39.61,-115.48
2026-07-27 14:42:10.573,0.04,0.14,0.95,269.9,20.69,-131.65
2026-07-27 14:42:10.573,0.08,0.21,0.96,136.17,-15.44,-67.63
2026-07-27 14:42:10.645,0.08,0.21,0.96,136.17,-15.44,-67.63
2026-07-27 14:42:10.647,0.1,0.28,0.97,59.2,-29.3,-0.49
2026-07-27 14:42:10.647,0.1,0.28,0.97,59.2,-29.3,-0.49
2026-07-27 14:42:10.699,0.07,0.37,0.95,63.66,-23.86,28.2
2026-07-27 14:42:10.699,0.07,0.37,0.95,63.66,-23.86,28.2
2026-07-27 14:42:10.749,0.05,0.46,0.78,131.53,-28.26,24.17
2026-07-27 14:42:10.752,0.11,0.58,0.59,219.3,-113.53,1.59
2026-07-27 14:42:10.752,0.11,0.58,0.59,219.3,-113.53,1.59
2026-07-27 14:42:10.867,0.24,0.71,0.53,233.52,-239.32,-21.24
2026-07-27 14:42:10.868,0.24,0.71,0.53,233.52,-239.32,-21.24
2026-07-27 14:42:10.868,0.37,0.77,0.5,155.21,-282.53,-28.2
2026-07-27 14:42:10.869,0.37,0.77,0.5,155.21,-282.53,-28.2
2026-07-27 14:42:10.869,0.43,0.74,0.44,60.85,-245.36,-19.17
2026-07-27 14:42:10.930,0.46,0.7,0.33,-3.3,-191.83,0.24
2026-07-27 14:42:10.931,0.46,0.7,0.33,-3.3,-191.83,0.24
2026-07-27 14:42:10.932,0.52,0.71,0.22,-18.68,-169.49,17.27
2026-07-27 14:42:10.989,0.52,0.71,0.22,-18.68,-169.49,17.27
2026-07-27 14:42:11.013,0.61,0.78,0.17,-1.46,-177.73,22.71
2026-07-27 14:42:11.013,0.61,0.78,0.17,-1.46,-177.73,22.71
2026-07-27 14:42:11.056,0.64,0.88,0.12,11.96,-173.58,14.4
2026-07-27 14:42:11.058,0.64,0.88,0.12,-10.25,-137.63,4.39
2026-07-27 14:42:11.108,0.64,0.97,0.13,-10.25,-137.63,4.39
2026-07-27 14:42:11.108,0.68,0.98,0.28,-111.63,-68.79,18.92
2026-07-27 14:42:11.108,0.68,0.98,0.28,-111.63,-68.79,18.92
2026-07-27 14:42:11.168,0.8,0.73,0.55,-326.54,53.96,81.67
2026-07-27 14:42:11.169,0.8,0.73,0.55,-326.54,53.96,81.67
2026-07-27 14:42:11.231,0.93,0.28,0.85,-579.59,184.14,168.33
2026-07-27 14:42:11.231,0.93,0.28,0.85,-579.59,184.14,168.33
2026-07-27 14:42:11.231,0.91,-0.15,0.96,-634.77,216.13,180.05
2026-07-27 14:42:11.288,0.72,-0.41,0.79,-463.87,168.4,117.98
2026-07-27 14:42:11.289,0.72,-0.41,0.79,-463.87,168.4,117.98
2026-07-27 14:42:11.290,0.54,-0.57,0.61,-294.49,109.31,74.52
2026-07-27 14:42:11.350,0.54,-0.57,0.61,-294.49,109.31,74.52
2026-07-27 14:42:11.351,0.42,-0.71,0.53,-218.2,62.74,70.43
2026-07-27 14:42:11.410,0.42,-0.71,0.53,-188.54,42.97,87.28
2026-07-27 14:42:11.410,0.34,-0.84,0.49,-188.54,42.97,87.28
2026-07-27 14:42:11.411,0.24,-0.9,0.45,-155.21,40.22,107.48
2026-07-27 14:42:11.468,0.24,-0.9,0.45,-155.21,40.22,107.48
2026-07-27 14:42:11.468,0.14,-0.93,0.39,-102.78,37.6,115.11
2026-07-27 14:42:11.469,0.14,-0.93,0.39,-102.78,37.6,115.11
2026-07-27 14:42:11.530,0.07,-0.94,0.4,-18.37,27.1,102.54
2026-07-27 14:42:11.530,0.07,-0.94,0.4,115.54,20.94,72.45
2026-07-27 14:42:11.588,0.03,-0.84,0.47,115.54,20.94,72.45
2026-07-27 14:42:11.588,-0.01,-0.7,0.54,201.97,30.58,47.3
2026-07-27 14:42:11.589,-0.01,-0.7,0.54,201.97,30.58,47.3
2026-07-27 14:42:11.649,-0.06,-0.68,0.57,145.87,47.79,47.36
2026-07-27 14:42:11.649,-0.06,-0.68,0.57,145.87,47.79,47.36
2026-07-27 14:42:11.712,-0.15,-0.71,0.58,52.73,46.75,61.95
2026-07-27 14:42:11.712,-0.15,-0.71,0.58,52.73,46.75,61.95
2026-07-27 14:42:11.713,-0.15,-0.71,0.58,52.73,46.75,61.95
2026-07-27 14:42:11.771,-0.15,-0.71,0.58,52.73,46.75,61.95
2026-07-27 14:42:11.771,-0.18,-0.39,0.77,311.71,-21.61,48.28
2026-07-27 14:42:11.771,-0.13,-0.18,0.88,371.77,-23.8,47.06
2026-07-27 14:42:11.830,-0.13,-0.18,0.88,371.77,-23.8,47.06
2026-07-27 14:42:11.830,-0.14,-0.0,0.91,267.7,0.67,66.77
2026-07-27 14:42:11.888,-0.14,-0.0,0.91,267.7,0.67,66.77
2026-07-27 14:42:11.890,-0.18,0.17,0.91,182.01,16.54,79.16
2026-07-27 14:42:11.891,-0.18,0.17,0.91,182.01,16.54,79.16
2026-07-27 14:42:11.952,-0.21,0.32,0.91,123.96,12.82,73.36
2026-07-27 14:42:11.952,-0.23,0.41,0.86,92.96,-2.62,51.39
2026-07-27 14:42:11.953,-0.23,0.41,0.86,92.96,-2.62,51.39
2026-07-27 14:42:12.012,-0.19,0.5,0.76,141.42,-46.08,18.49
2026-07-27 14:42:12.012,-0.19,0.5,0.76,141.42,-46.08,18.49
2026-07-27 14:42:12.081,-0.12,0.66,0.71,241.82,-137.39,-20.39
2026-07-27 14:42:12.082,-0.12,0.66,0.71,241.82,-137.39,-20.39
2026-07-27 14:42:12.082,-0.12,0.8,0.64,278.69,-205.32,-60.36
2026-07-27 14:42:12.129,-0.12,0.8,0.64,211.43,-218.93,-79.83
2026-07-27 14:42:12.129,-0.04,0.81,0.53,211.43,-218.93,-79.83
2026-07-27 14:42:12.188,0.14,0.77,0.48,107.42,-233.83,-53.1
2026-07-27 14:42:12.189,0.14,0.77,0.48,107.42,-233.83,-53.1
2026-07-27 14:42:12.189,0.22,0.76,0.48,21.48,-239.75,-9.22
2026-07-27 14:42:12.253,0.22,0.76,0.48,21.48,-239.75,-9.22
2026-07-27 14:42:12.254,0.26,0.76,0.45,-23.07,-215.09,10.86
2026-07-27 14:42:12.257,0.26,0.76,0.45,-23.07,-215.09,10.86
2026-07-27 14:42:12.310,0.41,0.81,0.4,-18.25,-173.71,29.79
2026-07-27 14:42:12.311,0.58,0.87,0.37,13.98,-141.85,67.93
2026-07-27 14:42:12.380,0.58,0.87,0.37,13.98,-141.85,67.93
2026-07-27 14:42:12.384,0.67,0.9,0.36,32.29,-113.77,92.29
2026-07-27 14:42:12.384,0.67,0.9,0.36,32.29,-113.77,92.29
2026-07-27 14:42:12.428,0.7,0.86,0.37,10.68,-67.75,109.86
2026-07-27 14:42:12.429,0.7,0.86,0.37,10.68,-67.75,109.86
2026-07-27 14:42:12.429,0.75,0.69,0.38,-56.88,-43.21,180.6
2026-07-27 14:42:12.488,0.85,0.38,0.32,-113.77,-52.92,322.39
2026-07-27 14:42:12.489,0.85,0.38,0.32,-113.77,-52.92,322.39
2026-07-27 14:42:12.550,0.98,-0.01,0.26,-95.95,-23.93,458.13
2026-07-27 14:42:12.550,0.98,-0.01,0.26,-95.95,-23.93,458.13
2026-07-27 14:42:12.551,1.04,-0.32,0.28,-81.67,27.71,432.19
2026-07-27 14:42:12.608,1.04,-0.32,0.28,-81.67,27.71,432.19
2026-07-27 14:42:12.609,0.95,-0.44,0.31,-125.06,34.73,278.2
2026-07-27 14:42:12.676,0.83,-0.52,0.32,-153.08,22.89,189.82
2026-07-27 14:42:12.677,0.83,-0.52,0.32,-153.08,22.89,189.82
2026-07-27 14:42:12.678,0.74,-0.64,0.32,-130.74,25.39,173.22
2026-07-27 14:42:12.733,0.74,-0.64,0.32,-130.74,25.39,173.22
2026-07-27 14:42:12.733,0.68,-0.73,0.31,-90.94,42.48,152.59
2026-07-27 14:42:12.733,0.68,-0.73,0.31,-90.94,42.48,152.59
2026-07-27 14:42:12.789,0.6,-0.78,0.29,-65.43,65.25,126.28
2026-07-27 14:42:12.789,0.51,-0.82,0.25,-51.27,77.58,97.66
2026-07-27 14:42:12.853,0.51,-0.82,0.25,-51.27,77.58,97.66
2026-07-27 14:42:12.854,0.47,-0.9,0.21,-52.61,87.1,74.4
2026-07-27 14:42:12.854,0.47,-0.9,0.21,-52.61,87.1,74.4
2026-07-27 14:42:12.915,0.49,-0.99,0.2,-70.98,123.54,64.03
2026-07-27 14:42:12.915,0.49,-0.99,0.2,-70.98,123.54,64.03
2026-07-27 14:42:12.916,0.43,-1.01,0.21,-64.21,199.52,52.37
2026-07-27 14:42:12.971,0.22,-0.96,0.23,-4.76,267.03,47.12
2026-07-27 14:42:12.971,0.22,-0.96,0.23,-4.76,267.03,47.12
2026-07-27 14:42:13.032,0.05,-0.9,0.28,60.3,249.15,61.22
2026-07-27 14:42:13.032,0.05,-0.9,0.28,60.3,249.15,61.22
2026-07-27 14:42:13.032,-0.01,-0.89,0.37,88.2,167.18,73.61
2026-07-27 14:42:13.088,-0.01,-0.89,0.37,88.2,167.18,73.61
2026-07-27 14:42:13.089,-0.04,-0.88,0.47,96.68,105.16,71.11
2026-07-27 14:42:13.149,-0.04,-0.88,0.47,119.2,90.33,65.06
2026-07-27 14:42:13.149,-0.1,-0.81,0.53,119.2,90.33,65.06
2026-07-27 14:42:13.149,-0.19,-0.72,0.59,157.96,101.14,63.6
2026-07-27 14:42:13.208,-0.19,-0.72,0.59,157.96,101.14,63.6
2026-07-27 14:42:13.209,-0.28,-0.61,0.65,167.48,106.38,57.01
2026-07-27 14:42:13.209,-0.28,-0.61,0.65,167.48,106.38,57.01
2026-07-27 14:42:13.269,-0.35,-0.55,0.73,134.16,98.69,39.31
2026-07-27 14:42:13.269,-0.35,-0.55,0.73,134.16,98.69,39.31
2026-07-27 14:42:13.330,-0.41,-0.5,0.79,121.03,90.7,22.4
2026-07-27 14:42:13.331,-0.46,-0.4,0.81,187.07,81.3,15.44
2026-07-27 14:42:13.332,-0.46,-0.4,0.81,187.07,81.3,15.44
2026-07-27 14:42:13.388,-0.48,-0.19,0.8,315.31,60.73,11.23
2026-07-27 14:42:13.388,-0.48,-0.19,0.8,315.31,60.73,11.23
2026-07-27 14:42:13.449,-0.49,0.08,0.76,413.09,22.4,-5.68
2026-07-27 14:42:13.450,-0.49,0.08,0.76,413.09,22.4,-5.68
2026-07-27 14:42:13.450,-0.5,0.29,0.75,399.23,-21.85,-40.77
2026-07-27 14:42:13.515,-0.48,0.41,0.7,302.49,-36.99,-69.15
2026-07-27 14:42:13.515,-0.48,0.41,0.7,302.49,-36.99,-69.15
2026-07-27 14:42:13.516,-0.43,0.51,0.66,200.5,-35.46,-41.93
2026-07-27 14:42:13.568,-0.43,0.51,0.66,200.5,-35.46,-41.93
2026-07-27 14:42:13.569,-0.39,0.61,0.62,154.54,-42.97,11.41
2026-07-27 14:42:13.573,-0.39,0.61,0.62,154.54,-42.97,11.41
2026-07-27 14:42:13.659,-0.4,0.69,0.55,162.72,-47.97,30.46
2026-07-27 14:42:13.659,-0.39,0.74,0.46,170.1,-48.65,28.02
2026-07-27 14:42:13.689,-0.39,0.74,0.46,170.1,-48.65,28.02
2026-07-27 14:42:13.689,-0.35,0.79,0.35,186.58,-63.6,27.16
2026-07-27 14:42:13.689,-0.35,0.79,0.35,186.58,-63.6,27.16
2026-07-27 14:42:13.748,-0.31,0.89,0.23,230.71,-98.63,27.34
2026-07-27 14:42:13.749,-0.3,0.94,0.14,248.78,-140.87,16.24
2026-07-27 14:42:13.808,-0.3,0.94,0.14,248.78,-140.87,16.24
2026-07-27 14:42:13.809,-0.29,0.88,0.09,205.08,-181.46,-6.35
2026-07-27 14:42:13.810,-0.29,0.88,0.09,205.08,-181.46,-6.35
2026-07-27 14:42:13.868,-0.23,0.9,0.01,135.56,-190.67,-2.32
2026-07-27 14:42:13.869,-0.23,0.9,0.01,135.56,-190.67,-2.32
2026-07-27 14:42:13.937,-0.15,1.0,-0.1,93.57,-154.85,43.09
2026-07-27 14:42:13.938,-0.15,1.0,-0.1,99.06,-112.92,78.31
2026-07-27 14:42:13.938,-0.09,1.01,-0.17,99.06,-112.92,78.31
2026-07-27 14:42:13.989,-0.01,0.96,-0.23,136.78,-88.56,84.11
2026-07-27 14:42:13.989,-0.01,0.96,-0.23,136.78,-88.56,84.11
2026-07-27 14:42:14.109,0.06,0.94,-0.33,182.19,-71.41,82.15
2026-07-27 14:42:14.110,0.06,0.94,-0.33,182.19,-71.41,82.15
2026-07-27 14:42:14.110,0.08,0.92,-0.43,206.36,-57.56,72.57
2026-07-27 14:42:14.110,0.08,0.92,-0.43,206.36,-57.56,72.57
2026-07-27 14:42:14.110,0.08,0.91,-0.5,181.7,-37.35,53.83
2026-07-27 14:42:14.114,0.12,0.94,-0.52,92.29,14.95,32.9
2026-07-27 14:42:14.170,0.12,0.94,-0.52,92.29,14.95,32.9
2026-07-27 14:42:14.173,0.18,0.97,-0.49,-54.38,89.6,11.9
2026-07-27 14:42:14.234,0.18,0.97,-0.49,-54.38,89.6,11.9
2026-07-27 14:42:14.235,0.22,1.0,-0.4,-199.65,148.01,-19.41
2026-07-27 14:42:14.235,0.22,1.0,-0.4,-199.65,148.01,-19.41
2026-07-27 14:42:14.290,0.17,1.02,-0.27,-273.56,177.25,-72.75
2026-07-27 14:42:14.291,0.05,1.0,-0.06,-288.64,184.27,-122.68
2026-07-27 14:42:14.291,0.05,1.0,-0.06,-288.64,184.27,-122.68
2026-07-27 14:42:14.350,-0.08,0.93,0.19,-320.74,191.1,-125.67
2026-07-27 14:42:14.350,-0.08,0.93,0.19,-320.74,191.1,-125.67
2026-07-27 14:42:14.408,-0.21,0.82,0.45,-382.63,207.09,-80.57
2026-07-27 14:42:14.409,-0.21,0.82,0.45,-382.63,207.09,-80.57
2026-07-27 14:42:14.409,-0.3,0.67,0.67,-407.71,200.5,-20.2
2026-07-27 14:42:14.468,-0.34,0.5,0.8,-371.77,153.26,23.25
2026-07-27 14:42:14.468,-0.34,0.5,0.8,-371.77,153.26,23.25
2026-07-27 14:42:14.536,-0.36,0.33,0.86,-321.72,96.62,41.63
2026-07-27 14:42:14.537,-0.36,0.33,0.86,-321.72,96.62,41.63
2026-07-27 14:42:14.537,-0.38,0.16,0.89,-287.54,60.42,45.41
2026-07-27 14:42:14.588,-0.38,0.16,0.89,-277.22,44.43,42.6
2026-07-27 14:42:14.589,-0.4,-0.02,0.89,-277.22,44.43,42.6
2026-07-27 14:42:14.649,-0.42,-0.2,0.85,-288.57,46.57,33.57
2026-07-27 14:42:14.649,-0.42,-0.2,0.85,-288.57,46.57,33.57
2026-07-27 14:42:14.650,-0.47,-0.36,0.77,-304.02,59.69,17.4
2026-07-27 14:42:14.709,-0.47,-0.36,0.77,-304.02,59.69,17.4
2026-07-27 14:42:14.709,-0.53,-0.49,0.64,-294.19,58.96,-6.59
2026-07-27 14:42:14.709,-0.53,-0.49,0.64,-294.19,58.96,-6.59
2026-07-27 14:42:14.768,-0.53,-0.62,0.54,-244.63,29.05,-34.55
2026-07-27 14:42:14.769,-0.49,-0.72,0.48,-186.4,-14.83,-53.77
2026-07-27 14:42:14.830,-0.49,-0.72,0.48,-186.4,-14.83,-53.77
2026-07-27 14:42:14.830,-0.44,-0.79,0.44,-148.19,-60.18,-58.23
2026-07-27 14:42:14.831,-0.44,-0.79,0.44,-148.19,-60.18,-58.23
2026-07-27 14:42:14.888,-0.37,-0.83,0.4,-110.9,-96.92,-52.61
2026-07-27 14:42:14.889,-0.37,-0.83,0.4,-110.9,-96.92,-52.61
2026-07-27 14:42:14.889,-0.3,-0.85,0.39,-60.42,-107.12,-40.53
2026-07-27 14:42:14.951,-0.25,-0.88,0.41,-15.5,-94.79,-24.66
2026-07-27 14:42:14.951,-0.25,-0.88,0.41,-15.5,-94.79,-24.66
2026-07-27 14:42:15.008,-0.2,-0.89,0.47,26.31,-74.34,-5.92
2026-07-27 14:42:15.009,-0.2,-0.89,0.47,26.31,-74.34,-5.92
2026-07-27 14:42:15.010,-0.19,-0.86,0.59,87.89,-66.59,4.88
2026-07-27 14:42:15.068,-0.19,-0.86,0.59,87.89,-66.59,4.88
2026-07-27 14:42:15.069,-0.21,-0.78,0.69,157.41,-87.59,5.68
2026-07-27 14:42:15.069,-0.21,-0.78,0.69,157.41,-87.59,5.68
2026-07-27 14:42:15.131,-0.2,-0.68,0.74,178.04,-72.63,2.62
2026-07-27 14:42:15.132,-0.18,-0.61,0.8,142.09,15.26,-6.84
2026-07-27 14:42:15.188,-0.18,-0.61,0.8,142.09,15.26,-6.84
2026-07-27 14:42:15.188,-0.18,-0.57,0.82,106.81,77.45,-15.56
2026-07-27 14:42:15.189,-0.18,-0.57,0.82,106.81,77.45,-15.56
2026-07-27 14:42:15.249,-0.18,-0.54,0.8,106.51,69.64,-16.54
2026-07-27 14:42:15.249,-0.18,-0.54,0.8,106.51,69.64,-16.54
2026-07-27 14:42:15.251,-0.22,-0.46,0.78,123.29,51.88,-14.16
2026-07-27 14:42:15.308,-0.28,-0.32,0.74,107.24,52.37,-14.34
2026-07-27 14:42:15.309,-0.28,-0.32,0.74,107.24,52.37,-14.34
2026-07-27 14:42:15.369,-0.29,-0.3,0.77,-11.23,2.44,23.19
2026-07-27 14:42:15.369,-0.29,-0.3,0.77,-11.23,2.44,23.19
2026-07-27 14:42:15.369,-0.3,-0.43,0.84,-194.21,-99.06,114.93
2026-07-27 14:42:15.431,-0.3,-0.43,0.84,-194.21,-99.06,114.93
2026-07-27 14:42:15.431,-0.34,-0.53,0.83,-282.29,-140.5,154.66
2026-07-27 14:42:15.432,-0.34,-0.53,0.83,-282.29,-140.5,154.66
2026-07-27 14:42:15.488,-0.34,-0.53,0.83,-282.29,-140.5,154.66
2026-07-27 14:42:15.489,-0.34,-0.53,0.83,-282.29,-140.5,154.66
2026-07-27 14:42:15.549,-0.28,-0.72,0.76,-55.73,12.08,-7.26
2026-07-27 14:42:15.549,-0.26,-0.67,0.76,115.3,32.65,-33.33
2026-07-27 14:42:15.549,-0.26,-0.67,0.76,115.3,32.65,-33.33
2026-07-27 14:42:15.609,-0.25,-0.53,0.77,229.13,17.52,-14.53
2026-07-27 14:42:15.609,-0.25,-0.53,0.77,229.13,17.52,-14.53
2026-07-27 14:42:15.609,-0.24,-0.41,0.82,209.9,5.8,4.76
2026-07-27 14:42:15.677,-0.24,-0.41,0.82,209.9,5.8,4.76
2026-07-27 14:42:15.678,-0.23,-0.36,0.88,88.93,-8.54,7.75
2026-07-27 14:42:15.731,-0.23,-0.36,0.89,-43.03,-30.82,3.48
2026-07-27 14:42:15.731,-0.23,-0.36,0.89,-43.03,-30.82,3.48
2026-07-27 14:42:15.731,-0.22,-0.45,0.87,-131.96,-50.54,-0.85
2026-07-27 14:42:15.792,-0.22,-0.45,0.87,-131.96,-50.54,-0.85
2026-07-27 14:42:15.799,-0.18,-0.56,0.83,-160.46,-56.82,-9.16
2026-07-27 14:42:15.851,-0.18,-0.56,0.83,-160.46,-56.82,-9.16
2026-07-27 14:42:15.851,-0.14,-0.66,0.77,-144.47,-47.79,-18.31
2026-07-27 14:42:15.908,-0.1,-0.73,0.72,-103.58,-30.27,-22.95
2026-07-27 14:42:15.909,-0.1,-0.73,0.72,-103.58,-30.27,-22.95
2026-07-27 14:42:15.909,-0.08,-0.75,0.67,-48.34,-13.79,-21.55
2026-07-27 14:42:15.909,-0.08,-0.75,0.67,-48.34,-13.79,-21.55
2026-07-27 14:42:15.969,-0.07,-0.76,0.65,-15.01,-7.14,-15.81
2026-07-27 14:42:15.969,-0.07,-0.76,0.65,-15.01,-7.14,-15.81
2026-07-27 14:42:16.031,-0.06,-0.77,0.66,-20.45,-8.06,-10.38
2026-07-27 14:42:16.032,-0.06,-0.77,0.66,-23.38,-8.42,-6.29
2026-07-27 14:42:16.032,-0.06,-0.77,0.66,-23.38,-8.42,-6.29
2026-07-27 14:42:16.096,-0.06,-0.75,0.66,-3.48,-6.16,-2.38
2026-07-27 14:42:16.105,-0.06,-0.75,0.66,-3.48,-6.16,-2.38
2026-07-27 14:42:16.148,-0.07,-0.74,0.66,9.03,-3.05,0.31
2026-07-27 14:42:16.208,-0.07,-0.74,0.66,9.03,-3.05,0.31
2026-07-27 14:42:16.209,-0.07,-0.74,0.67,2.01,-0.37,0.55
2026-07-27 14:42:16.209,-0.07,-0.74,0.67,2.01,-0.37,0.55
2026-07-27 14:42:16.210,-0.07,-0.74,0.66,-4.15,0.43,-0.37
2026-07-27 14:42:16.210,-0.07,-0.74,0.66,-1.65,-0.18,-0.61
2026-07-27 14:42:16.333,-0.07,-0.75,0.66,-1.65,-0.18,-0.61
2026-07-27 14:42:16.334,-0.07,-0.75,0.66,-2.93,-1.95,-0.67
2026-07-27 14:42:16.334,-0.07,-0.75,0.66,-2.93,-1.95,-0.67
2026-07-27 14:42:16.334,-0.06,-0.76,0.66,-6.53,-3.78,-1.53
2026-07-27 14:42:16.334,-0.06,-0.76,0.66,-6.53,-3.78,-1.53
2026-07-27 14:42:16.404,-0.06,-0.76,0.65,-3.11,-4.33,-2.26
2026-07-27 14:42:16.404,-0.06,-0.76,0.65,-3.11,-4.33,-2.26
2026-07-27 14:42:16.404,-0.05,-0.76,0.65,1.46,-4.27,-2.32
2026-07-27 14:42:16.449,-0.05,-0.76,0.65,1.46,-4.27,-2.32
2026-07-27 14:42:16.467,-0.05,-0.76,0.66,0.85,-4.21,-2.08
2026-07-27 14:42:16.467,-0.05,-0.76,0.66,0.92,-3.48,-1.77
2026-07-27 14:42:16.508,-0.05,-0.76,0.66,0.92,-3.48,-1.77
2026-07-27 14:42:16.509,-0.05,-0.75,0.66,4.7,-2.69,-1.77
2026-07-27 14:42:16.509,-0.05,-0.75,0.66,4.7,-2.69,-1.77
2026-07-27 14:42:16.568,-0.05,-0.75,0.67,8.97,-2.75,-2.62
2026-07-27 14:42:16.568,-0.05,-0.75,0.67,8.97,-2.75,-2.62
2026-07-27 14:42:16.629,-0.04,-0.74,0.67,13.24,-2.44,-3.97
2026-07-27 14:42:16.629,-0.04,-0.74,0.67,13.24,-2.44,-3.97
2026-07-27 14:42:16.629,-0.04,-0.74,0.68,12.51,-1.28,-4.76
2026-07-27 14:42:16.689,-0.04,-0.74,0.68,12.51,-1.28,-4.76
2026-07-27 14:42:16.690,-0.03,-0.74,0.68,4.76,-0.61,-4.76
2026-07-27 14:42:16.692,-0.03,-0.74,0.68,-2.32,-0.43,-3.48
2026-07-27 14:42:16.748,-0.03,-0.74,0.68,-2.32,-0.43,-3.48
2026-07-27 14:42:16.749,-0.04,-0.74,0.67,-2.38,-0.06,-1.89
2026-07-27 14:42:16.749,-0.04,-0.74,0.67,-2.38,-0.06,-1.89
2026-07-27 14:42:16.807,-0.04,-0.74,0.67,1.83,-0.12,-1.28
2026-07-27 14:42:16.808,-0.04,-0.74,0.67,1.83,-0.12,-1.28
2026-07-27 14:42:16.870,-0.03,-0.74,0.68,3.78,-0.85,-0.98
2026-07-27 14:42:16.870,-0.03,-0.74,0.68,3.78,-0.85,-0.98
2026-07-27 14:42:16.870,-0.03,-0.74,0.69,2.75,-1.53,-0.92
2026-07-27 14:42:16.929,-0.03,-0.74,0.69,2.75,-1.53,-0.92
2026-07-27 14:42:16.930,-0.03,-0.74,0.69,2.2,-1.1,-0.92
2026-07-27 14:42:16.930,-0.03,-0.74,0.69,2.2,-1.1,-0.92
2026-07-27 14:42:16.989,-0.03,-0.74,0.69,3.66,0.06,-0.73
2026-07-27 14:42:16.990,-0.03,-0.73,0.68,4.52,0.55,-0.61
2026-07-27 14:42:16.991,-0.03,-0.73,0.68,4.52,0.55,-0.61
2026-07-27 14:42:17.048,-0.03,-0.73,0.69,3.11,0.12,-0.49
2026-07-27 14:42:17.049,-0.03,-0.73,0.69,3.11,0.12,-0.49
2026-07-27 14:42:17.119,-0.03,-0.73,0.69,2.93,-0.31,-0.43
2026-07-27 14:42:17.119,-0.03,-0.73,0.69,2.93,-0.31,-0.43
2026-07-27 14:42:17.119,-0.03,-0.73,0.69,4.82,-0.73,-0.55
2026-07-27 14:42:17.168,-0.03,-0.73,0.69,4.82,-0.73,-0.55
2026-07-27 14:42:17.169,-0.03,-0.72,0.7,7.26,-1.22,-0.92
2026-07-27 14:42:17.169,-0.03,-0.72,0.7,7.26,-1.22,-0.92
2026-07-27 14:42:17.228,-0.03,-0.72,0.7,7.63,-1.4,-0.98
2026-07-27 14:42:17.299,-0.03,-0.72,0.7,5.8,-1.71,-0.73
2026-07-27 14:42:17.299,-0.03,-0.72,0.7,5.8,-1.71,-0.73
2026-07-27 14:42:17.301,-0.02,-0.72,0.71,6.04,-1.95,-0.85
2026-07-27 14:42:17.302,-0.02,-0.72,0.71,6.04,-1.95,-0.85
2026-07-27 14:42:17.349,-0.02,-0.71,0.71,7.08,-1.71,-1.16
2026-07-27 14:42:17.350,-0.02,-0.71,0.71,7.08,-1.71,-1.16
2026-07-27 14:42:17.351,-0.02,-0.71,0.72,8.3,-0.92,-1.34
2026-07-27 14:42:17.414,-0.02,-0.71,0.72,8.3,-0.92,-1.34
2026-07-27 14:42:17.415,-0.02,-0.7,0.72,10.19,0.49,-1.77
2026-07-27 14:42:17.415,-0.02,-0.7,0.72,10.19,0.49,-1.77
2026-07-27 14:42:17.468,-0.02,-0.69,0.72,9.58,3.17,-2.5
2026-07-27 14:42:17.470,-0.02,-0.69,0.72,6.71,5.8,-2.2
2026-07-27 14:42:17.528,-0.03,-0.69,0.72,6.71,5.8,-2.2
2026-07-27 14:42:17.529,-0.03,-0.69,0.73,3.66,5.0,-0.92
2026-07-27 14:42:17.529,-0.03,-0.69,0.73,3.66,5.0,-0.92
2026-07-27 14:42:17.589,-0.03,-0.69,0.73,2.56,1.89,0.12
2026-07-27 14:42:17.589,-0.03,-0.69,0.73,2.56,1.89,0.12
2026-07-27 14:42:17.589,-0.03,-0.69,0.73,3.78,-0.92,0.55
2026-07-27 14:42:17.648,-0.03,-0.69,0.73,3.78,-0.92,0.55
2026-07-27 14:42:17.649,-0.03,-0.68,0.74,6.84,-2.99,0.0
2026-07-27 14:42:17.649,-0.03,-0.68,0.74,6.84,-2.99,0.0
2026-07-27 14:42:17.709,-0.03,-0.68,0.74,9.58,-3.72,-1.04
2026-07-27 14:42:17.710,-0.03,-0.68,0.74,7.45,-2.75,-1.16
2026-07-27 14:42:17.768,-0.02,-0.68,0.74,7.45,-2.75,-1.16
2026-07-27 14:42:17.770,-0.02,-0.68,0.74,2.62,-0.98,-0.24
2026-07-27 14:42:17.770,-0.02,-0.68,0.74,2.62,-0.98,-0.24
2026-07-27 14:42:17.831,-0.02,-0.68,0.74,-1.04,-0.06,0.55
2026-07-27 14:42:17.833,-0.02,-0.68,0.74,-1.04,-0.06,0.55
2026-07-27 14:42:17.893,-0.02,-0.68,0.74,-1.95,-0.55,0.37
2026-07-27 14:42:17.893,-0.02,-0.68,0.74,-1.95,-0.55,0.37
2026-07-27 14:42:17.893,-0.02,-0.68,0.74,0.12,-1.34,-0.31
2026-07-27 14:42:17.949,-0.02,-0.68,0.74,3.11,-1.53,-0.79
2026-07-27 14:42:17.949,-0.02,-0.68,0.74,3.11,-1.53,-0.79
2026-07-27 14:42:17.949,-0.01,-0.68,0.75,7.39,-1.04,-1.22
2026-07-27 14:42:18.015,-0.01,-0.68,0.75,7.39,-1.04,-1.22
2026-07-27 14:42:18.016,-0.01,-0.67,0.77,19.78,0.79,-2.62
2026-07-27 14:42:18.016,-0.01,-0.67,0.77,19.78,0.79,-2.62
2026-07-27 14:42:18.068,-0.01,-0.64,0.78,38.7,3.85,-4.76
2026-07-27 14:42:18.068,-0.01,-0.64,0.78,38.7,3.85,-4.76
2026-07-27 14:42:18.151,0.0,-0.62,0.81,50.9,5.8,-5.68
2026-07-27 14:42:18.152,0.0,-0.62,0.81,50.9,5.8,-5.68
2026-07-27 14:42:18.152,0.03,-0.62,0.85,59.88,8.61,-5.68
2026-07-27 14:42:18.188,0.06,-0.62,0.88,75.5,20.51,-4.88
2026-07-27 14:42:18.188,0.06,-0.62,0.88,75.5,20.51,-4.88
2026-07-27 14:42:18.189,0.1,-0.62,0.93,76.48,29.79,-1.46
2026-07-27 14:42:18.248,0.1,-0.62,0.93,76.48,29.79,-1.46
2026-07-27 14:42:18.248,0.17,-0.62,0.95,48.65,20.39,2.26
2026-07-27 14:42:18.311,0.17,-0.62,0.95,48.65,20.39,2.26
2026-07-27 14:42:18.311,0.2,-0.57,0.9,19.59,6.71,8.0
2026-07-27 14:42:18.311,0.2,-0.57,0.9,19.59,6.71,8.0
2026-07-27 14:42:18.369,0.18,-0.47,0.85,32.96,8.79,27.95
2026-07-27 14:42:18.370,0.09,-0.36,0.72,125.0,53.53,35.64
2026-07-27 14:42:18.371,0.09,-0.36,0.72,125.0,53.53,35.64
2026-07-27 14:42:18.438,-0.11,-0.32,0.45,208.98,123.66,17.94
2026-07-27 14:42:18.438,-0.11,-0.32,0.45,208.98,123.66,17.94
2026-07-27 14:42:18.491,-0.26,-0.28,0.26,178.65,125.49,26.61
2026-07-27 14:42:18.492,-0.26,-0.28,0.26,178.65,125.49,26.61
2026-07-27 14:42:18.492,-0.21,-0.14,0.25,87.46,44.68,72.33
2026-07-27 14:42:18.550,-0.11,0.04,0.16,13.85,-33.94,120.06
2026-07-27 14:42:18.550,-0.11,0.04,0.16,13.85,-33.94,120.06
2026-07-27 14:42:18.550,-0.03,0.21,0.09,-2.44,-82.4,144.65
2026-07-27 14:42:18.611,-0.03,0.21,0.09,-2.44,-82.4,144.65
2026-07-27 14:42:18.612,0.11,0.46,0.2,59.63,-114.81,139.16
2026-07-27 14:42:18.668,0.11,0.46,0.2,59.63,-114.81,139.16
2026-07-27 14:42:18.669,0.22,0.76,0.3,174.13,-127.99,118.1
2026-07-27 14:42:18.670,0.36,0.99,0.28,303.1,-132.39,86.24
2026-07-27 14:42:18.734,0.36,0.99,0.28,303.1,-132.39,86.24
2026-07-27 14:42:18.735,0.54,1.2,0.14,391.11,-136.29,58.9
2026-07-27 14:42:18.735,0.54,1.2,0.14,391.11,-136.29,58.9
2026-07-27 14:42:18.788,0.66,1.46,-0.05,381.84,-130.0,68.79
2026-07-27 14:42:18.789,0.66,1.46,-0.05,381.84,-130.0,68.79
2026-07-27 14:42:18.857,0.7,1.7,-0.18,320.25,-114.2,90.03
2026-07-27 14:42:18.859,0.64,1.91,-0.19,282.04,-104.0,85.02
2026-07-27 14:42:18.860,0.64,1.91,-0.19,282.04,-104.0,85.02
2026-07-27 14:42:18.912,0.52,2.04,-0.06,253.6,-103.39,68.85
2026-07-27 14:42:18.912,0.52,2.04,-0.06,253.6,-103.39,68.85
2026-07-27 14:42:18.968,0.47,2.01,0.13,181.09,-106.38,53.22
2026-07-27 14:42:18.969,0.47,2.01,0.13,181.09,-106.38,53.22
2026-07-27 14:42:18.969,0.56,1.75,0.29,58.04,-107.06,29.79
2026-07-27 14:42:19.031,0.67,1.36,0.31,-51.51,-96.31,-4.27
2026-07-27 14:42:19.032,0.67,1.36,0.31,-51.51,-96.31,-4.27
2026-07-27 14:42:19.089,0.65,1.07,0.2,-90.94,-71.9,-36.19
2026-07-27 14:42:19.089,0.65,1.07,0.2,-90.94,-71.9,-36.19
2026-07-27 14:42:19.090,0.48,0.99,0.08,-86.36,-44.56,-52.98
2026-07-27 14:42:19.148,0.48,0.99,0.08,-86.36,-44.56,-52.98
2026-07-27 14:42:19.149,0.29,1.05,0.01,-95.89,-20.45,-55.97
2026-07-27 14:42:19.149,0.29,1.05,0.01,-95.89,-20.45,-55.97
2026-07-27 14:42:19.208,0.15,1.1,0.02,-151.18,2.75,-51.76
2026-07-27 14:42:19.209,0.04,1.12,0.12,-224.06,18.13,-55.05
2026-07-27 14:42:19.210,0.04,1.12,0.12,-224.06,18.13,-55.05
2026-07-27 14:42:19.268,-0.09,1.11,0.24,-245.48,13.0,-86.85
2026-07-27 14:42:19.269,-0.09,1.11,0.24,-245.48,13.0,-86.85
2026-07-27 14:42:19.328,-0.26,1.05,0.29,-206.6,-27.34,-163.45
2026-07-27 14:42:19.330,-0.26,1.05,0.29,-206.6,-27.34,-163.45
2026-07-27 14:42:19.330,-0.38,0.86,0.35,-199.95,-105.41,-246.09
2026-07-27 14:42:19.388,-0.37,0.59,0.51,-254.21,-174.01,-258.3
2026-07-27 14:42:19.388,-0.37,0.59,0.51,-254.21,-174.01,-258.3
2026-07-27 14:42:19.454,-0.31,0.49,0.64,-277.04,-160.52,-198.91
2026-07-27 14:42:19.454,-0.31,0.49,0.64,-277.04,-160.52,-198.91
2026-07-27 14:42:19.455,-0.21,0.48,0.65,-233.64,-80.08,-135.01
2026-07-27 14:42:19.509,-0.21,0.48,0.65,-158.57,-8.0,-104.37
2026-07-27 14:42:19.509,-0.13,0.42,0.65,-158.57,-8.0,-104.37
2026-07-27 14:42:19.575,-0.16,0.38,0.66,-83.86,32.35,-99.0
2026-07-27 14:42:19.583,-0.16,0.38,0.66,-83.86,32.35,-99.0
2026-07-27 14:42:19.583,-0.22,0.36,0.67,-30.27,40.47,-119.38
2026-07-27 14:42:19.629,-0.22,0.36,0.67,-30.27,40.47,-119.38
2026-07-27 14:42:19.631,-0.24,0.32,0.69,5.74,21.67,-146.55
2026-07-27 14:42:19.631,-0.24,0.32,0.69,5.74,21.67,-146.55
2026-07-27 14:42:19.688,-0.26,0.33,0.75,50.29,6.9,-135.31
2026-07-27 14:42:19.688,-0.29,0.4,0.8,97.66,11.9,-86.79
2026-07-27 14:42:19.754,-0.29,0.4,0.8,97.66,11.9,-86.79
2026-07-27 14:42:19.754,-0.31,0.46,0.81,120.3,21.0,-34.91
2026-07-27 14:42:19.754,-0.31,0.46,0.81,120.3,21.0,-34.91
2026-07-27 14:42:19.808,-0.34,0.49,0.8,122.44,18.92,-1.4
2026-07-27 14:42:19.809,-0.34,0.51,0.85,113.28,-0.55,8.97
2026-07-27 14:42:19.871,-0.34,0.51,0.85,113.28,-0.55,8.97
2026-07-27 14:42:19.871,-0.3,0.52,0.88,92.16,-16.72,5.98
2026-07-27 14:42:19.871,-0.3,0.52,0.88,92.16,-16.72,5.98
2026-07-27 14:42:19.930,-0.28,0.52,0.89,64.64,-5.98,9.16
2026-07-27 14:42:19.931,-0.28,0.52,0.89,64.64,-5.98,9.16
2026-07-27 14:42:19.933,-0.29,0.54,0.9,42.36,13.31,28.63
2026-07-27 14:42:19.988,-0.29,0.54,0.9,42.36,13.31,28.63
2026-07-27 14:42:19.989,-0.27,0.58,0.92,25.51,21.3,48.34
2026-07-27 14:42:20.049,-0.24,0.58,0.93,11.84,22.46,52.19
2026-07-27 14:42:20.050,-0.24,0.58,0.93,11.84,22.46,52.19
2026-07-27 14:42:20.050,-0.21,0.58,0.94,4.82,20.26,49.07
2026-07-27 14:42:20.109,-0.21,0.58,0.94,4.82,20.26,49.07
2026-07-27 14:42:20.110,-0.2,0.57,0.96,-1.77,12.63,51.57
2026-07-27 14:42:20.110,-0.2,0.57,0.96,-1.77,12.63,51.57
2026-07-27 14:42:20.176,-0.18,0.56,1.01,-12.33,0.18,60.55
2026-07-27 14:42:20.176,-0.18,0.56,1.01,-33.75,-13.0,74.65
2026-07-27 14:42:20.230,-0.16,0.54,1.09,-33.75,-13.0,74.65
2026-07-27 14:42:20.232,-0.17,0.47,1.15,-66.35,-22.22,87.83
2026-07-27 14:42:20.233,-0.17,0.47,1.15,-66.35,-22.22,87.83
2026-07-27 14:42:20.288,-0.2,0.39,1.14,-88.44,-31.49,85.45
2026-07-27 14:42:20.288,-0.2,0.39,1.14,-88.44,-31.49,85.45
2026-07-27 14:42:20.289,-0.17,0.37,1.06,-89.78,-45.35,60.73
2026-07-27 14:42:20.350,-0.17,0.37,1.06,-89.78,-45.35,60.73
2026-07-27 14:42:20.350,-0.12,0.42,0.92,-81.18,-50.05,27.1
2026-07-27 14:42:20.408,-0.12,0.47,0.76,-68.3,-39.06,1.46
2026-07-27 14:42:20.409,-0.12,0.47,0.76,-68.3,-39.06,1.46
2026-07-27 14:42:20.409,-0.11,0.5,0.65,-52.31,-30.03,-12.21
2026-07-27 14:42:20.469,-0.11,0.5,0.65,-52.31,-30.03,-12.21
2026-07-27 14:42:20.469,-0.05,0.54,0.63,-38.64,-32.1,-17.21
2026-07-27 14:42:20.469,-0.05,0.54,0.63,-38.64,-32.1,-17.21
2026-07-27 14:42:20.529,0.04,0.57,0.63,-26.31,-34.18,-14.16
2026-07-27 14:42:20.551,0.04,0.57,0.63,-26.31,-34.18,-14.16
2026-07-27 14:42:20.592,0.07,0.57,0.58,-9.52,-20.75,-5.13
2026-07-27 14:42:20.592,-0.01,0.54,0.47,16.54,4.09,1.65
2026-07-27 14:42:20.592,-0.01,0.54,0.47,16.54,4.09,1.65
2026-07-27 14:42:20.648,-0.11,0.52,0.42,40.89,12.94,2.08
2026-07-27 14:42:20.649,-0.11,0.52,0.42,40.89,12.94,2.08
2026-07-27 14:42:20.649,-0.17,0.49,0.47,47.85,1.1,-2.38
2026-07-27 14:42:20.708,-0.17,0.49,0.47,47.85,1.1,-2.38
2026-07-27 14:42:20.709,-0.22,0.51,0.58,54.38,-8.85,-10.38
2026-07-27 14:42:20.769,-0.22,0.51,0.58,54.38,-8.85,-10.38
2026-07-27 14:42:20.769,-0.23,0.67,0.63,62.5,-10.8,-11.05
2026-07-27 14:42:20.769,-0.08,0.6,0.79,-28.5,-31.31,-4.7
2026-07-27 14:42:20.828,-0.08,0.6,0.79,-28.5,-31.31,-4.7
2026-07-27 14:42:20.829,0.14,0.3,1.1,-153.44,-58.29,-22.09
2026-07-27 14:42:20.829,0.14,0.3,1.1,-153.44,-58.29,-22.09
2026-07-27 14:42:20.890,0.22,0.11,1.29,-138.18,-28.99,-55.3
2026-07-27 14:42:20.890,0.22,0.11,1.29,-138.18,-28.99,-55.3
2026-07-27 14:42:20.948,0.23,0.0,1.29,-39.92,31.98,-74.95
2026-07-27 14:42:20.949,0.23,0.0,1.29,47.91,55.48,-81.79
2026-07-27 14:42:20.949,0.24,0.04,1.26,47.91,55.48,-81.79
2026-07-27 14:42:21.068,0.27,0.17,1.26,96.56,50.78,-79.22
2026-07-27 14:42:21.068,0.27,0.17,1.26,96.56,50.78,-79.22
2026-07-27 14:42:21.069,0.26,0.28,1.23,81.73,41.99,-64.51
2026-07-27 14:42:21.069,0.26,0.28,1.23,81.73,41.99,-64.51
2026-07-27 14:42:21.069,0.26,0.28,1.18,21.0,20.94,-32.96
2026-07-27 14:42:21.130,0.26,0.28,1.18,21.0,20.94,-32.96
2026-07-27 14:42:21.130,0.19,0.22,1.2,-25.39,13.06,12.82
2026-07-27 14:42:21.131,0.04,0.21,1.15,-40.41,50.35,52.25
2026-07-27 14:42:21.191,0.04,0.21,1.15,-40.41,50.35,52.25
2026-07-27 14:42:21.192,-0.09,0.18,1.0,-45.29,66.28,65.12
2026-07-27 14:42:21.193,-0.09,0.18,1.0,-45.29,66.28,65.12
2026-07-27 14:42:21.249,-0.14,0.15,0.94,-19.1,10.68,56.58
2026-07-27 14:42:21.250,-0.14,0.15,0.94,-19.1,10.68,56.58
2026-07-27 14:42:21.308,-0.17,0.25,0.95,70.13,-40.28,45.23
2026-07-27 14:42:21.309,-0.17,0.25,0.95,70.13,-40.28,45.23
2026-07-27 14:42:21.309,-0.24,0.5,0.88,157.04,-25.21,36.44
2026-07-27 14:42:21.368,-0.32,0.66,0.75,140.5,1.89,7.51
2026-07-27 14:42:21.369,-0.32,0.66,0.75,140.5,1.89,7.51
2026-07-27 14:42:21.428,-0.31,0.66,0.66,44.92,-13.98,-17.15
2026-07-27 14:42:21.428,-0.31,0.66,0.66,44.92,-13.98,-17.15
2026-07-27 14:42:21.429,-0.21,0.63,0.65,-35.58,-56.03,-10.13
2026-07-27 14:42:21.488,-0.21,0.63,0.65,-35.58,-56.03,-10.13
2026-07-27 14:42:21.489,-0.13,0.62,0.68,-59.57,-86.91,-4.94
2026-07-27 14:42:21.490,-0.13,0.62,0.68,-59.57,-86.91,-4.94
2026-07-27 14:42:21.608,-0.07,0.63,0.69,-42.6,-90.82,-19.04
2026-07-27 14:42:21.609,-0.04,0.66,0.65,-11.05,-77.51,-43.09
2026-07-27 14:42:21.609,-0.04,0.66,0.65,-11.05,-77.51,-43.09
2026-07-27 14:42:21.609,-0.01,0.68,0.56,10.68,-59.81,-66.59
2026-07-27 14:42:21.609,-0.01,0.68,0.56,10.68,-59.81,-66.59
2026-07-27 14:42:21.674,0.03,0.64,0.51,-0.24,-46.08,-78.19
2026-07-27 14:42:21.677,0.03,0.64,0.51,-0.24,-46.08,-78.19
2026-07-27 14:42:21.677,0.08,0.6,0.53,-14.77,-34.61,-68.79
2026-07-27 14:42:21.729,0.08,0.6,0.53,7.08,-16.78,-45.29
2026-07-27 14:42:21.730,0.09,0.59,0.58,7.08,-16.78,-45.29
2026-07-27 14:42:21.790,0.05,0.62,0.64,50.23,4.52,-23.56
2026-07-27 14:42:21.790,0.05,0.62,0.64,50.23,4.52,-23.56
2026-07-27 14:42:21.791,0.01,0.64,0.69,82.28,18.19,-12.39
2026-07-27 14:42:21.849,0.01,0.64,0.69,82.28,18.19,-12.39
2026-07-27 14:42:21.907,-0.02,0.67,0.75,95.03,24.78,-11.78
2026-07-27 14:42:21.915,-0.02,0.72,0.81,104.31,20.39,-20.75
2026-07-27 14:42:21.915,-0.02,0.72,0.81,104.31,20.39,-20.75
2026-07-27 14:42:21.915,0.02,0.77,0.88,107.48,2.81,-35.16
2026-07-27 14:42:21.968,0.02,0.77,0.88,107.48,2.81,-35.16
2026-07-27 14:42:21.969,0.09,0.81,0.91,96.68,-13.92,-47.24
2026-07-27 14:42:21.969,0.09,0.81,0.91,96.68,-13.92,-47.24
2026-07-27 14:42:22.031,0.17,0.84,0.9,76.78,-22.83,-48.65
2026-07-27 14:42:22.031,0.17,0.84,0.9,76.78,-22.83,-48.65
2026-07-27 14:42:22.031,0.22,0.86,0.85,47.0,-17.09,-33.08
2026-07-27 14:42:22.097,0.2,0.87,0.77,12.39,4.03,-5.55
2026-07-27 14:42:22.099,0.2,0.87,0.77,12.39,4.03,-5.55
2026-07-27 14:42:22.148,0.17,0.88,0.71,-16.91,17.88,19.84
2026-07-27 14:42:22.149,0.17,0.88,0.71,-16.91,17.88,19.84
2026-07-27 14:42:22.149,0.17,0.89,0.71,-38.76,18.49,36.87
2026-07-27 14:42:22.212,0.17,0.89,0.71,-38.76,18.49,36.87
2026-07-27 14:42:22.213,0.18,0.9,0.75,-58.53,22.22,49.19
2026-07-27 14:42:22.268,0.18,0.9,0.75,-79.53,26.55,58.29
2026-07-27 14:42:22.268,0.17,0.88,0.81,-79.53,26.55,58.29
2026-07-27 14:42:22.268,0.13,0.83,0.85,-102.36,22.4,66.28
2026-07-27 14:42:22.329,0.13,0.83,0.85,-102.36,22.4,66.28
2026-07-27 14:42:22.329,0.06,0.75,0.85,-122.86,13.0,74.22
2026-07-27 14:42:22.330,0.06,0.75,0.85,-122.86,13.0,74.22
2026-07-27 14:42:22.390,0.0,0.65,0.82,-132.81,-2.62,76.6
2026-07-27 14:42:22.392,0.0,0.65,0.82,-132.81,-2.62,76.6
2026-07-27 14:42:22.449,-0.02,0.55,0.76,-128.78,-21.3,70.56
2026-07-27 14:42:22.450,-0.03,0.47,0.69,-111.63,-34.24,58.65
2026-07-27 14:42:22.450,-0.03,0.47,0.69,-111.63,-34.24,58.65
2026-07-27 14:42:22.509,-0.04,0.4,0.63,-86.49,-39.79,43.4
2026-07-27 14:42:22.509,-0.04,0.4,0.63,-86.49,-39.79,43.4
2026-07-27 14:42:22.510,-0.04,0.36,0.6,-57.43,-37.78,26.31
2026-07-27 14:42:22.569,-0.04,0.36,0.6,-57.43,-37.78,26.31
2026-07-27 14:42:22.569,-0.02,0.35,0.57,-27.4,-28.56,9.28
2026-07-27 14:42:22.628,-0.01,0.37,0.56,-0.61,-14.1,-4.58
2026-07-27 14:42:22.629,-0.01,0.37,0.56,-0.61,-14.1,-4.58
2026-07-27 14:42:22.629,-0.01,0.41,0.56,22.03,2.81,-14.16
2026-07-27 14:42:22.690,-0.01,0.41,0.56,22.03,2.81,-14.16
2026-07-27 14:42:22.690,-0.03,0.45,0.59,41.63,19.29,-21.36
2026-07-27 14:42:22.690,-0.03,0.45,0.59,41.63,19.29,-21.36
2026-07-27 14:42:22.748,-0.07,0.51,0.65,59.51,33.33,-29.11
2026-07-27 14:42:22.748,-0.07,0.51,0.65,59.51,33.33,-29.11
2026-07-27 14:42:22.809,-0.08,0.58,0.73,76.23,39.86,-40.89
2026-07-27 14:42:22.809,-0.05,0.66,0.82,90.7,36.32,-57.31
2026-07-27 14:42:22.820,-0.05,0.66,0.82,90.7,36.32,-57.31
2026-07-27 14:42:22.871,0.01,0.73,0.88,100.52,26.06,-73.55
2026-07-27 14:42:22.871,0.01,0.73,0.88,100.52,26.06,-73.55
2026-07-27 14:42:22.933,0.09,0.78,0.92,101.56,16.97,-82.46
2026-07-27 14:42:22.933,0.09,0.78,0.92,101.56,16.97,-82.46
2026-07-27 14:42:22.933,0.16,0.81,0.92,91.67,16.48,-79.77
2026-07-27 14:42:22.991,0.21,0.83,0.9,78.37,19.17,-67.44
2026-07-27 14:42:22.991,0.21,0.83,0.9,78.37,19.17,-67.44
2026-07-27 14:42:22.991,0.25,0.85,0.88,67.5,15.69,-50.23
2026-07-27 14:42:23.048,0.25,0.85,0.88,67.5,15.69,-50.23
2026-07-27 14:42:23.049,0.27,0.86,0.86,53.71,7.93,-30.58
2026-07-27 14:42:23.049,0.27,0.86,0.86,53.71,7.93,-30.58
2026-07-27 14:42:23.109,0.24,0.83,0.85,32.29,4.09,-9.16
2026-07-27 14:42:23.110,0.24,0.83,0.85,32.29,4.09,-9.16
2026-07-27 14:42:23.168,0.18,0.79,0.85,9.77,4.33,10.93
2026-07-27 14:42:23.168,0.16,0.76,0.87,-6.9,0.49,25.76
2026-07-27 14:42:23.169,0.16,0.76,0.87,-6.9,0.49,25.76
2026-07-27 14:42:23.228,0.16,0.77,0.89,-19.47,-4.64,38.15
2026-07-27 14:42:23.229,0.16,0.77,0.89,-19.47,-4.64,38.15
2026-07-27 14:42:23.288,0.14,0.78,0.88,-34.0,-2.75,53.77
2026-07-27 14:42:23.289,0.14,0.78,0.88,-34.0,-2.75,53.77
2026-07-27 14:42:23.289,0.08,0.75,0.88,-54.14,3.85,70.86
2026-07-27 14:42:23.359,0.08,0.75,0.88,-54.14,3.85,70.86
2026-07-27 14:42:23.362,-0.01,0.7,0.84,-73.12,7.08,79.22
2026-07-27 14:42:23.363,-0.06,0.67,0.77,-81.48,-1.53,71.78
2026-07-27 14:42:23.411,-0.06,0.67,0.77,-81.48,-1.53,71.78
2026-07-27 14:42:23.411,-0.08,0.63,0.7,-80.51,-18.25,54.69
2026-07-27 14:42:23.412,-0.08,0.63,0.7,-80.51,-18.25,54.69
2026-07-27 14:42:23.468,-0.09,0.59,0.64,-72.33,-30.82,36.62
2026-07-27 14:42:23.469,-0.09,0.59,0.64,-72.33,-30.82,36.62
2026-07-27 14:42:23.530,-0.08,0.56,0.6,-57.62,-36.8,19.71
2026-07-27 14:42:23.530,-0.08,0.56,0.6,-40.28,-35.77,4.46
2026-07-27 14:42:23.531,-0.07,0.55,0.58,-40.28,-35.77,4.46
2026-07-27 14:42:23.589,-0.02,0.56,0.56,-22.46,-28.75,-8.54
2026-07-27 14:42:23.589,-0.02,0.56,0.56,-22.46,-28.75,-8.54
2026-07-27 14:42:23.650,0.06,0.6,0.54,-5.74,-21.18,-17.46
2026-07-27 14:42:23.650,0.06,0.6,0.54,-5.74,-21.18,-17.46
2026-07-27 14:42:23.651,0.09,0.63,0.52,7.69,-7.45,-17.09
2026-07-27 14:42:23.777,0.09,0.63,0.52,7.69,-7.45,-17.09
2026-07-27 14:42:23.786,0.06,0.63,0.54,18.98,11.96,-11.6
2026-07-27 14:42:23.786,0.06,0.63,0.54,18.98,11.96,-11.6
2026-07-27 14:42:23.786,0.02,0.63,0.58,31.49,22.52,-13.43
2026-07-27 14:42:23.786,-0.0,0.65,0.64,46.2,22.95,-24.96
2026-07-27 14:42:23.786,-0.0,0.65,0.64,46.2,22.95,-24.96
2026-07-27 14:42:23.830,-0.01,0.68,0.7,62.07,19.1,-40.34
2026-07-27 14:42:23.831,-0.01,0.68,0.7,62.07,19.1,-40.34
2026-07-27 14:42:23.888,0.02,0.72,0.76,76.29,9.89,-55.48
2026-07-27 14:42:23.889,0.07,0.76,0.82,82.76,-0.49,-66.41
2026-07-27 14:42:23.890,0.07,0.76,0.82,82.76,-0.49,-66.41
2026-07-27 14:42:23.952,0.13,0.79,0.85,75.81,-3.6,-67.57
2026-07-27 14:42:23.952,0.13,0.79,0.85,75.81,-3.6,-67.57
2026-07-27 14:42:24.009,0.17,0.8,0.83,59.81,0.92,-57.37
2026-07-27 14:42:24.009,0.17,0.8,0.83,59.81,0.92,-57.37
2026-07-27 14:42:24.010,0.18,0.81,0.8,44.01,5.68,-40.41
2026-07-27 14:42:24.068,0.18,0.81,0.8,44.01,5.68,-40.41
2026-07-27 14:42:24.069,0.17,0.82,0.76,30.7,5.86,-23.62
2026-07-27 14:42:24.131,0.15,0.83,0.73,19.23,2.87,-11.47
2026-07-27 14:42:24.131,0.15,0.83,0.73,19.23,2.87,-11.47
2026-07-27 14:42:24.131,0.15,0.84,0.71,10.44,-0.55,-4.09
2026-07-27 14:42:24.201,0.15,0.84,0.71,10.44,-0.55,-4.09
2026-07-27 14:42:24.202,0.18,0.84,0.7,5.25,-4.94,1.77
2026-07-27 14:42:24.203,0.18,0.84,0.7,5.25,-4.94,1.77
2026-07-27 14:42:24.249,0.19,0.84,0.69,-0.61,-7.75,11.6
2026-07-27 14:42:24.249,0.19,0.84,0.69,-0.61,-7.75,11.6
2026-07-27 14:42:24.250,0.14,0.82,0.68,-10.38,-3.48,26.73
2026-07-27 14:42:24.308,0.14,0.82,0.68,-22.52,3.97,40.53
2026-07-27 14:42:24.309,0.07,0.79,0.7,-22.52,3.97,40.53
2026-07-27 14:42:24.372,0.06,0.75,0.74,-33.08,4.46,46.08
2026-07-27 14:42:24.372,0.06,0.75,0.74,-33.08,4.46,46.08
2026-07-27 14:42:24.372,0.08,0.74,0.76,-39.12,-1.1,46.69
2026-07-27 14:42:24.428,0.08,0.74,0.76,-39.12,-1.1,46.69
2026-07-27 14:42:24.429,0.04,0.73,0.76,-45.17,-4.64,48.65
2026-07-27 14:42:24.430,0.04,0.73,0.76,-45.17,-4.64,48.65
2026-07-27 14:42:24.488,-0.01,0.7,0.73,-51.21,-9.58,47.85
2026-07-27 14:42:24.496,-0.01,0.7,0.73,-51.21,-9.58,47.85
2026-07-27 14:42:24.548,-0.05,0.67,0.66,-52.67,-20.02,38.82
2026-07-27 14:42:24.549,-0.06,0.65,0.58,-47.67,-29.72,23.19
2026-07-27 14:42:24.550,-0.06,0.65,0.58,-47.67,-29.72,23.19
2026-07-27 14:42:24.611,-0.04,0.64,0.52,-36.44,-35.1,5.49
2026-07-27 14:42:24.613,-0.04,0.64,0.52,-36.44,-35.1,5.49
2026-07-27 14:42:24.613,-0.01,0.63,0.49,-22.16,-34.85,-9.64
2026-07-27 14:42:24.674,-0.01,0.63,0.49,-22.16,-34.85,-9.64
2026-07-27 14:42:24.674,-0.01,0.64,0.48,-7.14,-26.55,-20.57
2026-07-27 14:42:24.730,-0.01,0.65,0.48,7.87,-15.69,-30.21
2026-07-27 14:42:24.730,-0.01,0.65,0.48,7.87,-15.69,-30.21
2026-07-27 14:42:24.731,0.02,0.71,0.5,21.61,-12.7,-41.44
2026-07-27 14:42:24.789,0.02,0.71,0.5,21.61,-12.7,-41.44
2026-07-27 14:42:24.790,0.06,0.78,0.5,30.58,-14.89,-54.2
2026-07-27 14:42:24.792,0.06,0.78,0.5,30.58,-14.89,-54.2
2026-07-27 14:42:24.849,0.08,0.83,0.47,31.74,-19.1,-64.76
2026-07-27 14:42:24.849,0.08,0.83,0.47,31.74,-19.1,-64.76
2026-07-27 14:42:24.916,0.07,0.86,0.52,32.9,-38.15,-76.9
2026-07-27 14:42:24.916,0.06,0.88,0.65,31.01,-58.41,-100.59
2026-07-27 14:42:24.916,0.06,0.88,0.65,31.01,-58.41,-100.59
2026-07-27 14:42:24.976,0.06,0.86,0.74,10.93,-53.59,-124.57
2026-07-27 14:42:24.978,0.06,0.86,0.74,10.93,-53.59,-124.57
2026-07-27 14:42:24.978,0.13,0.8,0.8,-29.3,-46.2,-124.45
2026-07-27 14:42:25.030,0.13,0.8,0.8,-29.3,-46.2,-124.45
2026-07-27 14:42:25.030,0.2,0.72,0.86,-55.24,-35.64,-99.37
2026-07-27 14:42:25.091,0.2,0.69,0.87,-43.21,-2.08,-66.47
2026-07-27 14:42:25.092,0.2,0.69,0.87,-43.21,-2.08,-66.47
2026-07-27 14:42:25.092,0.18,0.71,0.87,-18.49,26.12,-32.78
2026-07-27 14:42:25.161,0.18,0.71,0.87,-18.49,26.12,-32.78
2026-07-27 14:42:25.161,0.23,0.76,0.91,-14.04,38.09,5.98
2026-07-27 14:42:25.162,0.23,0.76,0.91,-14.04,38.09,5.98
2026-07-27 14:42:25.209,0.37,0.79,0.99,-43.09,58.04,54.93
2026-07-27 14:42:25.209,0.37,0.79,0.99,-43.09,58.04,54.93
2026-07-27 14:42:25.268,0.49,0.78,1.08,-76.66,67.26,102.6
2026-07-27 14:42:25.269,0.48,0.72,1.18,-78.37,24.9,130.19
2026-07-27 14:42:25.270,0.48,0.72,1.18,-78.37,24.9,130.19
2026-07-27 14:42:25.328,0.34,0.62,1.27,-60.73,-40.65,142.7
2026-07-27 14:42:25.329,0.34,0.62,1.27,-60.73,-40.65,142.7
2026-07-27 14:42:25.393,0.13,0.55,1.24,-60.06,-80.2,148.19
2026-07-27 14:42:25.394,0.13,0.55,1.24,-60.06,-80.2,148.19
2026-07-27 14:42:25.394,-0.04,0.49,1.07,-79.22,-98.94,133.24
2026-07-27 14:42:25.450,-0.13,0.43,0.84,-92.47,-117.8,90.88
2026-07-27 14:42:25.450,-0.13,0.43,0.84,-92.47,-117.8,90.88
2026-07-27 14:42:25.450,-0.14,0.36,0.62,-82.82,-131.16,37.9
2026-07-27 14:42:25.508,-0.14,0.36,0.62,-82.82,-131.16,37.9
2026-07-27 14:42:25.509,-0.11,0.32,0.46,-54.93,-123.35,-5.74
2026-07-27 14:42:25.567,-0.11,0.32,0.46,-54.93,-123.35,-5.74
2026-07-27 14:42:25.584,-0.07,0.31,0.39,-21.06,-92.59,-31.25
2026-07-27 14:42:25.584,-0.07,0.31,0.39,-21.06,-92.59,-31.25
2026-07-27 14:42:25.630,-0.04,0.34,0.37,11.54,-53.53,-44.43
2026-07-27 14:42:25.632,-0.03,0.37,0.41,38.57,-17.52,-53.77
2026-07-27 14:42:25.633,-0.03,0.37,0.41,38.57,-17.52,-53.77
2026-07-27 14:42:25.689,-0.05,0.41,0.5,51.57,18.37,-58.35
2026-07-27 14:42:25.690,-0.05,0.41,0.5,51.57,18.37,-58.35
2026-07-27 14:42:25.749,-0.07,0.45,0.63,46.94,58.9,-58.35
2026-07-27 14:42:25.749,-0.07,0.45,0.63,46.94,58.9,-58.35
2026-07-27 14:42:25.750,-0.05,0.52,0.79,30.94,104.37,-54.08
2026-07-27 14:42:25.825,0.02,0.64,0.94,5.13,161.32,-34.12
2026-07-27 14:42:25.825,0.02,0.64,0.94,5.13,161.32,-34.12
2026-07-27 14:42:25.869,0.12,0.74,1.05,-11.41,206.36,-7.32
2026-07-27 14:42:25.870,0.12,0.74,1.05,-11.41,206.36,-7.32
2026-07-27 14:42:25.870,0.19,0.76,1.15,13.98,187.74,-9.16
2026-07-27 14:42:25.959,0.19,0.76,1.15,13.98,187.74,-9.16
2026-07-27 14:42:25.960,0.26,0.71,1.27,62.13,118.84,-41.44
2026-07-27 14:42:25.960,0.35,0.69,1.3,81.6,57.86,-72.39
2026-07-27 14:42:25.994,0.35,0.69,1.3,81.6,57.86,-72.39
2026-07-27 14:42:25.995,0.43,0.71,1.2,62.56,23.93,-75.93
2026-07-27 14:42:26.048,0.43,0.71,1.2,62.56,23.93,-75.93
2026-07-27 14:42:26.049,0.43,0.73,1.06,28.87,8.91,-44.86
2026-07-27 14:42:26.049,0.43,0.73,1.06,28.87,8.91,-44.86
2026-07-27 14:42:26.108,0.37,0.69,0.99,2.38,2.08,3.54
2026-07-27 14:42:26.168,0.37,0.69,0.99,-13.18,-3.3,49.99
2026-07-27 14:42:26.168,0.33,0.61,1.04,-13.18,-3.3,49.99
2026-07-27 14:42:26.169,0.31,0.53,1.13,-29.54,-5.0,91.92
2026-07-27 14:42:26.169,0.31,0.53,1.13,-29.54,-5.0,91.92
2026-07-27 14:42:26.229,0.24,0.47,1.18,-55.11,-5.37,129.27
2026-07-27 14:42:26.229,0.24,0.47,1.18,-55.11,-5.37,129.27
2026-07-27 14:42:26.230,0.1,0.42,1.15,-83.68,-9.4,152.89
2026-07-27 14:42:26.289,0.1,0.42,1.15,-83.68,-9.4,152.89
2026-07-27 14:42:26.289,-0.05,0.38,1.06,-100.59,-23.25,145.45
2026-07-27 14:42:26.356,-0.13,0.35,0.93,-100.1,-48.16,102.29
2026-07-27 14:42:26.357,-0.13,0.35,0.93,-100.1,-48.16,102.29
2026-07-27 14:42:26.357,-0.13,0.35,0.81,-85.69,-69.58,42.36
2026-07-27 14:42:26.428,-0.13,0.35,0.81,-85.69,-69.58,42.36
2026-07-27 14:42:26.428,-0.07,0.38,0.72,-62.01,-78.19,-11.05
2026-07-27 14:42:26.431,-0.07,0.38,0.72,-62.01,-78.19,-11.05
2026-07-27 14:42:26.468,-0.01,0.4,0.67,-35.77,-75.62,-43.64
2026-07-27 14:42:26.470,-0.01,0.4,0.67,-14.1,-61.89,-53.53
2026-07-27 14:42:26.470,0.01,0.43,0.65,-14.1,-61.89,-53.53
2026-07-27 14:42:26.532,0.0,0.45,0.64,0.92,-41.44,-52.06
2026-07-27 14:42:26.532,0.0,0.45,0.64,0.92,-41.44,-52.06
2026-07-27 14:42:26.589,-0.0,0.46,0.64,10.74,-22.22,-50.35
2026-07-27 14:42:26.591,-0.0,0.46,0.64,10.74,-22.22,-50.35
2026-07-27 14:42:26.591,0.0,0.48,0.66,17.58,-4.52,-51.21
2026-07-27 14:42:26.655,0.0,0.48,0.66,17.58,-4.52,-51.21
2026-07-27 14:42:26.656,0.01,0.5,0.67,24.11,12.39,-54.2
2026-07-27 14:42:26.656,0.01,0.5,0.67,24.11,12.39,-54.2
2026-07-27 14:42:26.719,0.04,0.52,0.69,31.62,28.63,-57.43
2026-07-27 14:42:26.726,0.06,0.56,0.72,41.26,44.8,-59.27
2026-07-27 14:42:26.770,0.06,0.56,0.72,41.26,44.8,-59.27
2026-07-27 14:42:26.770,0.09,0.61,0.77,53.65,60.06,-59.63
2026-07-27 14:42:26.771,0.09,0.61,0.77,53.65,60.06,-59.63
2026-07-27 14:42:26.830,0.13,0.68,0.83,67.99,72.45,-59.08
2026-07-27 14:42:26.831,0.13,0.68,0.83,67.99,72.45,-59.08
2026-07-27 14:42:26.831,0.18,0.74,0.91,79.96,79.16,-56.88
2026-07-27 14:42:26.894,0.23,0.77,1.0,83.37,79.04,-49.38
2026-07-27 14:42:26.897,0.23,0.77,1.0,83.37,79.04,-49.38
2026-07-27 14:42:26.949,0.29,0.74,1.12,73.36,75.38,-31.68
2026-07-27 14:42:26.950,0.29,0.74,1.12,73.36,75.38,-31.68
2026-07-27 14:42:26.950,0.35,0.67,1.23,52.25,71.96,-4.76
2026-07-27 14:42:27.020,0.35,0.67,1.23,52.25,71.96,-4.76
2026-07-27 14:42:27.020,0.37,0.58,1.33,20.87,63.96,25.21
2026-07-27 14:42:27.021,0.37,0.58,1.33,20.87,63.96,25.21
2026-07-27 14:42:27.069,0.31,0.52,1.35,-22.34,43.58,51.21
2026-07-27 14:42:27.069,0.23,0.55,1.26,-65.19,7.45,65.25
2026-07-27 14:42:27.132,0.23,0.55,1.26,-65.19,7.45,65.25
2026-07-27 14:42:27.132,0.2,0.63,1.15,-93.44,-38.02,68.18
2026-07-27 14:42:27.132,0.2,0.63,1.15,-93.44,-38.02,68.18
2026-07-27 14:42:27.188,0.16,0.68,1.1,-106.38,-76.84,65.61
2026-07-27 14:42:27.188,0.16,0.68,1.1,-106.38,-76.84,65.61
2026-07-27 14:42:27.250,0.03,0.61,1.04,-110.53,-93.38,47.3
2026-07-27 14:42:27.250,-0.14,0.47,0.9,-109.5,-96.5,8.48
2026-07-27 14:42:27.250,-0.14,0.47,0.9,-109.5,-96.5,8.48
2026-07-27 14:42:27.310,-0.19,0.37,0.73,-93.57,-113.04,-33.39
2026-07-27 14:42:27.311,-0.19,0.37,0.73,-93.57,-113.04,-33.39
2026-07-27 14:42:27.314,-0.15,0.38,0.59,-58.11,-138.06,-65.61
2026-07-27 14:42:27.368,-0.15,0.38,0.59,-58.11,-138.06,-65.61
2026-07-27 14:42:27.369,-0.11,0.44,0.47,-18.98,-144.17,-81.91
2026-07-27 14:42:27.429,-0.11,0.44,0.47,6.16,-121.22,-76.35
2026-07-27 14:42:27.429,-0.16,0.49,0.38,6.16,-121.22,-76.35
2026-07-27 14:42:27.430,-0.31,0.46,0.39,24.96,-77.15,-60.06
2026-07-27 14:42:27.489,-0.31,0.46,0.39,24.96,-77.15,-60.06
2026-07-27 14:42:27.489,-0.37,0.46,0.55,67.02,-42.91,-77.58
2026-07-27 14:42:27.490,-0.37,0.46,0.55,67.02,-42.91,-77.58
2026-07-27 14:42:27.548,-0.15,0.59,0.7,102.05,-49.07,-140.87
2026-07-27 14:42:27.608,-0.15,0.59,0.7,102.05,-49.07,-140.87
2026-07-27 14:42:27.608,0.23,0.75,0.75,58.84,-52.12,-159.97
2026-07-27 14:42:27.609,0.53,0.78,0.77,-32.71,2.69,-81.79
2026-07-27 14:42:27.611,0.53,0.78,0.77,-32.71,2.69,-81.79
2026-07-27 14:42:27.668,0.68,0.67,0.87,-83.01,77.21,23.93
2026-07-27 14:42:27.669,0.68,0.67,0.87,-83.01,77.21,23.93
2026-07-27 14:42:27.732,0.77,0.54,0.99,-69.46,105.96,77.39
2026-07-27 14:42:27.733,0.77,0.54,0.99,-69.46,105.96,77.39
2026-07-27 14:42:27.733,0.9,0.48,1.06,-34.48,80.02,68.42
2026-07-27 14:42:27.792,0.9,0.48,1.06,-13.79,35.46,44.62
2026-07-27 14:42:27.793,1.0,0.46,1.06,-13.79,35.46,44.62
2026-07-27 14:42:27.793,1.04,0.47,1.06,-4.58,-6.41,36.38
2026-07-27 14:42:27.850,1.04,0.47,1.06,-4.58,-6.41,36.38
2026-07-27 14:42:27.850,1.02,0.48,1.08,2.5,-50.35,37.54
2026-07-27 14:42:27.908,1.02,0.48,1.08,2.5,-50.35,37.54
2026-07-27 14:42:27.910,0.93,0.49,1.08,3.54,-93.69,48.1
2026-07-27 14:42:27.910,0.93,0.49,1.08,0.55,-131.71,62.01
2026-07-27 14:42:27.968,0.79,0.48,1.04,0.55,-131.71,62.01
2026-07-27 14:42:27.969,0.64,0.44,0.95,-3.66,-158.81,69.58
2026-07-27 14:42:27.969,0.64,0.44,0.95,-3.66,-158.81,69.58
2026-07-27 14:42:28.035,0.47,0.39,0.78,-9.95,-164.0,71.78
2026-07-27 14:42:28.035,0.47,0.39,0.78,-9.95,-164.0,71.78
2026-07-27 14:42:28.089,0.33,0.33,0.6,-12.94,-148.25,64.21
2026-07-27 14:42:28.089,0.33,0.33,0.6,-12.94,-148.25,64.21
2026-07-27 14:42:28.089,0.24,0.28,0.48,-9.7,-119.81,46.26
2026-07-27 14:42:28.157,0.2,0.24,0.41,-4.46,-83.5,24.6
2026-07-27 14:42:28.158,0.2,0.24,0.41,-4.46,-83.5,24.6
2026-07-27 14:42:28.210,0.18,0.23,0.39,0.06,-44.8,2.26
2026-07-27 14:42:28.210,0.18,0.23,0.39,0.06,-44.8,2.26
2026-07-27 14:42:28.211,0.18,0.23,0.38,3.3,-8.0,-16.72
2026-07-27 14:42:28.268,0.18,0.23,0.38,3.3,-8.0,-16.72
2026-07-27 14:42:28.269,0.16,0.24,0.39,5.31,27.47,-29.66
2026-07-27 14:42:28.269,0.16,0.24,0.39,5.31,27.47,-29.66
2026-07-27 14:42:28.333,0.16,0.26,0.44,7.69,62.56,-40.95
2026-07-27 14:42:28.334,0.19,0.31,0.54,8.06,93.08,-53.53
2026-07-27 14:42:28.335,0.19,0.31,0.54,8.06,93.08,-53.53
2026-07-27 14:42:28.388,0.26,0.38,0.68,1.34,116.52,-63.72
2026-07-27 14:42:28.389,0.26,0.38,0.68,1.34,116.52,-63.72
2026-07-27 14:42:28.450,0.35,0.46,0.86,-10.25,139.47,-67.44
2026-07-27 14:42:28.450,0.35,0.46,0.86,-10.25,139.47,-67.44
2026-07-27 14:42:28.450,0.42,0.54,1.03,-22.71,168.88,-64.88
2026-07-27 14:42:28.517,0.42,0.54,1.03,-22.71,168.88,-64.88
2026-07-27 14:42:28.518,0.5,0.61,1.18,-31.86,195.19,-60.91
2026-07-27 14:42:28.568,0.64,0.63,1.34,-37.23,199.4,-51.15
2026-07-27 14:42:28.569,0.64,0.63,1.34,-37.23,199.4,-51.15
2026-07-27 14:42:28.569,0.75,0.62,1.44,-32.84,201.84,-13.12
2026-07-27 14:42:28.629,0.75,0.62,1.44,-32.84,201.84,-13.12
2026-07-27 14:42:28.629,0.71,0.63,1.41,-18.55,191.22,33.81
2026-07-27 14:42:28.630,0.71,0.63,1.41,-18.55,191.22,33.81
2026-07-27 14:42:28.688,0.57,0.59,1.3,-16.24,145.69,52.67
2026-07-27 14:42:28.689,0.39,0.53,1.18,-27.1,101.56,56.27
2026-07-27 14:42:28.689,0.39,0.53,1.18,-27.1,101.56,56.27
2026-07-27 14:42:28.753,0.22,0.43,1.18,-42.72,65.12,60.24
2026-07-27 14:42:28.753,0.22,0.43,1.18,-42.72,65.12,60.24
2026-07-27 14:42:28.809,0.08,0.31,1.31,-57.25,27.65,63.66
2026-07-27 14:42:28.809,0.08,0.31,1.31,-57.25,27.65,63.66
2026-07-27 14:42:28.809,-0.07,0.21,1.39,-61.22,-6.59,67.2
2026-07-27 14:42:28.870,-0.07,0.21,1.39,-61.22,-6.59,67.2
2026-07-27 14:42:28.873,-0.2,0.15,1.32,-63.9,-44.62,65.86
2026-07-27 14:42:28.930,-0.27,0.11,1.12,-67.2,-91.37,52.12
2026-07-27 14:42:28.930,-0.27,0.11,1.12,-67.2,-91.37,52.12
2026-07-27 14:42:28.930,-0.25,0.1,0.83,-60.91,-133.42,26.79
2026-07-27 14:42:28.989,-0.25,0.1,0.83,-60.91,-133.42,26.79
2026-07-27 14:42:28.989,-0.18,0.14,0.57,-44.56,-149.9,-2.62
2026-07-27 14:42:28.989,-0.18,0.14,0.57,-44.56,-149.9,-2.62
2026-07-27 14:42:29.049,-0.12,0.18,0.41,-22.22,-136.23,-26.55
2026-07-27 14:42:29.052,-0.08,0.22,0.35,2.26,-105.59,-40.65
2026-07-27 14:42:29.108,-0.08,0.22,0.35,2.26,-105.59,-40.65
2026-07-27 14:42:29.109,-0.08,0.26,0.34,28.75,-76.23,-47.49
2026-07-27 14:42:29.109,-0.08,0.26,0.34,28.75,-76.23,-47.49
2026-07-27 14:42:29.179,-0.09,0.32,0.37,61.52,-59.45,-53.47
2026-07-27 14:42:29.180,-0.09,0.32,0.37,61.52,-59.45,-53.47
2026-07-27 14:42:29.180,-0.06,0.41,0.47,94.6,-36.93,-60.0
2026-07-27 14:42:29.230,-0.06,0.41,0.47,94.6,-36.93,-60.0
2026-07-27 14:42:29.231,-0.06,0.41,0.47,94.6,-36.93,-60.0
2026-07-27 14:42:29.231,-0.06,0.41,0.47,94.6,-36.93,-60.0
2026-07-27 14:42:29.289,-0.07,0.55,0.76,85.75,106.93,-48.34
2026-07-27 14:42:29.290,-0.07,0.55,0.76,75.38,139.71,-42.18
2026-07-27 14:42:29.349,-0.06,0.61,0.92,75.38,139.71,-42.18
2026-07-27 14:42:29.350,-0.02,0.67,1.06,78.98,130.43,-44.56
2026-07-27 14:42:29.350,-0.02,0.67,1.06,78.98,130.43,-44.56
2026-07-27 14:42:29.409,0.02,0.73,1.16,79.65,114.44,-51.27
2026-07-27 14:42:29.409,0.02,0.73,1.16,79.65,114.44,-51.27
2026-07-27 14:42:29.409,0.16,0.82,1.24,69.82,88.13,-62.07
2026-07-27 14:42:29.468,0.16,0.82,1.24,69.82,88.13,-62.07
2026-07-27 14:42:29.469,0.36,0.88,1.24,45.41,53.22,-61.58
2026-07-27 14:42:29.529,0.48,0.85,1.18,9.95,31.25,-34.12
2026-07-27 14:42:29.530,0.48,0.85,1.18,9.95,31.25,-34.12
2026-07-27 14:42:29.530,0.5,0.75,1.11,-20.14,20.75,7.02
2026-07-27 14:42:29.592,0.5,0.75,1.11,-20.14,20.75,7.02
2026-07-27 14:42:29.593,0.45,0.63,1.05,-37.41,11.72,41.81
2026-07-27 14:42:29.593,0.45,0.63,1.05,-37.41,11.72,41.81
2026-07-27 14:42:29.648,0.36,0.52,1.03,-42.11,-0.98,61.16
2026-07-27 14:42:29.649,0.36,0.52,1.03,-42.11,-0.98,61.16
2026-07-27 14:42:29.708,0.31,0.47,1.12,-34.42,-21.67,65.73
2026-07-27 14:42:29.709,0.31,0.47,1.12,-25.39,-44.86,64.39
2026-07-27 14:42:29.709,0.32,0.57,1.24,-25.39,-44.86,64.39
2026-07-27 14:42:29.768,0.31,0.7,1.26,-35.52,-60.24,71.11
2026-07-27 14:42:29.769,0.31,0.7,1.26,-35.52,-60.24,71.11
2026-07-27 14:42:29.770,0.17,0.72,1.13,-64.58,-68.05,88.44
2026-07-27 14:42:29.831,0.17,0.72,1.13,-64.58,-68.05,88.44
2026-07-27 14:42:29.832,-0.02,0.6,0.94,-86.06,-79.65,94.42
2026-07-27 14:42:29.833,-0.02,0.6,0.94,-86.06,-79.65,94.42
2026-07-27 14:42:29.890,-0.13,0.47,0.75,-83.37,-96.68,71.11
2026-07-27 14:42:29.891,-0.12,0.38,0.6,-62.32,-106.45,28.38
2026-07-27 14:42:29.950,-0.12,0.38,0.6,-62.32,-106.45,28.38
2026-07-27 14:42:29.950,-0.06,0.36,0.51,-36.25,-98.45,-10.56
2026-07-27 14:42:30.009,-0.06,0.36,0.51,-36.25,-98.45,-10.56
2026-07-27 14:42:30.009,-0.02,0.35,0.47,-15.93,-71.29,-30.21
2026-07-27 14:42:30.009,-0.01,0.36,0.48,-2.38,-32.96,-32.17
2026-07-27 14:42:30.069,-0.01,0.36,0.48,-2.38,-32.96,-32.17
2026-07-27 14:42:30.069,-0.01,0.36,0.54,7.81,4.52,-27.65
2026-07-27 14:42:30.069,-0.01,0.36,0.54,7.81,4.52,-27.65
2026-07-27 14:42:30.128,-0.01,0.36,0.6,12.21,32.78,-23.93
2026-07-27 14:42:30.129,-0.01,0.36,0.6,12.21,32.78,-23.93
2026-07-27 14:42:30.195,0.0,0.37,0.64,12.94,48.95,-24.35
2026-07-27 14:42:30.196,0.0,0.37,0.64,12.94,48.95,-24.35
2026-07-27 14:42:30.196,0.03,0.4,0.7,15.44,58.72,-31.19
2026-07-27 14:42:30.249,0.07,0.45,0.79,20.94,70.98,-42.85
2026-07-27 14:42:30.249,0.07,0.45,0.79,20.94,70.98,-42.85
2026-07-27 14:42:30.314,0.11,0.5,0.92,30.15,82.52,-56.88
2026-07-27 14:42:30.314,0.11,0.5,0.92,30.15,82.52,-56.88
2026-07-27 14:42:30.315,0.18,0.58,1.07,40.47,84.72,-71.59
2026-07-27 14:42:30.370,0.18,0.58,1.07,40.47,84.72,-71.59
2026-07-27 14:42:30.370,0.29,0.68,1.16,43.58,74.34,-81.42
2026-07-27 14:42:30.370,0.29,0.68,1.16,34.24,51.15,-77.88
2026-07-27 14:42:30.432,0.46,0.77,1.16,34.24,51.15,-77.88
2026-07-27 14:42:30.433,0.61,0.78,1.15,14.71,27.22,-52.73
2026-07-27 14:42:30.433,0.61,0.78,1.15,14.71,27.22,-52.73
2026-07-27 14:42:30.488,0.64,0.67,1.15,-9.52,19.84,-5.68
2026-07-27 14:42:30.488,0.64,0.67,1.15,-9.52,19.84,-5.68
2026-07-27 14:42:30.548,0.53,0.5,1.15,-30.76,25.33,44.01
2026-07-27 14:42:30.549,0.53,0.5,1.15,-30.76,25.33,44.01
2026-07-27 14:42:30.549,0.4,0.37,1.17,-38.94,20.08,70.86
2026-07-27 14:42:30.610,0.4,0.37,1.17,-38.94,20.08,70.86
2026-07-27 14:42:30.611,0.35,0.36,1.24,-28.5,-11.29,67.32
2026-07-27 14:42:30.611,0.36,0.45,1.28,-16.97,-53.96,52.73
2026-07-27 14:42:30.668,0.36,0.45,1.28,-16.97,-53.96,52.73
2026-07-27 14:42:30.669,0.33,0.56,1.22,-25.82,-81.18,52.67
2026-07-27 14:42:30.730,0.33,0.56,1.22,-25.82,-81.18,52.67
2026-07-27 14:42:30.731,0.22,0.58,1.08,-48.03,-89.84,67.69
2026-07-27 14:42:30.732,0.22,0.58,1.08,-48.03,-89.84,67.69
2026-07-27 14:42:30.789,0.08,0.52,0.91,-63.66,-93.32,78.19
2026-07-27 14:42:30.789,-0.01,0.42,0.74,-62.87,-97.6,69.89
2026-07-27 14:42:30.789,-0.01,0.42,0.74,-62.87,-97.6,69.89
2026-07-27 14:42:30.860,-0.01,0.34,0.61,-46.51,-100.16,45.1
2026-07-27 14:42:30.861,-0.01,0.34,0.61,-46.51,-100.16,45.1
2026-07-27 14:42:30.915,0.04,0.29,0.54,-23.74,-94.54,18.25
2026-07-27 14:42:30.917,0.04,0.29,0.54,-23.74,-94.54,18.25
2026-07-27 14:42:30.917,0.11,0.26,0.51,-4.46,-78.98,1.04
2026-07-27 14:42:30.968,0.11,0.26,0.51,7.26,-56.15,-5.68
2026-07-27 14:42:30.968,0.15,0.24,0.48,7.26,-56.15,-5.68
2026-07-27 14:42:31.028,0.17,0.21,0.44,10.01,-25.82,-5.0
2026-07-27 14:42:31.029,0.17,0.21,0.44,10.01,-25.82,-5.0
2026-07-27 14:42:31.030,0.14,0.16,0.39,3.6,10.56,2.08
2026-07-27 14:42:31.088,0.14,0.16,0.39,3.6,10.56,2.08
2026-07-27 14:42:31.089,0.03,0.1,0.34,-9.64,51.94,16.6
2026-07-27 14:42:31.089,0.03,0.1,0.34,-9.64,51.94,16.6
2026-07-27 14:42:31.150,-0.16,0.03,0.24,-34.67,106.87,45.59
2026-07-27 14:42:31.151,-0.16,0.03,0.24,-34.67,106.87,45.59
2026-07-27 14:42:31.151,-0.4,0.09,0.24,-41.32,186.95,74.4
2026-07-27 14:42:31.215,-0.64,0.58,0.51,60.18,250.06,49.13
2026-07-27 14:42:31.216,-0.64,0.58,0.51,60.18,250.06,49.13
2026-07-27 14:42:31.268,-0.7,1.3,0.89,254.88,238.16,-27.34
2026-07-27 14:42:31.269,-0.7,1.3,0.89,254.88,238.16,-27.34
2026-07-27 14:42:31.270,-0.57,1.57,1.12,345.64,217.59,-60.3
2026-07-27 14:42:31.329,-0.57,1.57,1.12,345.64,217.59,-60.3
2026-07-27 14:42:31.333,-0.49,1.34,1.14,265.44,273.32,-0.12
2026-07-27 14:42:31.388,-0.52,1.23,1.04,195.07,322.39,75.01
2026-07-27 14:42:31.388,-0.52,1.23,1.04,195.07,322.39,75.01
2026-07-27 14:42:31.388,-0.41,1.44,0.92,211.73,275.15,77.88
2026-07-27 14:42:31.449,-0.41,1.44,0.92,211.73,275.15,77.88
2026-07-27 14:42:31.478,-0.28,1.54,0.77,204.53,217.53,34.48
2026-07-27 14:42:31.479,-0.28,1.54,0.77,204.53,217.53,34.48
2026-07-27 14:42:31.508,-0.44,1.21,0.6,123.41,262.02,15.62
2026-07-27 14:42:31.508,-0.59,0.87,0.57,72.57,306.21,39.67
2026-07-27 14:42:31.568,-0.59,0.87,0.57,72.57,306.21,39.67
2026-07-27 14:42:31.568,-0.42,0.9,0.5,108.95,185.0,64.45
2026-07-27 14:42:31.572,-0.42,0.9,0.5,108.95,185.0,64.45
2026-07-27 14:42:31.630,-0.28,0.96,0.12,128.23,5.62,51.27
2026-07-27 14:42:31.631,-0.28,0.96,0.12,128.23,5.62,51.27
2026-07-27 14:42:31.698,-0.32,0.9,-0.26,91.43,-53.34,16.48
2026-07-27 14:42:31.699,-0.32,0.85,-0.29,64.7,-15.69,-9.52
2026-07-27 14:42:31.699,-0.32,0.85,-0.29,64.7,-15.69,-9.52
2026-07-27 14:42:31.749,-0.23,0.84,-0.19,37.72,16.66,-18.55
2026-07-27 14:42:31.750,-0.23,0.84,-0.19,37.72,16.66,-18.55
2026-07-27 14:42:31.750,-0.15,0.85,-0.2,-8.97,2.01,-5.68
2026-07-27 14:42:31.809,-0.15,0.85,-0.2,-8.97,2.01,-5.68
2026-07-27 14:42:31.809,-0.22,0.88,-0.38,-40.47,-22.58,11.17
2026-07-27 14:42:31.812,-0.22,0.88,-0.38,-40.47,-22.58,11.17
2026-07-27 14:42:31.870,-0.29,0.88,-0.61,-40.83,-19.47,15.62
2026-07-27 14:42:31.870,-0.19,0.94,-0.75,-26.06,12.33,28.75
2026-07-27 14:42:31.928,-0.19,0.94,-0.75,-26.06,12.33,28.75
2026-07-27 14:42:31.929,-0.05,0.98,-0.75,-13.43,35.16,42.54
2026-07-27 14:42:31.930,-0.05,0.98,-0.75,-13.43,35.16,42.54
2026-07-27 14:42:31.991,-0.01,0.95,-0.61,-5.98,5.86,35.1
2026-07-27 14:42:31.991,-0.07,0.93,-0.45,-12.88,-50.48,23.68
2026-07-27 14:42:32.051,-0.07,0.93,-0.45,-12.88,-50.48,23.68
2026-07-27 14:42:32.052,-0.13,0.93,-0.33,-58.29,-93.2,27.95
2026-07-27 14:42:32.053,-0.13,0.93,-0.33,-58.29,-93.2,27.95
2026-07-27 14:42:32.109,-0.16,0.93,-0.25,-108.58,-111.82,39.67
2026-07-27 14:42:32.110,-0.16,0.93,-0.25,-108.58,-111.82,39.67
2026-07-27 14:42:32.170,-0.14,0.98,-0.18,-113.83,-96.92,37.05
2026-07-27 14:42:32.170,-0.07,0.99,-0.02,-109.99,-51.03,15.44
2026-07-27 14:42:32.170,-0.07,0.99,-0.02,-109.99,-51.03,15.44
2026-07-27 14:42:32.237,-0.05,0.98,0.15,-107.18,-7.08,-6.96
2026-07-27 14:42:32.237,-0.05,0.98,0.15,-107.18,-7.08,-6.96
2026-07-27 14:42:32.238,-0.09,0.94,0.32,-90.39,9.83,-26.31
2026-07-27 14:42:32.289,-0.09,0.94,0.32,-90.39,9.83,-26.31
2026-07-27 14:42:32.290,-0.24,0.97,0.39,-51.7,11.05,-56.03
2026-07-27 14:42:32.349,-0.24,0.97,0.39,-51.7,11.05,-56.03
2026-07-27 14:42:32.349,-0.5,0.91,0.26,-48.65,-5.74,-121.15
2026-07-27 14:42:32.350,-0.56,0.72,0.22,-115.72,-68.18,-187.32
2026-07-27 14:42:32.408,-0.56,0.72,0.22,-115.72,-68.18,-187.32
2026-07-27 14:42:32.410,-0.43,0.7,0.39,-140.75,-118.53,-179.99
2026-07-27 14:42:32.415,-0.43,0.7,0.39,-140.75,-118.53,-179.99
2026-07-27 14:42:32.468,-0.36,0.75,0.61,-100.28,-87.4,-117.31
2026-07-27 14:42:32.468,-0.36,0.75,0.61,-100.28,-87.4,-117.31
2026-07-27 14:42:32.536,-0.38,0.71,0.79,-74.95,-34.55,-63.35
2026-07-27 14:42:32.537,-0.42,0.58,0.91,-79.65,-33.02,-37.17
2026-07-27 14:42:32.537,-0.42,0.58,0.91,-79.65,-33.02,-37.17
2026-07-27 14:42:32.589,-0.43,0.46,1.01,-81.24,-73.61,-25.09
2026-07-27 14:42:32.589,-0.43,0.46,1.01,-81.24,-73.61,-25.09
2026-07-27 14:42:32.654,-0.45,0.41,1.09,-70.25,-114.38,-15.32
2026-07-27 14:42:32.660,-0.45,0.41,1.09,-70.25,-114.38,-15.32
2026-07-27 14:42:32.660,-0.53,0.4,1.1,-69.27,-131.35,-6.04
2026-07-27 14:42:32.709,-0.57,0.36,1.01,-88.38,-127.62,-11.11
2026-07-27 14:42:32.709,-0.57,0.36,1.01,-88.38,-127.62,-11.11
2026-07-27 14:42:32.770,-0.51,0.34,0.93,-101.62,-117.92,-41.26
2026-07-27 14:42:32.771,-0.51,0.34,0.93,-101.62,-117.92,-41.26
2026-07-27 14:42:32.771,-0.37,0.41,0.95,-88.01,-109.99,-81.6
2026-07-27 14:42:32.840,-0.37,0.41,0.95,-88.01,-109.99,-81.6
2026-07-27 14:42:32.841,-0.22,0.5,1.01,-65.61,-102.91,-103.52
2026-07-27 14:42:32.841,-0.18,0.52,0.98,-59.2,-94.67,-87.59
2026-07-27 14:42:32.888,-0.18,0.52,0.98,-59.2,-94.67,-87.59
2026-07-27 14:42:32.888,-0.23,0.44,0.86,-64.45,-86.73,-46.39
2026-07-27 14:42:32.957,-0.23,0.44,0.86,-64.45,-86.73,-46.39
2026-07-27 14:42:32.957,-0.28,0.3,0.71,-63.9,-75.5,-7.93
2026-07-27 14:42:32.957,-0.28,0.3,0.71,-63.9,-75.5,-7.93
2026-07-27 14:42:33.008,-0.27,0.22,0.61,-41.38,-51.76,16.91
2026-07-27 14:42:33.009,-0.27,0.22,0.61,7.75,8.85,34.42
2026-07-27 14:42:33.009,-0.24,0.29,0.6,7.75,8.85,34.42
2026-07-27 14:42:33.070,-0.34,0.42,0.48,29.54,103.88,57.25
2026-07-27 14:42:33.070,-0.34,0.42,0.48,29.54,103.88,57.25
2026-07-27 14:42:33.130,-0.46,0.4,0.39,3.05,146.18,63.48
2026-07-27 14:42:33.131,-0.46,0.4,0.39,3.05,146.18,63.48
2026-07-27 14:42:33.131,-0.45,0.26,0.48,-8.54,133.54,38.21
2026-07-27 14:42:33.192,-0.45,0.26,0.48,-8.54,133.54,38.21
2026-07-27 14:42:33.192,-0.43,0.2,0.57,15.32,131.23,19.71
2026-07-27 14:42:33.249,-0.45,0.22,0.67,39.43,124.33,26.25
2026-07-27 14:42:33.249,-0.45,0.22,0.67,39.43,124.33,26.25
2026-07-27 14:42:33.249,-0.47,0.23,0.77,37.9,95.46,35.03
2026-07-27 14:42:33.308,-0.47,0.23,0.77,37.9,95.46,35.03
2026-07-27 14:42:33.308,-0.48,0.21,0.85,25.02,57.98,18.07
2026-07-27 14:42:33.308,-0.48,0.21,0.85,25.02,57.98,18.07
2026-07-27 14:42:33.368,-0.46,0.19,0.94,30.03,36.44,-18.49
2026-07-27 14:42:33.369,-0.46,0.19,0.94,35.95,46.94,-35.95
2026-07-27 14:42:33.370,-0.47,0.15,1.08,35.95,46.94,-35.95
2026-07-27 14:42:33.428,-0.51,0.11,1.23,25.02,67.87,-28.02
2026-07-27 14:42:33.430,-0.51,0.11,1.23,25.02,67.87,-28.02
2026-07-27 14:42:33.505,-0.53,0.12,1.33,16.48,57.56,-23.01
2026-07-27 14:42:33.505,-0.53,0.12,1.33,16.48,57.56,-23.01
2026-07-27 14:42:33.506,-0.53,0.13,1.35,-11.41,28.63,-25.02
2026-07-27 14:42:33.550,-0.53,0.13,1.35,-11.41,28.63,-25.02
2026-07-27 14:42:33.550,-0.59,0.02,1.27,-134.03,18.62,-17.27
2026-07-27 14:42:33.608,-0.66,-0.16,1.18,-216.8,4.7,-23.32
2026-07-27 14:42:33.608,-0.66,-0.16,1.18,-216.8,4.7,-23.32
2026-07-27 14:42:33.608,-0.67,-0.23,1.12,-152.59,-29.85,-47.0
2026-07-27 14:42:33.669,-0.67,-0.23,1.12,-152.59,-29.85,-47.0
2026-07-27 14:42:33.680,-0.67,-0.23,1.02,-88.87,-44.31,-59.57
2026-07-27 14:42:33.681,-0.67,-0.23,1.02,-88.87,-44.31,-59.57
2026-07-27 14:42:33.798,-0.63,-0.21,0.85,-75.07,-37.54,-71.78
2026-07-27 14:42:33.808,-0.63,-0.21,0.85,-55.66,-49.13,-93.81
2026-07-27 14:42:33.809,-0.55,-0.19,0.67,-55.66,-49.13,-93.81
2026-07-27 14:42:33.810,-0.47,-0.18,0.49,-19.65,-76.23,-102.72
2026-07-27 14:42:33.811,-0.47,-0.18,0.49,-19.65,-76.23,-102.72
2026-07-27 14:42:33.848,-0.43,-0.13,0.38,-28.14,-93.75,-103.45
2026-07-27 14:42:33.849,-0.43,-0.13,0.38,-28.14,-93.75,-103.45
2026-07-27 14:42:33.849,-0.32,-0.23,0.32,-178.53,-99.79,-127.56
2026-07-27 14:42:33.911,-0.25,-0.59,0.25,-356.93,-70.13,-128.97
2026-07-27 14:42:33.912,-0.25,-0.59,0.25,-356.93,-70.13,-128.97
2026-07-27 14:42:33.971,-0.33,-0.71,0.23,-277.22,-4.46,-85.27
2026-07-27 14:42:33.971,-0.33,-0.71,0.23,-277.22,-4.46,-85.27
2026-07-27 14:42:33.972,-0.45,-0.57,0.21,-46.81,75.68,-75.13
2026-07-27 14:42:34.028,-0.45,-0.57,0.21,-46.81,75.68,-75.13
2026-07-27 14:42:34.029,-0.49,-0.59,0.11,27.95,150.15,-102.91
2026-07-27 14:42:34.088,-0.44,-0.65,0.06,-37.23,160.16,-55.36
2026-07-27 14:42:34.090,-0.44,-0.65,0.06,-37.23,160.16,-55.36
2026-07-27 14:42:34.090,-0.44,-0.65,0.11,-116.27,115.54,53.83
2026-07-27 14:42:34.148,-0.44,-0.65,0.11,-116.27,115.54,53.83
2026-07-27 14:42:34.149,-0.48,-0.68,0.19,-149.11,71.41,114.75
2026-07-27 14:42:34.149,-0.48,-0.68,0.19,-149.11,71.41,114.75
2026-07-27 14:42:34.209,-0.59,-0.79,0.31,-121.83,45.47,118.65
2026-07-27 14:42:34.209,-0.64,-0.98,0.44,-91.13,23.38,99.0
2026-07-27 14:42:34.268,-0.64,-0.98,0.44,-91.13,23.38,99.0
2026-07-27 14:42:34.268,-0.5,-1.25,0.4,-104.74,-18.37,60.24
2026-07-27 14:42:34.269,-0.5,-1.25,0.4,-104.74,-18.37,60.24
2026-07-27 14:42:34.331,-0.39,-1.45,0.08,-140.38,-70.13,55.24
2026-07-27 14:42:34.331,-0.39,-1.45,0.08,-140.38,-70.13,55.24
2026-07-27 14:42:34.393,-0.43,-1.47,-0.19,-125.06,-92.22,86.3
2026-07-27 14:42:34.394,-0.41,-1.4,-0.21,-39.73,-69.03,72.39
2026-07-27 14:42:34.396,-0.41,-1.4,-0.21,-39.73,-69.03,72.39
2026-07-27 14:42:34.454,-0.36,-1.32,-0.15,30.21,-37.96,18.62
2026-07-27 14:42:34.454,-0.36,-1.32,-0.15,30.21,-37.96,18.62
2026-07-27 14:42:34.455,-0.36,-1.25,-0.15,30.46,-31.74,-34.24
2026-07-27 14:42:34.508,-0.36,-1.25,-0.15,30.46,-31.74,-34.24
2026-07-27 14:42:34.509,-0.42,-1.19,-0.21,2.69,-32.53,-71.23
2026-07-27 14:42:34.568,-0.42,-1.19,-0.21,2.69,-32.53,-71.23
2026-07-27 14:42:34.569,-0.48,-1.15,-0.22,-9.22,-15.26,-97.17
2026-07-27 14:42:34.569,-0.52,-1.07,-0.17,-8.42,15.38,-116.58
2026-07-27 14:42:34.630,-0.52,-1.07,-0.17,-8.42,15.38,-116.58
2026-07-27 14:42:34.630,-0.53,-0.95,-0.11,-4.15,43.58,-126.59
2026-07-27 14:42:34.630,-0.53,-0.95,-0.11,-4.15,43.58,-126.59
2026-07-27 14:42:34.688,-0.51,-0.81,-0.05,5.25,63.11,-121.4
2026-07-27 14:42:34.690,-0.51,-0.81,-0.05,5.25,63.11,-121.4
2026-07-27 14:42:34.747,-0.47,-0.7,-0.02,14.59,77.58,-101.32
2026-07-27 14:42:34.748,-0.47,-0.7,-0.02,16.97,87.95,-72.33
2026-07-27 14:42:34.748,-0.4,-0.61,-0.0,16.97,87.95,-72.33
2026-07-27 14:42:34.816,-0.35,-0.55,-0.01,19.23,85.21,-42.66
2026-07-27 14:42:34.817,-0.35,-0.55,-0.01,19.23,85.21,-42.66
2026-07-27 14:42:34.869,-0.33,-0.53,-0.01,29.54,66.47,-15.87
2026-07-27 14:42:34.870,-0.33,-0.53,-0.01,29.54,66.47,-15.87
2026-07-27 14:42:34.871,-0.33,-0.55,-0.02,40.34,43.27,8.79
2026-07-27 14:42:34.931,-0.33,-0.55,-0.02,40.34,43.27,8.79
2026-07-27 14:42:34.932,-0.35,-0.6,-0.02,37.78,24.11,29.66
2026-07-27 14:42:34.932,-0.38,-0.65,0.01,21.91,9.16,46.26
2026-07-27 14:42:34.988,-0.38,-0.65,0.01,21.91,9.16,46.26
2026-07-27 14:42:34.989,-0.41,-0.75,0.02,5.31,-1.71,60.12
2026-07-27 14:42:34.989,-0.41,-0.75,0.02,5.31,-1.71,60.12
2026-07-27 14:42:35.056,-0.4,-0.92,0.02,0.85,-9.09,67.2
2026-07-27 14:42:35.058,-0.4,-0.92,0.02,0.85,-9.09,67.2
2026-07-27 14:42:35.122,-0.37,-1.08,-0.02,17.52,-12.88,61.58
2026-07-27 14:42:35.123,-0.37,-1.08,-0.02,17.52,-12.88,61.58
2026-07-27 14:42:35.123,-0.35,-1.14,-0.08,42.42,-4.39,51.21
2026-07-27 14:42:35.172,-0.33,-1.15,-0.04,46.39,24.48,46.63
2026-07-27 14:42:35.173,-0.33,-1.15,-0.04,46.39,24.48,46.63
2026-07-27 14:42:35.231,-0.3,-1.15,0.1,27.89,59.39,44.92
2026-07-27 14:42:35.231,-0.3,-1.15,0.1,27.89,59.39,44.92
2026-07-27 14:42:35.232,-0.26,-1.17,0.29,13.37,76.35,40.04
2026-07-27 14:42:35.289,-0.26,-1.17,0.29,13.37,76.35,40.04
2026-07-27 14:42:35.290,-0.23,-1.19,0.44,10.86,65.06,29.97
2026-07-27 14:42:35.290,-0.23,-1.19,0.44,10.86,65.06,29.97
2026-07-27 14:42:35.349,-0.2,-1.2,0.51,5.98,30.94,15.56
2026-07-27 14:42:35.349,-0.2,-1.23,0.46,-6.59,-10.86,-1.71
2026-07-27 14:42:35.349,-0.2,-1.23,0.46,-6.59,-10.86,-1.71
2026-07-27 14:42:35.408,-0.22,-1.24,0.35,-17.58,-45.47,-21.97
2026-07-27 14:42:35.409,-0.22,-1.24,0.35,-17.58,-45.47,-21.97
2026-07-27 14:42:35.470,-0.25,-1.22,0.23,-21.3,-65.55,-43.4
2026-07-27 14:42:35.470,-0.25,-1.22,0.23,-21.3,-65.55,-43.4
2026-07-27 14:42:35.470,-0.29,-1.17,0.12,-20.63,-72.14,-62.01
2026-07-27 14:42:35.537,-0.29,-1.17,0.12,-19.35,-68.3,-74.95
2026-07-27 14:42:35.548,-0.34,-1.08,0.02,-19.35,-68.3,-74.95
2026-07-27 14:42:35.589,-0.37,-0.98,-0.06,-17.27,-54.02,-79.65
2026-07-27 14:42:35.589,-0.37,-0.98,-0.06,-17.27,-54.02,-79.65
2026-07-27 14:42:35.590,-0.37,-0.89,-0.07,-9.09,-29.24,-76.54
2026-07-27 14:42:35.649,-0.37,-0.89,-0.07,-9.09,-29.24,-76.54
2026-07-27 14:42:35.649,-0.35,-0.81,-0.01,4.88,-1.89,-69.15
2026-07-27 14:42:35.650,-0.35,-0.81,-0.01,4.88,-1.89,-69.15
2026-07-27 14:42:35.709,-0.32,-0.74,0.04,12.88,13.24,-58.04
2026-07-27 14:42:35.711,-0.32,-0.74,0.04,9.77,12.33,-42.6
2026-07-27 14:42:35.712,-0.3,-0.67,0.06,9.77,12.33,-42.6
2026-07-27 14:42:35.769,-0.29,-0.62,0.04,2.99,4.33,-23.68
2026-07-27 14:42:35.770,-0.29,-0.62,0.04,2.99,4.33,-23.68
2026-07-27 14:42:35.835,-0.29,-0.61,0.02,-1.46,-1.89,-2.2
2026-07-27 14:42:35.835,-0.29,-0.61,0.02,-1.46,-1.89,-2.2
2026-07-27 14:42:35.836,-0.3,-0.64,0.02,-1.89,-1.89,20.94
2026-07-27 14:42:35.895,-0.3,-0.64,0.02,-1.89,-1.89,20.94
2026-07-27 14:42:35.895,-0.33,-0.71,0.03,-0.24,2.93,44.31
2026-07-27 14:42:35.948,-0.34,-0.84,0.07,-0.06,6.9,62.99
2026-07-27 14:42:35.948,-0.34,-0.84,0.07,-0.06,6.9,62.99
2026-07-27 14:42:35.949,-0.33,-1.0,0.11,-13.61,-2.69,70.01
2026-07-27 14:42:36.009,-0.33,-1.0,0.11,-13.61,-2.69,70.01
2026-07-27 14:42:36.011,-0.3,-1.11,0.09,-42.66,-30.4,66.71
2026-07-27 14:42:36.011,-0.3,-1.11,0.09,-42.66,-30.4,66.71
2026-07-27 14:42:36.068,-0.26,-1.17,0.02,-48.4,-46.69,59.08
2026-07-27 14:42:36.069,-0.26,-1.17,0.02,-19.1,-29.6,49.32
2026-07-27 14:42:36.133,-0.22,-1.19,0.01,-19.1,-29.6,49.32
2026-07-27 14:42:36.133,-0.2,-1.16,0.08,6.53,0.92,39.92
2026-07-27 14:42:36.134,-0.2,-1.16,0.08,6.53,0.92,39.92
2026-07-27 14:42:36.201,-0.19,-1.12,0.15,15.01,21.0,31.98
2026-07-27 14:42:36.203,-0.19,-1.12,0.15,15.01,21.0,31.98
2026-07-27 14:42:36.205,-0.19,-1.09,0.18,14.95,23.25,24.41
2026-07-27 14:42:36.248,-0.19,-1.09,0.18,14.95,23.25,24.41
2026-07-27 14:42:36.249,-0.18,-1.11,0.18,9.34,10.44,16.78
2026-07-27 14:42:36.308,-0.18,-1.11,0.18,-1.28,-11.05,6.77
2026-07-27 14:42:36.309,-0.15,-1.21,0.13,-1.28,-11.05,6.77
2026-07-27 14:42:36.309,-0.14,-1.31,0.05,-18.62,-35.71,-10.31
2026-07-27 14:42:36.372,-0.14,-1.31,0.05,-18.62,-35.71,-10.31
2026-07-27 14:42:36.373,-0.17,-1.31,-0.03,-41.81,-54.63,-36.62
2026-07-27 14:42:36.373,-0.17,-1.31,-0.03,-41.81,-54.63,-36.62
2026-07-27 14:42:36.430,-0.21,-1.22,-0.06,-61.71,-57.98,-64.82
2026-07-27 14:42:36.431,-0.21,-1.22,-0.06,-61.71,-57.98,-64.82
2026-07-27 14:42:36.489,-0.24,-1.14,-0.06,-67.44,-46.63,-84.9
2026-07-27 14:42:36.490,-0.24,-1.14,-0.06,-54.81,-27.16,-94.67
2026-07-27 14:42:36.490,-0.24,-1.08,-0.09,-54.81,-27.16,-94.67
2026-07-27 14:42:36.549,-0.24,-1.01,-0.12,-32.59,-5.25,-96.98
2026-07-27 14:42:36.549,-0.24,-1.01,-0.12,-32.59,-5.25,-96.98
2026-07-27 14:42:36.549,-0.22,-0.92,-0.12,-15.69,12.94,-93.38
2026-07-27 14:42:36.669,-0.22,-0.92,-0.12,-15.69,12.94,-93.38
2026-07-27 14:42:36.669,-0.21,-0.81,-0.08,-6.04,25.33,-84.17
2026-07-27 14:42:36.670,-0.21,-0.81,-0.08,-6.04,25.33,-84.17
2026-07-27 14:42:36.670,-0.19,-0.71,-0.03,0.98,31.62,-69.46
2026-07-27 14:42:36.670,-0.18,-0.63,0.01,5.68,30.52,-49.19
2026-07-27 14:42:36.729,-0.18,-0.63,0.01,5.68,30.52,-49.19
2026-07-27 14:42:36.730,-0.18,-0.58,0.04,10.93,24.48,-24.96
2026-07-27 14:42:36.730,-0.18,-0.58,0.04,10.93,24.48,-24.96
2026-07-27 14:42:36.788,-0.21,-0.56,0.05,21.3,17.88,1.22
2026-07-27 14:42:36.789,-0.21,-0.56,0.05,21.3,17.88,1.22
2026-07-27 14:42:36.850,-0.25,-0.6,0.05,36.5,13.73,27.28
2026-07-27 14:42:36.850,-0.25,-0.6,0.05,36.5,13.73,27.28
2026-07-27 14:42:36.851,-0.31,-0.7,0.05,50.96,12.76,51.82
2026-07-27 14:42:36.910,-0.34,-0.84,0.06,59.63,14.77,73.85
2026-07-27 14:42:36.919,-0.34,-0.84,0.06,59.63,14.77,73.85
2026-07-27 14:42:36.919,-0.35,-0.97,0.07,59.75,18.31,90.64
2026-07-27 14:42:36.970,-0.35,-0.97,0.07,59.75,18.31,90.64
2026-07-27 14:42:36.970,-0.34,-1.04,0.09,49.38,19.17,100.4
2026-07-27 14:42:36.970,-0.34,-1.04,0.09,49.38,19.17,100.4
2026-07-27 14:42:37.033,-0.33,-1.09,0.11,36.13,19.78,103.88
2026-07-27 14:42:37.034,-0.3,-1.12,0.15,28.02,25.09,102.29
2026-07-27 14:42:37.090,-0.3,-1.12,0.15,28.02,25.09,102.29
2026-07-27 14:42:37.090,-0.25,-1.15,0.24,24.48,31.86,96.68
2026-07-27 14:42:37.091,-0.25,-1.15,0.24,24.48,31.86,96.68
2026-07-27 14:42:37.149,-0.2,-1.2,0.36,26.73,34.61,87.34
2026-07-27 14:42:37.149,-0.2,-1.2,0.36,26.73,34.61,87.34
2026-07-27 14:42:37.215,-0.13,-1.32,0.4,28.38,26.73,75.26
2026-07-27 14:42:37.215,-0.13,-1.32,0.4,28.38,26.73,75.26
2026-07-27 14:42:37.216,-0.09,-1.44,0.33,18.74,6.65,55.97
2026-07-27 14:42:37.268,-0.12,-1.43,0.22,1.53,-13.31,22.03
2026-07-27 14:42:37.268,-0.12,-1.43,0.22,1.53,-13.31,22.03
2026-07-27 14:42:37.345,-0.21,-1.31,0.18,-11.11,-19.71,-21.55
2026-07-27 14:42:37.345,-0.21,-1.31,0.18,-11.11,-19.71,-21.55
2026-07-27 14:42:37.345,-0.27,-1.19,0.19,-15.56,-17.27,-60.61
2026-07-27 14:42:37.388,-0.27,-1.19,0.19,-15.56,-17.27,-60.61
2026-07-27 14:42:37.389,-0.29,-1.16,0.2,-17.15,-19.9,-87.16
2026-07-27 14:42:37.389,-0.29,-1.16,0.2,-17.15,-19.9,-87.16
2026-07-27 14:42:37.449,-0.3,-1.19,0.16,-16.36,-25.94,-103.76
2026-07-27 14:42:37.449,-0.32,-1.13,0.1,-14.47,-25.57,-115.23
2026-07-27 14:42:37.450,-0.32,-1.13,0.1,-14.47,-25.57,-115.23
2026-07-27 14:42:37.569,-0.35,-0.97,0.07,-11.96,-12.82,-119.63
2026-07-27 14:42:37.570,-0.35,-0.97,0.07,-11.96,-12.82,-119.63
2026-07-27 14:42:37.570,-0.35,-0.79,0.1,0.37,13.43,-112.0
2026-07-27 14:42:37.570,-0.35,-0.79,0.1,0.37,13.43,-112.0
2026-07-27 14:42:37.571,-0.31,-0.65,0.15,22.4,40.28,-92.59
2026-07-27 14:42:37.631,-0.28,-0.58,0.21,42.72,47.24,-64.82
2026-07-27 14:42:37.631,-0.28,-0.58,0.21,42.72,47.24,-64.82
2026-07-27 14:42:37.688,-0.28,-0.54,0.25,49.93,31.01,-31.31
2026-07-27 14:42:37.689,-0.28,-0.54,0.25,49.93,31.01,-31.31
2026-07-27 14:42:37.689,-0.3,-0.55,0.24,38.64,12.15,-1.1
2026-07-27 14:42:37.748,-0.3,-0.55,0.24,38.64,12.15,-1.1
2026-07-27 14:42:37.749,-0.33,-0.57,0.23,20.57,4.21,20.69
2026-07-27 14:42:37.749,-0.33,-0.57,0.23,20.57,4.21,20.69
2026-07-27 14:42:37.808,-0.37,-0.62,0.21,8.42,4.27,41.99
2026-07-27 14:42:37.809,-0.42,-0.69,0.2,2.32,13.0,69.64
2026-07-27 14:42:37.809,-0.42,-0.69,0.2,2.32,13.0,69.64
2026-07-27 14:42:37.868,-0.48,-0.79,0.19,5.74,30.82,96.86
2026-07-27 14:42:37.869,-0.48,-0.79,0.19,5.74,30.82,96.86
2026-07-27 14:42:37.932,-0.52,-0.9,0.22,21.24,54.81,114.62
2026-07-27 14:42:37.933,-0.52,-0.9,0.22,41.93,83.31,120.79
2026-07-27 14:42:37.934,-0.52,-1.01,0.31,41.93,83.31,120.79
2026-07-27 14:42:37.988,-0.49,-1.08,0.44,62.5,108.52,112.98
2026-07-27 14:42:37.988,-0.49,-1.08,0.44,62.5,108.52,112.98
2026-07-27 14:42:38.051,-0.45,-1.1,0.55,71.96,115.72,93.08
2026-07-27 14:42:38.052,-0.45,-1.1,0.55,71.96,115.72,93.08
2026-07-27 14:42:38.107,-0.4,-1.09,0.64,52.73,92.29,69.95
2026-07-27 14:42:38.108,-0.4,-1.09,0.64,52.73,92.29,69.95
2026-07-27 14:42:38.108,-0.34,-1.11,0.66,7.63,43.64,52.98
2026-07-27 14:42:38.168,-0.26,-1.2,0.64,-14.53,7.2,39.0
2026-07-27 14:42:38.169,-0.26,-1.2,0.64,-14.53,7.2,39.0
2026-07-27 14:42:38.169,-0.17,-1.31,0.69,10.86,2.38,12.82
2026-07-27 14:42:38.228,-0.17,-1.31,0.69,10.86,2.38,12.82
2026-07-27 14:42:38.229,-0.18,-1.34,0.77,30.46,-9.4,-28.14
2026-07-27 14:42:38.230,-0.18,-1.34,0.77,30.46,-9.4,-28.14
2026-07-27 14:42:38.288,-0.29,-1.3,0.74,10.86,-53.83,-73.61
2026-07-27 14:42:38.289,-0.29,-1.3,0.74,10.86,-53.83,-73.61
2026-07-27 14:42:38.289,-0.43,-1.2,0.55,-15.62,-101.56,-113.77
2026-07-27 14:42:38.349,-0.52,-1.06,0.35,-22.95,-118.77,-140.38
2026-07-27 14:42:38.350,-0.52,-1.06,0.35,-22.95,-118.77,-140.38
2026-07-27 14:42:38.414,-0.54,-0.87,0.24,-19.84,-102.6,-147.71
2026-07-27 14:42:38.414,-0.54,-0.87,0.24,-19.84,-102.6,-147.71
2026-07-27 14:42:38.414,-0.51,-0.67,0.21,-16.36,-67.81,-135.07
2026-07-27 14:42:38.486,-0.51,-0.67,0.21,-16.36,-67.81,-135.07
2026-07-27 14:42:38.487,-0.46,-0.52,0.2,-6.59,-29.42,-107.67
2026-07-27 14:42:38.530,-0.41,-0.46,0.19,9.09,1.22,-72.14
2026-07-27 14:42:38.531,-0.41,-0.46,0.19,9.09,1.22,-72.14
2026-07-27 14:42:38.531,-0.38,-0.46,0.17,17.4,18.68,-35.64
2026-07-27 14:42:38.592,-0.38,-0.46,0.17,17.4,18.68,-35.64
2026-07-27 14:42:38.592,-0.37,-0.5,0.16,11.9,25.33,-3.54
2026-07-27 14:42:38.595,-0.37,-0.5,0.16,11.9,25.33,-3.54
2026-07-27 14:42:38.654,-0.38,-0.56,0.15,-2.69,28.81,22.83
2026-07-27 14:42:38.707,-0.38,-0.56,0.15,-2.69,28.81,22.83
2026-07-27 14:42:38.708,-0.4,-0.64,0.13,-28.02,36.68,45.23
2026-07-27 14:42:38.708,-0.42,-0.73,0.1,-67.99,52.8,70.37
2026-07-27 14:42:38.708,-0.42,-0.73,0.1,-67.99,52.8,70.37
2026-07-27 14:42:38.773,-0.44,-0.83,0.08,-102.78,71.17,97.35
2026-07-27 14:42:38.775,-0.44,-0.83,0.08,-102.78,71.17,97.35
2026-07-27 14:42:38.775,-0.46,-1.0,0.13,-115.48,81.54,115.17
2026-07-27 14:42:38.832,-0.46,-1.0,0.13,-115.48,81.54,115.17
2026-07-27 14:42:38.833,-0.37,-1.3,0.29,-118.1,70.56,109.37
2026-07-27 14:42:38.888,-0.18,-1.66,0.42,-124.02,25.82,85.27
2026-07-27 14:42:38.889,-0.18,-1.66,0.42,-124.02,25.82,85.27
2026-07-27 14:42:38.889,-0.03,-1.87,0.37,-104.86,-30.15,52.49
2026-07-27 14:42:38.953,-0.03,-1.87,0.37,-104.86,-30.15,52.49
2026-07-27 14:42:38.953,-0.0,-1.86,0.23,-49.01,-61.1,0.18
2026-07-27 14:42:38.953,-0.0,-1.86,0.23,-49.01,-61.1,0.18
2026-07-27 14:42:39.008,-0.07,-1.64,0.15,0.31,-62.68,-69.03
2026-07-27 14:42:39.008,-0.07,-1.64,0.15,28.75,-52.61,-128.6
2026-07-27 14:42:39.073,-0.17,-1.33,0.1,28.75,-52.61,-128.6
2026-07-27 14:42:39.078,-0.25,-1.05,0.02,50.78,-45.29,-152.65
2026-07-27 14:42:39.080,-0.25,-1.05,0.02,50.78,-45.29,-152.65
2026-07-27 14:42:39.129,-0.33,-0.82,-0.06,65.86,-38.76,-140.93
2026-07-27 14:42:39.130,-0.33,-0.82,-0.06,65.86,-38.76,-140.93
2026-07-27 14:42:39.188,-0.38,-0.65,-0.14,66.16,-26.31,-114.14
2026-07-27 14:42:39.189,-0.38,-0.65,-0.14,66.16,-26.31,-114.14
2026-07-27 14:42:39.189,-0.41,-0.5,-0.17,49.62,-12.33,-85.63
2026-07-27 14:42:39.250,-0.45,-0.34,-0.18,27.71,-1.22,-58.11
2026-07-27 14:42:39.250,-0.45,-0.34,-0.18,27.71,-1.22,-58.11
2026-07-27 14:42:39.251,-0.5,-0.23,-0.15,2.87,8.3,-29.54
2026-07-27 14:42:39.308,-0.5,-0.23,-0.15,2.87,8.3,-29.54
2026-07-27 14:42:39.309,-0.56,-0.21,-0.08,-62.13,-1.77,7.08
2026-07-27 14:42:39.309,-0.56,-0.21,-0.08,-62.13,-1.77,7.08
2026-07-27 14:42:39.429,-0.59,-0.4,-0.09,-162.41,-43.95,61.52
2026-07-27 14:42:39.430,-0.59,-0.4,-0.09,-162.41,-43.95,61.52
2026-07-27 14:42:39.430,-0.56,-0.83,-0.21,-207.7,-88.01,133.61
2026-07-27 14:42:39.431,-0.44,-1.41,-0.31,-156.43,-110.35,190.8
2026-07-27 14:42:39.431,-0.44,-1.41,-0.31,-156.43,-110.35,190.8
2026-07-27 14:42:39.554,-0.22,-1.86,-0.35,-75.99,-114.99,193.12
2026-07-27 14:42:39.554,-0.22,-1.86,-0.35,-75.99,-114.99,193.12
2026-07-27 14:42:39.554,0.03,-2.03,-0.37,-25.51,-100.77,134.77
2026-07-27 14:42:39.555,0.03,-2.03,-0.37,-25.51,-100.77,134.77
2026-07-27 14:42:39.555,0.16,-1.99,-0.37,-11.23,-66.59,47.55
2026-07-27 14:42:39.609,0.13,-1.87,-0.42,-7.87,-31.56,-33.75
2026-07-27 14:42:39.610,0.13,-1.87,-0.42,-7.87,-31.56,-33.75
2026-07-27 14:42:39.731,-0.07,-1.69,-0.49,-1.89,-14.83,-100.34
2026-07-27 14:42:39.731,-0.07,-1.69,-0.49,-1.89,-14.83,-100.34
2026-07-27 14:42:39.735,-0.34,-1.35,-0.49,-10.5,0.61,-152.59
2026-07-27 14:42:39.735,-0.34,-1.35,-0.49,-10.5,0.61,-152.59
2026-07-27 14:42:39.735,-0.52,-0.95,-0.38,-14.89,35.52,-179.2
2026-07-27 14:42:39.735,-0.52,-0.95,-0.38,3.78,70.07,-167.79
2026-07-27 14:42:39.788,-0.57,-0.59,-0.18,3.78,70.07,-167.79
2026-07-27 14:42:39.792,-0.55,-0.3,0.01,22.03,79.04,-123.05
2026-07-27 14:42:39.792,-0.55,-0.3,0.01,22.03,79.04,-123.05
2026-07-27 14:42:39.848,-0.51,-0.14,0.16,27.16,62.07,-62.87
2026-07-27 14:42:39.849,-0.51,-0.14,0.16,27.16,62.07,-62.87
2026-07-27 14:42:39.908,-0.47,-0.11,0.16,13.31,28.44,7.39
2026-07-27 14:42:39.912,-0.47,-0.11,0.16,13.31,28.44,7.39
2026-07-27 14:42:39.913,-0.45,-0.18,0.03,-10.19,-14.59,70.37
2026-07-27 14:42:39.971,-0.45,-0.37,-0.12,-9.95,-59.94,103.03
2026-07-27 14:42:39.971,-0.45,-0.37,-0.12,-9.95,-59.94,103.03
2026-07-27 14:42:40.031,-0.46,-0.68,-0.22,10.25,-97.78,118.35
2026-07-27 14:42:40.031,-0.46,-0.68,-0.22,10.25,-97.78,118.35
2026-07-27 14:42:40.032,-0.44,-1.12,-0.26,27.04,-119.14,123.35
2026-07-27 14:42:40.088,-0.44,-1.12,-0.26,43.82,-110.29,103.21
2026-07-27 14:42:40.088,-0.29,-1.6,-0.26,43.82,-110.29,103.21
2026-07-27 14:42:40.150,-0.1,-1.94,-0.22,53.65,-68.24,68.66
2026-07-27 14:42:40.150,-0.1,-1.94,-0.22,53.65,-68.24,68.66
2026-07-27 14:42:40.151,0.03,-2.05,-0.13,44.01,-14.22,34.36
2026-07-27 14:42:40.209,0.03,-2.05,-0.13,44.01,-14.22,34.36
2026-07-27 14:42:40.209,0.02,-1.95,-0.01,29.66,25.09,-11.6
2026-07-27 14:42:40.210,0.02,-1.95,-0.01,29.66,25.09,-11.6
2026-07-27 14:42:40.268,-0.11,-1.7,0.03,15.56,36.74,-66.35
2026-07-27 14:42:40.269,-0.26,-1.35,0.02,5.68,31.68,-110.84
2026-07-27 14:42:40.270,-0.26,-1.35,0.02,5.68,31.68,-110.84
2026-07-27 14:42:40.328,-0.36,-0.98,0.02,5.55,24.6,-132.69
2026-07-27 14:42:40.329,-0.36,-0.98,0.02,5.55,24.6,-132.69
2026-07-27 14:42:40.388,-0.42,-0.6,0.03,3.54,16.36,-129.46
2026-07-27 14:42:40.388,-0.42,-0.6,0.03,3.54,16.36,-129.46
2026-07-27 14:42:40.388,-0.43,-0.28,0.01,-2.08,9.46,-106.93
2026-07-27 14:42:40.569,-0.43,-0.28,0.01,-4.03,7.39,-69.52
2026-07-27 14:42:40.569,-0.4,-0.07,-0.01,-4.03,7.39,-69.52
2026-07-27 14:42:40.570,-0.37,-0.02,-0.03,4.52,9.09,-22.89
2026-07-27 14:42:40.570,-0.37,-0.02,-0.03,4.52,9.09,-22.89
2026-07-27 14:42:40.570,-0.38,-0.16,-0.06,17.82,10.99,26.37
2026-07-27 14:42:40.570,-0.38,-0.16,-0.06,17.82,10.99,26.37
2026-07-27 14:42:40.571,-0.4,-0.46,-0.07,20.69,10.13,70.98
2026-07-27 14:42:40.571,-0.4,-0.46,-0.07,20.69,10.13,70.98
2026-07-27 14:42:40.631,-0.4,-0.85,-0.04,7.45,5.92,98.88
2026-07-27 14:42:40.631,-0.4,-0.85,-0.04,7.45,5.92,98.88
2026-07-27 14:42:40.631,-0.31,-1.28,-0.02,-15.56,-3.66,107.67
2026-07-27 14:42:40.699,-0.09,-1.76,0.02,-24.41,-13.85,97.35
2026-07-27 14:42:40.702,-0.09,-1.76,0.02,-24.41,-13.85,97.35
2026-07-27 14:42:40.749,0.15,-2.14,0.1,-15.62,-15.38,69.52
2026-07-27 14:42:40.749,0.15,-2.14,0.1,-15.62,-15.38,69.52
2026-07-27 14:42:40.749,0.22,-2.2,0.15,-15.62,-7.69,31.01
2026-07-27 14:42:40.808,0.22,-2.2,0.15,-15.62,-7.69,31.01
2026-07-27 14:42:40.809,0.08,-1.93,0.1,-20.63,1.65,-21.0
2026-07-27 14:42:40.810,0.08,-1.93,0.1,-20.63,1.65,-21.0
2026-07-27 14:42:40.871,-0.14,-1.48,-0.03,-13.37,5.31,-79.77
2026-07-27 14:42:40.871,-0.31,-1.0,-0.13,1.28,6.16,-120.61
2026-07-27 14:42:40.928,-0.31,-1.0,-0.13,1.28,6.16,-120.61
2026-07-27 14:42:40.929,-0.37,-0.62,-0.16,17.33,12.33,-129.46
2026-07-27 14:42:40.929,-0.37,-0.62,-0.16,17.33,12.33,-129.46
2026-07-27 14:42:40.990,-0.36,-0.38,-0.12,31.49,22.28,-112.12
2026-07-27 14:42:40.990,-0.36,-0.38,-0.12,31.49,22.28,-112.12
2026-07-27 14:42:40.990,-0.33,-0.22,-0.06,32.65,27.22,-77.09
2026-07-27 14:42:41.052,-0.33,-0.22,-0.06,19.17,23.8,-32.53
2026-07-27 14:42:41.052,-0.31,-0.13,-0.02,19.17,23.8,-32.53
2026-07-27 14:42:41.108,-0.31,-0.17,-0.02,5.25,14.4,11.96
2026-07-27 14:42:41.108,-0.31,-0.17,-0.02,5.25,14.4,11.96
2026-07-27 14:42:41.109,-0.32,-0.36,-0.04,-6.65,2.69,53.59
2026-07-27 14:42:41.169,-0.32,-0.36,-0.04,-6.65,2.69,53.59
2026-07-27 14:42:41.169,-0.32,-0.71,-0.08,-13.24,-5.55,91.43
2026-07-27 14:42:41.169,-0.32,-0.71,-0.08,-13.24,-5.55,91.43
2026-07-27 14:42:41.231,-0.24,-1.19,-0.07,1.95,-3.48,114.62
2026-07-27 14:42:41.232,-0.08,-1.67,0.06,14.83,7.51,110.6
2026-07-27 14:42:41.290,-0.08,-1.67,0.06,14.83,7.51,110.6
2026-07-27 14:42:41.290,0.11,-1.96,0.3,12.76,21.06,80.2
2026-07-27 14:42:41.290,0.11,-1.96,0.3,12.76,21.06,80.2
2026-07-27 14:42:41.348,0.22,-2.02,0.49,17.64,27.83,35.77
2026-07-27 14:42:41.350,0.22,-2.02,0.49,17.64,27.83,35.77
2026-07-27 14:42:41.411,0.17,-1.92,0.47,24.78,15.62,-15.5
2026-07-27 14:42:41.412,0.17,-1.92,0.47,24.78,15.62,-15.5
2026-07-27 14:42:41.412,-0.0,-1.7,0.26,24.48,-10.07,-66.65
2026-07-27 14:42:41.471,-0.18,-1.38,0.05,15.87,-27.89,-106.14
2026-07-27 14:42:41.471,-0.18,-1.38,0.05,15.87,-27.89,-106.14
2026-07-27 14:42:41.471,-0.29,-1.0,-0.07,5.43,-27.22,-127.26
2026-07-27 14:42:41.529,-0.29,-1.0,-0.07,5.43,-27.22,-127.26
2026-07-27 14:42:41.530,-0.31,-0.61,-0.09,1.59,-13.85,-127.08
2026-07-27 14:42:41.530,-0.31,-0.61,-0.09,1.59,-13.85,-127.08
2026-07-27 14:42:41.591,-0.28,-0.28,-0.07,3.72,1.89,-106.38
2026-07-27 14:42:41.591,-0.28,-0.28,-0.07,3.72,1.89,-106.38
2026-07-27 14:42:41.652,-0.23,-0.04,-0.03,2.87,12.7,-68.79
2026-07-27 14:42:41.652,-0.21,0.03,-0.01,-3.05,14.28,-19.65
2026-07-27 14:42:41.652,-0.21,0.03,-0.01,-3.05,14.28,-19.65
2026-07-27 14:42:41.709,-0.24,-0.09,-0.04,-6.96,8.48,33.94
2026-07-27 14:42:41.710,-0.24,-0.09,-0.04,-6.96,8.48,33.94
2026-07-27 14:42:41.768,-0.3,-0.37,-0.08,-7.87,2.5,83.37
2026-07-27 14:42:41.769,-0.3,-0.37,-0.08,-7.87,2.5,83.37
2026-07-27 14:42:41.769,-0.34,-0.78,-0.09,-6.41,0.98,119.08
2026-07-27 14:42:41.829,-0.34,-0.78,-0.09,-6.41,0.98,119.08
2026-07-27 14:42:41.830,-0.27,-1.36,-0.04,-2.81,3.11,128.72
2026-07-27 14:42:41.831,-0.05,-1.94,0.09,-6.65,8.06,106.14
2026-07-27 14:42:41.888,-0.05,-1.94,0.09,-6.65,8.06,106.14
2026-07-27 14:42:41.888,0.2,-2.2,0.28,-15.99,18.37,68.66
2026-07-27 14:42:41.960,0.2,-2.2,0.28,-15.99,18.37,68.66
2026-07-27 14:42:41.961,0.31,-2.05,0.5,-12.82,31.07,27.22
2026-07-27 14:42:41.962,0.31,-2.05,0.5,-12.82,31.07,27.22
2026-07-27 14:42:42.010,0.26,-1.73,0.58,2.99,29.42,-20.69
2026-07-27 14:42:42.011,0.08,-1.43,0.41,11.29,3.6,-65.98
2026-07-27 14:42:42.011,0.08,-1.43,0.41,11.29,3.6,-65.98
2026-07-27 14:42:42.068,-0.11,-1.18,0.11,4.52,-28.32,-96.19
2026-07-27 14:42:42.069,-0.11,-1.18,0.11,4.52,-28.32,-96.19
2026-07-27 14:42:42.129,-0.23,-0.94,-0.12,-4.58,-42.11,-107.36
2026-07-27 14:42:42.129,-0.23,-0.94,-0.12,-4.58,-42.11,-107.36
2026-07-27 14:42:42.188,-0.26,-0.69,-0.21,-7.32,-34.18,-103.88
2026-07-27 14:42:42.188,-0.26,-0.69,-0.21,-7.02,-15.87,-88.01
2026-07-27 14:42:42.189,-0.25,-0.46,-0.17,-7.02,-15.87,-88.01
2026-07-27 14:42:42.189,-0.22,-0.27,-0.09,-2.81,2.38,-59.45
2026-07-27 14:42:42.254,-0.22,-0.27,-0.09,-2.81,2.38,-59.45
2026-07-27 14:42:42.255,-0.22,-0.14,-0.0,13.49,16.66,-20.39
2026-07-27 14:42:42.308,-0.22,-0.14,-0.0,13.49,16.66,-20.39
2026-07-27 14:42:42.308,-0.24,-0.15,0.05,35.71,24.96,24.72
2026-07-27 14:42:42.308,-0.24,-0.15,0.05,35.71,24.96,24.72
2026-07-27 14:42:42.372,-0.29,-0.29,0.06,46.26,25.57,70.56
2026-07-27 14:42:42.373,-0.35,-0.59,0.08,56.46,23.62,107.12
2026-07-27 14:42:42.373,-0.35,-0.59,0.08,56.46,23.62,107.12
2026-07-27 14:42:42.430,-0.41,-0.92,0.15,66.77,20.45,129.76
2026-07-27 14:42:42.439,-0.41,-0.92,0.15,66.77,20.45,129.76
2026-07-27 14:42:42.488,-0.47,-1.1,0.15,46.94,10.01,149.9
2026-07-27 14:42:42.488,-0.47,-1.1,0.15,46.94,10.01,149.9
2026-07-27 14:42:42.488,-0.55,-1.11,0.12,20.81,12.45,167.66
2026-07-27 14:42:42.550,-0.55,-1.11,0.12,11.78,48.22,181.21
2026-07-27 14:42:42.550,-0.62,-1.03,0.16,11.78,48.22,181.21
2026-07-27 14:42:42.608,-0.62,-1.05,0.44,19.47,103.21,195.86
2026-07-27 14:42:42.609,-0.62,-1.05,0.44,19.47,103.21,195.86
2026-07-27 14:42:42.609,-0.52,-1.39,1.09,49.32,130.43,189.88
2026-07-27 14:42:42.670,-0.52,-1.39,1.09,49.32,130.43,189.88
2026-07-27 14:42:42.671,-0.45,-2.28,1.87,59.88,71.96,147.34
2026-07-27 14:42:42.672,-0.45,-2.28,1.87,59.88,71.96,147.34
2026-07-27 14:42:42.728,-0.47,-3.47,2.85,53.59,-30.33,61.77
2026-07-27 14:42:42.729,-1.18,-4.0,3.18,40.22,-137.76,-88.5
2026-07-27 14:42:42.790,-1.18,-4.0,3.18,40.22,-137.76,-88.5
2026-07-27 14:42:42.791,-2.75,-4.0,1.85,-47.73,-275.02,-278.63
2026-07-27 14:42:42.795,-2.75,-4.0,1.85,-47.73,-275.02,-278.63
2026-07-27 14:42:42.851,-3.95,-3.12,0.26,-164.61,-334.35,-455.9
2026-07-27 14:42:42.852,-3.95,-3.12,0.26,-164.61,-334.35,-455.9
2026-07-27 14:42:42.852,-4.0,-1.88,-0.16,-193.79,-236.02,-590.0
2026-07-27 14:42:42.920,-3.52,-0.9,0.2,-158.69,-101.93,-652.7
2026-07-27 14:42:42.920,-3.52,-0.9,0.2,-158.69,-101.93,-652.7
2026-07-27 14:42:42.968,-2.79,-0.39,0.47,-104.13,-38.94,-652.1
2026-07-27 14:42:42.970,-2.79,-0.39,0.47,-104.13,-38.94,-652.1
2026-07-27 14:42:42.970,-2.16,-0.12,0.38,-61.46,-30.76,-594.73
2026-07-27 14:42:43.029,-2.16,-0.12,0.38,-73.97,-18.62,-461.3
2026-07-27 14:42:43.030,-1.65,0.35,0.17,-73.97,-18.62,-461.3
2026-07-27 14:42:43.088,-1.14,1.26,0.1,-70.25,32.47,-296.26
2026-07-27 14:42:43.089,-1.14,1.26,0.1,-70.25,32.47,-296.26
2026-07-27 14:42:43.089,-0.75,2.3,0.2,30.7,90.58,-162.17
2026-07-27 14:42:43.148,-0.75,2.3,0.2,30.7,90.58,-162.17
2026-07-27 14:42:43.149,-0.71,2.71,0.45,156.31,108.46,-19.71
2026-07-27 14:42:43.150,-0.71,2.71,0.45,156.31,108.46,-19.71
2026-07-27 14:42:43.210,-1.11,2.06,0.56,182.8,52.92,195.86
2026-07-27 14:42:43.212,-1.64,0.64,0.1,73.36,-76.54,436.83
2026-07-27 14:42:43.268,-1.64,0.64,0.1,73.36,-76.54,436.83
2026-07-27 14:42:43.270,-1.67,-0.74,-0.44,-131.47,-219.06,586.7
2026-07-27 14:42:43.270,-1.67,-0.74,-0.44,-131.47,-219.06,586.7
2026-07-27 14:42:43.340,-1.3,-1.42,-0.61,-222.17,-336.61,541.8
2026-07-27 14:42:43.340,-1.3,-1.42,-0.61,-222.17,-336.61,541.8
2026-07-27 14:42:43.389,-1.27,-1.63,-0.97,-84.53,-441.89,361.57
2026-07-27 14:42:43.390,-1.53,-1.94,-1.22,115.6,-481.75,227.91
2026-07-27 14:42:43.390,-1.53,-1.94,-1.22,115.6,-481.75,227.91
2026-07-27 14:42:43.449,-1.91,-2.37,-0.93,275.09,-414.73,190.31
2026-07-27 14:42:43.449,-1.91,-2.37,-0.93,275.09,-414.73,190.31
2026-07-27 14:42:43.515,-2.14,-2.85,-0.84,309.27,-337.34,216.98
2026-07-27 14:42:43.516,-2.14,-2.85,-0.84,210.39,-278.56,244.38
2026-07-27 14:42:43.517,-1.65,-2.88,-1.25,210.39,-278.56,244.38
2026-07-27 14:42:43.569,-0.83,-2.09,-1.63,67.93,-190.8,206.79
2026-07-27 14:42:43.569,-0.83,-2.09,-1.63,67.93,-190.8,206.79
2026-07-27 14:42:43.569,-0.47,-1.22,-1.45,-55.91,-71.29,123.84
2026-07-27 14:42:43.643,-0.47,-1.22,-1.45,-55.91,-71.29,123.84
2026-07-27 14:42:43.644,-0.55,-0.78,-0.75,-83.62,60.55,51.09
2026-07-27 14:42:43.688,-0.55,-0.78,-0.75,-15.62,149.41,22.71
2026-07-27 14:42:43.749,-0.63,-0.61,-0.08,-15.62,149.41,22.71
2026-07-27 14:42:43.749,-0.54,-0.59,0.25,67.26,150.51,30.82
2026-07-27 14:42:43.749,-0.54,-0.59,0.25,67.26,150.51,30.82
2026-07-27 14:42:43.750,-0.43,-0.76,0.24,113.34,81.6,42.11
2026-07-27 14:42:43.750,-0.43,-0.76,0.24,113.34,81.6,42.11
2026-07-27 14:42:43.810,-0.45,-0.97,-0.01,132.69,5.43,39.37
2026-07-27 14:42:43.810,-0.45,-0.97,-0.01,132.69,5.43,39.37
2026-07-27 14:42:43.811,-0.45,-0.97,-0.01,132.69,5.43,39.37
2026-07-27 14:42:43.868,-0.45,-0.97,-0.01,132.69,5.43,39.37
2026-07-27 14:42:43.869,-0.74,-0.95,-0.42,121.83,-18.37,0.06
2026-07-27 14:42:43.930,-0.74,-0.95,-0.42,121.83,-18.37,0.06
2026-07-27 14:42:43.930,-0.78,-0.79,-0.29,104.8,27.34,-39.73
2026-07-27 14:42:43.930,-0.75,-0.68,-0.1,98.08,73.06,-65.19
2026-07-27 14:42:43.988,-0.75,-0.68,-0.1,98.08,73.06,-65.19
2026-07-27 14:42:43.991,-0.69,-0.67,-0.01,106.69,93.93,-68.48
2026-07-27 14:42:44.048,-0.69,-0.67,-0.01,106.69,93.93,-68.48
2026-07-27 14:42:44.049,-0.66,-0.67,0.0,106.57,89.23,-61.4
2026-07-27 14:42:44.049,-0.67,-0.66,0.01,81.91,69.09,-53.34
2026-07-27 14:42:44.168,-0.67,-0.66,0.01,81.91,69.09,-53.34
2026-07-27 14:42:44.169,-0.67,-0.66,-0.01,46.08,47.18,-48.1
2026-07-27 14:42:44.169,-0.67,-0.66,-0.01,46.08,47.18,-48.1
2026-07-27 14:42:44.169,-0.64,-0.69,-0.04,18.19,28.14,-38.45
2026-07-27 14:42:44.170,-0.64,-0.69,-0.04,18.19,28.14,-38.45
2026-07-27 14:42:44.235,-0.63,-0.74,-0.05,9.52,13.31,-24.72
2026-07-27 14:42:44.235,-0.65,-0.79,-0.07,16.6,11.35,-19.41
2026-07-27 14:42:44.235,-0.65,-0.79,-0.07,16.6,11.35,-19.41
2026-07-27 14:42:44.288,-0.65,-0.81,-0.08,28.63,27.4,-31.43
2026-07-27 14:42:44.288,-0.65,-0.81,-0.08,28.63,27.4,-31.43
2026-07-27 14:42:44.352,-0.59,-0.85,-0.04,28.26,44.92,-39.67
2026-07-27 14:42:44.353,-0.59,-0.85,-0.04,28.26,44.92,-39.67
2026-07-27 14:42:44.353,-0.54,-0.9,0.01,11.11,40.28,7.2
2026-07-27 14:42:44.409,-0.54,-0.9,0.01,11.11,40.28,7.2
2026-07-27 14:42:44.410,-0.55,-0.87,0.08,10.25,21.12,94.54
2026-07-27 14:42:44.410,-0.6,-0.8,0.15,43.27,32.17,127.26
2026-07-27 14:42:44.468,-0.6,-0.8,0.15,43.27,32.17,127.26
2026-07-27 14:42:44.468,-0.58,-0.85,0.17,77.09,76.17,59.57
2026-07-27 14:42:44.531,-0.58,-0.85,0.17,77.09,76.17,59.57
2026-07-27 14:42:44.532,-0.45,-0.93,0.21,72.57,89.11,-26.98
2026-07-27 14:42:44.532,-0.45,-0.93,0.21,72.57,89.11,-26.98
2026-07-27 14:42:44.588,-0.32,-1.09,0.25,21.97,49.93,-56.34
2026-07-27 14:42:44.588,-0.27,-1.35,0.19,-20.39,1.65,-71.29
2026-07-27 14:42:44.589,-0.27,-1.35,0.19,-20.39,1.65,-71.29
2026-07-27 14:42:44.648,-0.31,-1.43,0.01,-32.17,-30.58,-95.03
2026-07-27 14:42:44.649,-0.31,-1.43,0.01,-32.17,-30.58,-95.03
2026-07-27 14:42:44.709,-0.44,-1.27,-0.19,-53.04,-41.81,-93.93
2026-07-27 14:42:44.710,-0.44,-1.27,-0.19,-53.04,-41.81,-93.93
2026-07-27 14:42:44.711,-0.53,-1.11,-0.29,-62.32,-15.62,-78.06
2026-07-27 14:42:44.776,-0.53,-1.11,-0.29,-62.32,-15.62,-78.06
2026-07-27 14:42:44.784,-0.56,-1.03,-0.28,-32.35,36.8,-70.13
2026-07-27 14:42:44.833,-0.55,-0.9,-0.25,6.23,77.45,-68.3
2026-07-27 14:42:44.833,-0.55,-0.9,-0.25,6.23,77.45,-68.3
2026-07-27 14:42:44.833,-0.52,-0.71,-0.2,25.33,83.56,-73.79
2026-07-27 14:42:44.901,-0.52,-0.71,-0.2,25.33,83.56,-73.79
2026-07-27 14:42:44.902,-0.45,-0.53,-0.08,21.0,64.39,-80.93
2026-07-27 14:42:44.902,-0.45,-0.53,-0.08,21.0,64.39,-80.93
2026-07-27 14:42:44.949,-0.37,-0.45,0.03,13.24,43.03,-80.51
2026-07-27 14:42:44.950,-0.36,-0.48,0.05,16.11,25.76,-60.0
2026-07-27 14:42:44.950,-0.36,-0.48,0.05,16.11,25.76,-60.0
2026-07-27 14:42:45.008,-0.43,-0.53,-0.03,2.08,22.09,4.27
2026-07-27 14:42:45.009,-0.43,-0.53,-0.03,2.08,22.09,4.27
2026-07-27 14:42:45.077,-0.45,-0.48,-0.23,-62.07,58.29,99.55
2026-07-27 14:42:45.106,-0.45,-0.48,-0.23,-62.07,58.29,99.55
2026-07-27 14:42:45.106,-0.41,-0.38,-0.39,-142.15,107.79,151.86
2026-07-27 14:42:45.128,-0.41,-0.38,-0.39,-134.22,109.37,142.88
2026-07-27 14:42:45.129,-0.4,-0.42,-0.35,-134.22,109.37,142.88
2026-07-27 14:42:45.188,-0.46,-0.64,-0.29,-40.04,68.79,133.67
2026-07-27 14:42:45.189,-0.46,-0.64,-0.29,-40.04,68.79,133.67
2026-07-27 14:42:45.189,-0.54,-0.93,-0.24,46.14,26.37,130.37
2026-07-27 14:42:45.249,-0.54,-0.93,-0.24,46.14,26.37,130.37
2026-07-27 14:42:45.249,-0.6,-1.19,-0.22,78.25,0.43,106.69
2026-07-27 14:42:45.249,-0.6,-1.19,-0.22,78.25,0.43,106.69
2026-07-27 14:42:45.308,-0.6,-1.19,-0.22,78.25,0.43,106.69
2026-07-27 14:42:45.309,-0.6,-1.19,-0.22,78.25,0.43,106.69
2026-07-27 14:42:45.309,-0.55,-1.45,-0.23,10.62,-14.28,15.75
2026-07-27 14:42:45.371,-0.55,-1.45,-0.23,10.62,-14.28,15.75
2026-07-27 14:42:45.372,-0.55,-1.45,-0.23,10.62,-14.28,15.75
2026-07-27 14:42:45.373,-0.55,-1.45,-0.23,10.62,-14.28,15.75
2026-07-27 14:42:45.435,-0.35,-1.18,-0.26,20.26,-22.89,-108.83
2026-07-27 14:42:45.435,-0.35,-1.18,-0.26,20.26,-22.89,-108.83
2026-07-27 14:42:45.503,-0.21,-1.16,-0.24,83.56,-41.2,-176.21
2026-07-27 14:42:45.506,-0.07,-1.38,-0.18,121.77,-79.28,-234.99
2026-07-27 14:42:45.506,-0.07,-1.38,-0.18,121.77,-79.28,-234.99
2026-07-27 14:42:45.553,0.04,-1.58,-0.08,128.6,-96.13,-260.19
2026-07-27 14:42:45.553,0.04,-1.58,-0.08,128.6,-96.13,-260.19
2026-07-27 14:42:45.554,0.1,-1.39,0.04,113.83,-73.43,-262.21
2026-07-27 14:42:45.608,0.1,-1.39,0.04,113.83,-73.43,-262.21
2026-07-27 14:42:45.609,0.06,-0.91,0.12,58.78,-26.55,-224.18
2026-07-27 14:42:45.673,0.02,-0.47,0.14,8.18,21.91,-110.53
2026-07-27 14:42:45.673,0.02,-0.47,0.14,8.18,21.91,-110.53
2026-07-27 14:42:45.673,0.01,-0.23,0.13,14.47,51.21,19.71
2026-07-27 14:42:45.729,0.01,-0.23,0.13,14.47,51.21,19.71
2026-07-27 14:42:45.729,0.01,-0.2,0.12,28.81,59.94,80.14
2026-07-27 14:42:45.730,0.01,-0.2,0.12,28.81,59.94,80.14
2026-07-27 14:42:45.788,-0.06,-0.29,0.11,-26.73,64.64,83.13
2026-07-27 14:42:45.789,-0.15,-0.49,-0.05,-164.06,97.29,76.35
2026-07-27 14:42:45.848,-0.15,-0.49,-0.05,-164.06,97.29,76.35
2026-07-27 14:42:45.849,-0.16,-0.83,-0.32,-255.43,139.53,58.17
2026-07-27 14:42:45.849,-0.16,-0.83,-0.32,-255.43,139.53,58.17
2026-07-27 14:42:45.908,-0.09,-1.07,-0.4,-176.94,112.98,53.96
2026-07-27 14:42:45.908,-0.09,-1.07,-0.4,-176.94,112.98,53.96
2026-07-27 14:42:45.973,-0.07,-1.1,-0.28,-47.67,40.1,84.23
2026-07-27 14:42:45.973,-0.07,-1.1,-0.28,-0.06,-10.31,108.28
2026-07-27 14:42:45.974,-0.07,-1.12,-0.2,-0.06,-10.31,108.28
2026-07-27 14:42:46.030,-0.06,-1.24,-0.2,8.12,-38.15,104.86
2026-07-27 14:42:46.031,-0.06,-1.24,-0.2,8.12,-38.15,104.86
2026-07-27 14:42:46.096,-0.07,-1.43,-0.23,9.7,-65.0,86.91
2026-07-27 14:42:46.096,-0.07,-1.43,-0.23,9.7,-65.0,86.91
2026-07-27 14:42:46.096,-0.15,-1.62,-0.32,3.66,-99.73,66.22
2026-07-27 14:42:46.149,-0.2,-1.67,-0.37,9.46,-107.73,30.33
2026-07-27 14:42:46.149,-0.2,-1.67,-0.37,9.46,-107.73,30.33
2026-07-27 14:42:46.149,-0.24,-1.46,-0.34,9.34,-68.79,-11.41
2026-07-27 14:42:46.211,-0.24,-1.46,-0.34,9.34,-68.79,-11.41
2026-07-27 14:42:46.211,-0.27,-1.11,-0.26,1.77,-5.55,-44.49
2026-07-27 14:42:46.212,-0.27,-1.11,-0.26,1.77,-5.55,-44.49
2026-07-27 14:42:46.277,-0.2,-0.85,-0.18,19.47,52.92,-77.82
2026-07-27 14:42:46.278,-0.2,-0.85,-0.18,19.47,52.92,-77.82
2026-07-27 14:42:46.331,-0.1,-0.72,-0.12,48.4,73.06,-94.3
2026-07-27 14:42:46.332,-0.06,-0.63,-0.07,63.66,49.93,-82.46
2026-07-27 14:42:46.332,-0.06,-0.63,-0.07,63.66,49.93,-82.46
2026-07-27 14:42:46.389,-0.09,-0.6,-0.03,61.28,12.02,-55.6
2026-07-27 14:42:46.390,-0.09,-0.6,-0.03,61.28,12.02,-55.6
2026-07-27 14:42:46.448,-0.14,-0.65,-0.01,43.21,-5.49,-35.83
2026-07-27 14:42:46.455,-0.14,-0.65,-0.01,43.21,-5.49,-35.83
2026-07-27 14:42:46.455,-0.14,-0.73,-0.05,8.48,14.22,-30.58
2026-07-27 14:42:46.510,-0.14,-0.73,-0.05,-41.75,50.42,0.12
2026-07-27 14:42:46.510,-0.08,-0.78,-0.09,-41.75,50.42,0.12
2026-07-27 14:42:46.511,-0.09,-0.75,-0.13,-79.9,74.71,78.49
2026-07-27 14:42:46.575,-0.09,-0.75,-0.13,-79.9,74.71,78.49
2026-07-27 14:42:46.575,-0.16,-0.73,-0.18,-87.52,61.4,121.58
2026-07-27 14:42:46.576,-0.16,-0.73,-0.18,-87.52,61.4,121.58
2026-07-27 14:42:46.628,-0.2,-0.81,-0.2,-73.91,17.76,90.09
2026-07-27 14:42:46.629,-0.2,-0.81,-0.2,-73.91,17.76,90.09
2026-07-27 14:42:46.688,-0.22,-0.96,-0.2,-39.49,-11.41,48.83
2026-07-27 14:42:46.688,-0.24,-1.09,-0.18,14.71,-21.85,22.46
2026-07-27 14:42:46.689,-0.24,-1.09,-0.18,14.71,-21.85,22.46
2026-07-27 14:42:46.748,-0.23,-1.17,-0.1,55.11,-41.08,0.12
2026-07-27 14:42:46.749,-0.23,-1.17,-0.1,55.11,-41.08,0.12
2026-07-27 14:42:46.816,-0.19,-1.2,-0.03,54.08,-56.88,-17.76
2026-07-27 14:42:46.816,-0.19,-1.2,-0.03,54.08,-56.88,-17.76
2026-07-27 14:42:46.816,-0.15,-1.14,-0.01,26.06,-44.68,-14.59
2026-07-27 14:42:46.868,-0.15,-1.14,-0.01,26.06,-44.68,-14.59
2026-07-27 14:42:46.868,-0.13,-1.0,-0.03,-1.22,-18.49,3.42
2026-07-27 14:42:46.869,-0.13,-1.0,-0.03,-1.22,-18.49,3.42
2026-07-27 14:42:46.934,-0.13,-1.0,-0.03,-1.22,-18.49,3.42
2026-07-27 14:42:46.934,-0.13,-1.0,-0.03,-1.22,-18.49,3.42
2026-07-27 14:42:46.934,-0.17,-0.71,-0.09,-7.63,2.26,18.25
2026-07-27 14:42:46.991,-0.17,-0.71,-0.09,-7.63,2.26,18.25
2026-07-27 14:42:46.991,-0.21,-0.59,-0.08,5.19,-7.32,18.92
2026-07-27 14:42:46.991,-0.26,-0.49,-0.04,28.14,-23.32,18.31
2026-07-27 14:42:47.048,-0.26,-0.49,-0.04,28.14,-23.32,18.31
2026-07-27 14:42:47.048,-0.37,-0.43,-0.01,60.36,-31.98,25.02
2026-07-27 14:42:47.109,-0.37,-0.43,-0.01,60.36,-31.98,25.02
2026-07-27 14:42:47.109,-0.53,-0.42,-0.0,84.84,-27.59,49.01
2026-07-27 14:42:47.110,-0.53,-0.42,-0.0,84.84,-27.59,49.01
2026-07-27 14:42:47.168,-0.74,-0.48,-0.03,86.0,-15.81,90.15
2026-07-27 14:42:47.169,-0.74,-0.48,-0.03,69.21,-1.89,136.05
2026-07-27 14:42:47.169,-0.95,-0.63,-0.06,69.21,-1.89,136.05
2026-07-27 14:42:47.229,-1.09,-0.86,-0.04,65.37,12.88,167.54
2026-07-27 14:42:47.229,-1.09,-0.86,-0.04,65.37,12.88,167.54
2026-07-27 14:42:47.291,-1.06,-1.15,0.1,94.67,30.09,164.37
2026-07-27 14:42:47.292,-1.06,-1.15,0.1,94.67,30.09,164.37
2026-07-27 14:42:47.292,-0.89,-1.35,0.31,108.7,38.64,115.23
2026-07-27 14:42:47.360,-0.89,-1.35,0.31,108.7,38.64,115.23
2026-07-27 14:42:47.360,-0.73,-1.33,0.4,54.99,32.35,45.9
2026-07-27 14:42:47.408,-0.67,-1.14,0.36,-19.84,24.48,-5.55
2026-07-27 14:42:47.409,-0.67,-1.14,0.36,-19.84,24.48,-5.55
2026-07-27 14:42:47.410,-0.66,-0.93,0.33,-46.2,25.33,-32.65
2026-07-27 14:42:47.468,-0.66,-0.93,0.33,-46.2,25.33,-32.65
2026-07-27 14:42:47.469,-0.64,-0.79,0.36,-18.98,36.5,-41.5
2026-07-27 14:42:47.469,-0.64,-0.79,0.36,-18.98,36.5,-41.5
2026-07-27 14:42:47.529,-0.6,-0.74,0.43,31.8,49.13,-37.23
2026-07-27 14:42:47.530,-0.6,-0.74,0.43,71.78,49.44,-25.21
2026-07-27 14:42:47.530,-0.55,-0.78,0.5,71.78,49.44,-25.21
2026-07-27 14:42:47.588,-0.5,-0.88,0.56,77.76,26.06,-15.87
2026-07-27 14:42:47.589,-0.5,-0.88,0.56,77.76,26.06,-15.87
2026-07-27 14:42:47.649,-0.49,-1.0,0.54,43.21,-20.69,-15.69
2026-07-27 14:42:47.649,-0.49,-1.0,0.54,43.21,-20.69,-15.69
2026-07-27 14:42:47.650,-0.51,-1.09,0.42,-18.92,-74.65,-21.55
2026-07-27 14:42:47.709,-0.51,-1.09,0.42,-18.92,-74.65,-21.55
2026-07-27 14:42:47.710,-0.56,-1.12,0.24,-77.03,-114.62,-32.23
2026-07-27 14:42:47.770,-0.6,-1.09,0.07,-101.01,-123.35,-50.6
2026-07-27 14:42:47.771,-0.6,-1.09,0.07,-101.01,-123.35,-50.6
2026-07-27 14:42:47.771,-0.63,-0.97,-0.04,-87.52,-98.39,-75.32
2026-07-27 14:42:47.833,-0.63,-0.97,-0.04,-87.52,-98.39,-75.32
2026-07-27 14:42:47.834,-0.61,-0.81,-0.05,-59.33,-55.24,-92.96
2026-07-27 14:42:47.835,-0.61,-0.81,-0.05,-59.33,-55.24,-92.96
2026-07-27 14:42:47.894,-0.55,-0.69,-0.01,-34.12,-12.94,-94.06
2026-07-27 14:42:47.895,-0.48,-0.66,0.06,-16.05,15.38,-82.03
2026-07-27 14:42:47.948,-0.48,-0.66,0.06,-16.05,15.38,-82.03
2026-07-27 14:42:47.966,-0.43,-0.71,0.15,-8.42,24.66,-64.76
2026-07-27 14:42:47.966,-0.43,-0.71,0.15,-8.42,24.66,-64.76
2026-07-27 14:42:48.009,-0.38,-0.76,0.21,-7.93,16.6,-48.58
2026-07-27 14:42:48.010,-0.38,-0.76,0.21,-7.93,16.6,-48.58
2026-07-27 14:42:48.068,-0.37,-0.73,0.18,-14.65,-2.14,-26.49
2026-07-27 14:42:48.133,-0.38,-0.67,0.09,-33.63,-17.4,3.23
2026-07-27 14:42:48.134,-0.38,-0.67,0.09,-33.63,-17.4,3.23
2026-07-27 14:42:48.134,-0.4,-0.67,0.03,-53.71,-17.52,25.7
2026-07-27 14:42:48.134,-0.4,-0.67,0.03,-53.71,-17.52,25.7
2026-07-27 14:42:48.135,-0.41,-0.84,0.03,-68.85,-8.54,38.21
2026-07-27 14:42:48.252,-0.41,-0.84,0.03,-68.85,-8.54,38.21
2026-07-27 14:42:48.252,-0.43,-1.11,0.0,-92.9,8.12,62.99
2026-07-27 14:42:48.253,-0.43,-1.11,0.0,-126.46,46.2,85.08
2026-07-27 14:42:48.253,-0.42,-1.21,-0.19,-126.46,46.2,85.08
2026-07-27 14:42:48.253,-0.36,-1.1,-0.38,-134.77,81.73,50.11
2026-07-27 14:42:48.309,-0.36,-1.1,-0.38,-134.77,81.73,50.11
2026-07-27 14:42:48.309,-0.29,-0.96,-0.36,-90.45,79.9,-14.04
2026-07-27 14:42:48.310,-0.29,-0.96,-0.36,-90.45,79.9,-14.04
2026-07-27 14:42:48.368,-0.27,-0.96,-0.19,-29.05,57.98,-46.14
2026-07-27 14:42:48.369,-0.27,-0.96,-0.19,-29.05,57.98,-46.14
2026-07-27 14:42:48.429,-0.27,-1.07,-0.1,16.78,32.53,-52.06
2026-07-27 14:42:48.430,-0.24,-1.13,-0.23,26.67,-0.92,-50.96
2026-07-27 14:42:48.436,-0.24,-1.13,-0.23,26.67,-0.92,-50.96
2026-07-27 14:42:48.488,-0.22,-1.06,-0.4,2.44,-16.17,-46.02
2026-07-27 14:42:48.488,-0.22,-1.06,-0.4,2.44,-16.17,-46.02
2026-07-27 14:42:48.489,-0.2,-0.89,-0.43,0.73,3.23,-44.62
2026-07-27 14:42:48.548,-0.2,-0.89,-0.43,0.73,3.23,-44.62
2026-07-27 14:42:48.549,-0.18,-0.72,-0.33,31.8,31.19,-47.06
2026-07-27 14:42:48.608,-0.18,-0.72,-0.33,62.5,45.1,-41.87
2026-07-27 14:42:48.608,-0.17,-0.61,-0.2,62.5,45.1,-41.87
2026-07-27 14:42:48.609,-0.17,-0.56,-0.11,77.82,42.91,-23.86
2026-07-27 14:42:48.668,-0.17,-0.56,-0.11,77.82,42.91,-23.86
2026-07-27 14:42:48.669,-0.18,-0.56,-0.03,81.42,20.51,-6.04
2026-07-27 14:42:48.669,-0.18,-0.56,-0.03,81.42,20.51,-6.04
2026-07-27 14:42:48.728,-0.18,-0.63,0.02,86.67,-28.75,-20.32
2026-07-27 14:42:48.729,-0.18,-0.63,0.02,86.67,-28.75,-20.32
2026-07-27 14:42:48.788,-0.17,-0.7,0.11,114.07,-92.96,-41.99
2026-07-27 14:42:48.789,-0.17,-0.75,0.25,153.69,-148.19,-53.77
2026-07-27 14:42:48.789,-0.17,-0.75,0.25,153.69,-148.19,-53.77
2026-07-27 14:42:48.853,-0.14,-0.84,0.3,142.58,-143.01,-60.49
2026-07-27 14:42:48.853,-0.14,-0.84,0.3,142.58,-143.01,-60.49
2026-07-27 14:42:48.908,-0.13,-0.84,0.3,109.99,-85.33,-7.02
2026-07-27 14:42:48.910,-0.13,-0.84,0.3,109.99,-85.33,-7.02
2026-07-27 14:42:48.910,-0.21,-0.78,0.38,105.04,-42.42,91.98
2026-07-27 14:42:48.975,-0.28,-0.89,0.42,26.37,-23.07,152.4
2026-07-27 14:42:48.982,-0.28,-0.89,0.42,26.37,-23.07,152.4
2026-07-27 14:42:49.030,-0.31,-1.16,0.27,-161.07,-24.05,174.99
2026-07-27 14:42:49.031,-0.31,-1.16,0.27,-161.07,-24.05,174.99
2026-07-27 14:42:49.031,-0.38,-1.41,0.06,-248.29,-54.32,185.55
2026-07-27 14:42:49.089,-0.38,-1.41,0.06,-248.29,-54.32,185.55
2026-07-27 14:42:49.090,-0.42,-1.5,-0.11,-150.7,-76.66,137.21
2026-07-27 14:42:49.090,-0.39,-1.45,-0.22,-44.68,-65.06,48.34
2026-07-27 14:42:49.152,-0.39,-1.45,-0.22,-44.68,-65.06,48.34
2026-07-27 14:42:49.152,-0.32,-1.32,-0.21,-30.46,-38.57,-17.33
2026-07-27 14:42:49.154,-0.32,-1.32,-0.21,-30.46,-38.57,-17.33
2026-07-27 14:42:49.208,-0.27,-1.23,-0.19,-77.39,-5.92,-49.62
2026-07-27 14:42:49.209,-0.27,-1.23,-0.19,-77.39,-5.92,-49.62
2026-07-27 14:42:49.270,-0.23,-1.25,-0.23,-124.51,33.14,-59.14
2026-07-27 14:42:49.271,-0.23,-1.25,-0.23,-124.51,33.14,-59.14
2026-07-27 14:42:49.273,-0.17,-1.34,-0.31,-123.17,60.91,-78.19
2026-07-27 14:42:49.330,-0.15,-1.38,-0.45,-54.32,44.37,-124.45
2026-07-27 14:42:49.331,-0.15,-1.38,-0.45,-54.32,44.37,-124.45
2026-07-27 14:42:49.388,-0.17,-1.29,-0.58,23.19,8.0,-159.42
2026-07-27 14:42:49.389,-0.17,-1.29,-0.58,23.19,8.0,-159.42
2026-07-27 14:42:49.390,-0.17,-1.17,-0.52,57.68,-4.39,-154.48
2026-07-27 14:42:49.451,-0.17,-1.17,-0.52,57.68,-4.39,-154.48
2026-07-27 14:42:49.452,-0.13,-1.04,-0.31,87.22,14.34,-150.02
2026-07-27 14:42:49.452,-0.06,-0.86,-0.06,119.02,45.78,-166.93
2026-07-27 14:42:49.508,-0.06,-0.86,-0.06,119.02,45.78,-166.93
2026-07-27 14:42:49.509,0.04,-0.72,0.17,117.37,52.25,-166.63
2026-07-27 14:42:49.570,0.04,-0.72,0.17,117.37,52.25,-166.63
2026-07-27 14:42:49.572,0.17,-0.64,0.31,113.71,30.82,-147.64
2026-07-27 14:42:49.572,0.17,-0.64,0.31,113.71,30.82,-147.64
2026-07-27 14:42:49.635,0.26,-0.54,0.38,158.81,5.98,-134.95
2026-07-27 14:42:49.635,0.33,-0.44,0.38,196.23,-9.46,-107.67
2026-07-27 14:42:49.636,0.33,-0.44,0.38,196.23,-9.46,-107.67
2026-07-27 14:42:49.688,0.32,-0.43,0.33,151.25,-4.39,-53.96
2026-07-27 14:42:49.688,0.32,-0.43,0.33,151.25,-4.39,-53.96
2026-07-27 14:42:49.757,0.17,-0.41,0.29,78.86,46.02,-0.12
2026-07-27 14:42:49.757,0.17,-0.41,0.29,78.86,46.02,-0.12
2026-07-27 14:42:49.758,0.11,-0.27,0.26,29.85,140.81,-2.93
2026-07-27 14:42:49.808,0.11,-0.27,0.26,29.85,140.81,-2.93
2026-07-27 14:42:49.809,0.21,-0.15,0.26,-17.64,212.65,-59.63
2026-07-27 14:42:49.871,0.24,-0.17,0.34,-12.33,227.42,-72.88
2026-07-27 14:42:49.872,0.24,-0.17,0.34,-12.33,227.42,-72.88
2026-07-27 14:42:49.872,0.16,-0.3,0.53,32.23,210.82,-5.8
2026-07-27 14:42:49.936,0.16,-0.3,0.53,32.23,210.82,-5.8
2026-07-27 14:42:49.936,-0.02,-0.42,0.73,21.67,182.43,93.87
2026-07-27 14:42:49.936,-0.02,-0.42,0.73,21.67,182.43,93.87
2026-07-27 14:42:49.988,-0.21,-0.52,0.82,-22.4,157.78,165.34
2026-07-27 14:42:49.988,-0.38,-0.63,0.82,-44.56,137.94,180.18
2026-07-27 14:42:50.048,-0.38,-0.63,0.82,-44.56,137.94,180.18
2026-07-27 14:42:50.049,-0.5,-0.73,0.77,-56.58,118.29,160.58
2026-07-27 14:42:50.049,-0.5,-0.73,0.77,-56.58,118.29,160.58
2026-07-27 14:42:50.108,-0.6,-0.83,0.7,-91.67,91.06,149.84
2026-07-27 14:42:50.108,-0.69,-0.93,0.63,-133.42,48.4,158.94
2026-07-27 14:42:50.174,-0.69,-0.93,0.63,-133.42,48.4,158.94
2026-07-27 14:42:50.174,-0.75,-0.94,0.57,-134.34,0.85,156.56
2026-07-27 14:42:50.174,-0.75,-0.94,0.57,-134.34,0.85,156.56
2026-07-27 14:42:50.228,-0.66,-1.06,0.55,-91.8,-36.56,89.11
2026-07-27 14:42:50.229,-0.66,-1.06,0.55,-91.8,-36.56,89.11
2026-07-27 14:42:50.230,-0.43,-1.29,0.67,-23.68,-55.73,3.3
2026-07-27 14:42:50.288,-0.43,-1.29,0.67,34.48,-63.17,-4.09
2026-07-27 14:42:50.289,-0.26,-1.32,0.88,34.48,-63.17,-4.09
2026-07-27 14:42:50.349,-0.24,-1.2,0.99,64.45,-66.28,32.17
2026-07-27 14:42:50.349,-0.24,-1.2,0.99,64.45,-66.28,32.17
2026-07-27 14:42:50.349,-0.39,-0.95,0.95,107.36,-66.28,58.59
2026-07-27 14:42:50.409,-0.39,-0.95,0.95,107.36,-66.28,58.59
2026-07-27 14:42:50.410,-0.52,-0.68,0.93,151.86,-109.5,73.55
2026-07-27 14:42:50.410,-0.52,-0.68,0.93,151.86,-109.5,73.55
2026-07-27 14:42:50.468,-0.48,-0.43,0.98,157.71,-193.73,78.12
2026-07-27 14:42:50.468,-0.33,-0.23,0.97,120.54,-235.23,55.54
2026-07-27 14:42:50.528,-0.33,-0.23,0.97,120.54,-235.23,55.54
2026-07-27 14:42:50.529,-0.17,-0.12,0.89,72.69,-214.97,-4.09
2026-07-27 14:42:50.530,-0.17,-0.12,0.89,72.69,-214.97,-4.09
2026-07-27 14:42:50.588,-0.17,-0.06,0.83,53.89,-146.42,-44.86
2026-07-27 14:42:50.588,-0.17,-0.06,0.83,53.89,-146.42,-44.86
2026-07-27 14:42:50.648,-0.29,-0.03,0.74,42.05,-66.65,-25.94
2026-07-27 14:42:50.649,-0.24,-0.03,0.65,7.51,-49.62,1.77
2026-07-27 14:42:50.649,-0.24,-0.03,0.65,7.51,-49.62,1.77
2026-07-27 14:42:50.711,-0.06,-0.02,0.64,-28.08,-83.98,15.32
2026-07-27 14:42:50.714,-0.06,-0.02,0.64,-28.08,-83.98,15.32
2026-07-27 14:42:50.716,-0.0,-0.02,0.7,-40.95,-82.58,32.1
2026-07-27 14:42:50.770,-0.0,-0.02,0.7,-40.95,-82.58,32.1
2026-07-27 14:42:50.771,-0.04,-0.05,0.76,-40.65,-36.25,34.67
2026-07-27 14:42:50.829,-0.04,-0.05,0.76,-35.1,7.75,17.21
2026-07-27 14:42:50.829,-0.03,-0.08,0.78,-35.1,7.75,17.21
2026-07-27 14:42:50.829,-0.02,-0.09,0.77,-14.22,48.89,0.67
2026-07-27 14:42:50.894,-0.02,-0.09,0.77,-14.22,48.89,0.67
2026-07-27 14:42:50.896,-0.08,-0.06,0.73,26.67,103.94,-5.19
2026-07-27 14:42:50.896,-0.08,-0.06,0.73,26.67,103.94,-5.19
2026-07-27 14:42:50.949,-0.2,0.03,0.69,73.12,167.85,-7.81
2026-07-27 14:42:50.949,-0.2,0.03,0.69,73.12,167.85,-7.81
2026-07-27 14:42:51.068,-0.34,0.11,0.71,89.54,217.35,-6.16
2026-07-27 14:42:51.068,-0.55,0.11,0.84,77.58,245.85,5.43
2026-07-27 14:42:51.068,-0.55,0.11,0.84,77.58,245.85,5.43
2026-07-27 14:42:51.069,-0.75,0.05,1.03,73.43,255.25,18.55
2026-07-27 14:42:51.069,-0.75,0.05,1.03,73.43,255.25,18.55
2026-07-27 14:42:51.132,-0.84,0.01,1.19,76.35,221.56,24.23
2026-07-27 14:42:51.132,-0.84,0.01,1.19,76.35,221.56,24.23
2026-07-27 14:42:51.133,-0.78,0.03,1.3,71.66,151.92,23.13
2026-07-27 14:42:51.189,-0.78,0.03,1.3,71.66,151.92,23.13
2026-07-27 14:42:51.190,-0.78,0.03,1.3,71.66,151.92,23.13
2026-07-27 14:42:51.191,-0.78,0.03,1.3,71.66,151.92,23.13
2026-07-27 14:42:51.249,-0.72,-0.01,1.14,36.32,-1.22,19.23
2026-07-27 14:42:51.252,-0.72,-0.01,1.14,36.32,-1.22,19.23
2026-07-27 14:42:51.252,-0.7,-0.1,1.1,1.65,-99.61,1.22
2026-07-27 14:42:51.308,-0.57,-0.13,1.18,-29.85,-171.2,-26.25
2026-07-27 14:42:51.309,-0.57,-0.13,1.18,-29.85,-171.2,-26.25
2026-07-27 14:42:51.370,-0.33,-0.09,1.29,-24.96,-236.69,-51.09
2026-07-27 14:42:51.373,-0.33,-0.09,1.29,-24.96,-236.69,-51.09
2026-07-27 14:42:51.373,-0.06,-0.02,1.29,0.61,-319.27,-66.16
2026-07-27 14:42:51.489,-0.06,-0.02,1.29,0.61,-319.27,-66.16
2026-07-27 14:42:51.489,0.09,0.02,1.19,4.15,-368.04,-54.08
2026-07-27 14:42:51.507,0.09,0.02,1.19,-18.37,-359.44,-1.59
2026-07-27 14:42:51.507,0.14,0.01,1.02,-18.37,-359.44,-1.59
2026-07-27 14:42:51.509,0.18,-0.05,0.87,-36.25,-307.19,56.46
2026-07-27 14:42:51.510,0.18,-0.05,0.87,-36.25,-307.19,56.46
2026-07-27 14:42:51.548,0.21,-0.07,0.76,-33.02,-231.87,70.68
2026-07-27 14:42:51.550,0.21,-0.07,0.76,-33.02,-231.87,70.68
2026-07-27 14:42:51.608,0.26,-0.05,0.67,-21.55,-165.89,38.7
2026-07-27 14:42:51.608,0.26,-0.05,0.67,-21.55,-165.89,38.7
2026-07-27 14:42:51.609,0.31,0.0,0.6,-16.48,-119.38,-9.22
2026-07-27 14:42:51.673,0.33,0.07,0.53,-15.69,-59.57,-50.42
2026-07-27 14:42:51.673,0.33,0.07,0.53,-15.69,-59.57,-50.42
2026-07-27 14:42:51.728,0.24,0.1,0.59,-2.14,44.86,-78.67
2026-07-27 14:42:51.729,0.24,0.1,0.59,-2.14,44.86,-78.67
2026-07-27 14:42:51.730,0.13,0.13,0.71,34.67,138.43,-109.37
2026-07-27 14:42:51.790,0.13,0.13,0.71,34.67,138.43,-109.37
2026-07-27 14:42:51.794,0.1,0.2,0.76,49.26,183.9,-146.91
2026-07-27 14:42:51.850,0.02,0.28,0.84,-1.46,249.57,-176.51
2026-07-27 14:42:51.850,0.02,0.28,0.84,-1.46,249.57,-176.51
2026-07-27 14:42:51.850,-0.14,0.36,0.94,-60.18,323.91,-173.95
2026-07-27 14:42:51.908,-0.14,0.36,0.94,-60.18,323.91,-173.95
2026-07-27 14:42:51.909,-0.23,0.46,0.99,-54.38,312.81,-119.26
2026-07-27 14:42:51.909,-0.23,0.46,0.99,-54.38,312.81,-119.26
2026-07-27 14:42:51.969,-0.29,0.49,1.04,-6.23,239.38,-46.39
2026-07-27 14:42:51.970,-0.42,0.41,1.09,33.51,184.08,-9.34
2026-07-27 14:42:52.033,-0.42,0.41,1.09,33.51,184.08,-9.34
2026-07-27 14:42:52.034,-0.52,0.32,1.12,59.75,132.81,-16.24
2026-07-27 14:42:52.034,-0.52,0.32,1.12,59.75,132.81,-16.24
2026-07-27 14:42:52.088,-0.49,0.31,1.16,66.22,57.5,-33.94
2026-07-27 14:42:52.089,-0.49,0.31,1.16,35.16,-18.01,-27.95
2026-07-27 14:42:52.089,-0.35,0.34,1.24,35.16,-18.01,-27.95
2026-07-27 14:42:52.154,-0.19,0.32,1.32,-29.24,-62.81,18.37
2026-07-27 14:42:52.155,-0.19,0.32,1.32,-29.24,-62.81,18.37
2026-07-27 14:42:52.209,-0.07,0.21,1.4,-106.51,-76.11,91.37
2026-07-27 14:42:52.209,-0.07,0.21,1.4,-106.51,-76.11,91.37
2026-07-27 14:42:52.210,-0.04,-0.02,1.46,-159.12,-80.44,145.81
2026-07-27 14:42:52.269,-0.04,-0.02,1.46,-159.12,-80.44,145.81
2026-07-27 14:42:52.269,-0.1,-0.26,1.42,-159.3,-100.46,134.64
2026-07-27 14:42:52.330,-0.18,-0.41,1.25,-135.07,-132.08,77.15
2026-07-27 14:42:52.331,-0.18,-0.41,1.25,-135.07,-132.08,77.15
2026-07-27 14:42:52.331,-0.23,-0.5,1.06,-117.61,-133.48,33.08
2026-07-27 14:42:52.393,-0.23,-0.5,1.06,-117.61,-133.48,33.08
2026-07-27 14:42:52.394,-0.26,-0.46,0.9,-83.07,-94.97,15.26
2026-07-27 14:42:52.394,-0.26,-0.46,0.9,-83.07,-94.97,15.26
2026-07-27 14:42:52.449,-0.26,-0.28,0.76,-27.1,-49.56,0.92
2026-07-27 14:42:52.451,-0.23,-0.13,0.62,-22.03,-37.23,-33.33
2026-07-27 14:42:52.516,-0.23,-0.13,0.62,-22.03,-37.23,-33.33
2026-07-27 14:42:52.517,-0.18,-0.08,0.53,-51.57,-48.65,-68.18
2026-07-27 14:42:52.517,-0.18,-0.08,0.53,-51.57,-48.65,-68.18
2026-07-27 14:42:52.568,-0.16,-0.05,0.48,-42.54,-41.5,-73.36
2026-07-27 14:42:52.568,-0.16,-0.05,0.48,-42.54,-41.5,-73.36
2026-07-27 14:42:52.569,-0.17,-0.01,0.5,-4.76,-13.31,-59.88
2026-07-27 14:42:52.633,-0.17,-0.01,0.5,15.44,14.95,-44.74
2026-07-27 14:42:52.635,-0.2,-0.01,0.57,15.44,14.95,-44.74
2026-07-27 14:42:52.689,-0.26,-0.09,0.66,5.0,41.87,-27.4
2026-07-27 14:42:52.690,-0.26,-0.09,0.66,5.0,41.87,-27.4
2026-07-27 14:42:52.690,-0.34,-0.2,0.74,16.42,84.9,-3.85
2026-07-27 14:42:52.748,-0.34,-0.2,0.74,16.42,84.9,-3.85
2026-07-27 14:42:52.748,-0.43,-0.12,0.78,68.6,147.89,32.47
2026-07-27 14:42:52.749,-0.43,-0.12,0.78,68.6,147.89,32.47
2026-07-27 14:42:52.809,-0.49,0.14,0.84,98.63,230.47,93.32
2026-07-27 14:42:52.809,-0.59,0.28,0.96,59.45,307.8,160.22
2026-07-27 14:42:52.874,-0.59,0.28,0.96,59.45,307.8,160.22
2026-07-27 14:42:52.875,-0.73,0.21,1.06,-10.31,322.75,193.42
2026-07-27 14:42:52.875,-0.73,0.21,1.06,-10.31,322.75,193.42
2026-07-27 14:42:52.928,-0.82,0.09,1.12,-43.76,244.32,168.76
2026-07-27 14:42:52.928,-0.82,0.09,1.12,-43.76,244.32,168.76
2026-07-27 14:42:52.988,-0.86,-0.02,1.13,-37.84,121.58,108.7
2026-07-27 14:42:52.989,-0.86,-0.08,1.1,-18.19,27.4,54.14
2026-07-27 14:42:52.989,-0.86,-0.08,1.1,-18.19,27.4,54.14
2026-07-27 14:42:53.049,-0.85,-0.1,1.1,26.25,-32.1,19.47
2026-07-27 14:42:53.050,-0.85,-0.1,1.1,26.25,-32.1,19.47
2026-07-27 14:42:53.050,-0.81,-0.07,1.17,90.88,-70.98,-0.98
2026-07-27 14:42:53.109,-0.81,-0.07,1.17,90.88,-70.98,-0.98
2026-07-27 14:42:53.109,-0.76,0.01,1.16,117.8,-79.96,-19.71
2026-07-27 14:42:53.109,-0.76,0.01,1.16,117.8,-79.96,-19.71
2026-07-27 14:42:53.168,-0.7,0.12,1.0,76.05,-64.15,-36.99
2026-07-27 14:42:53.169,-0.65,0.19,0.79,12.39,-49.5,-45.47
2026-07-27 14:42:53.242,-0.65,0.19,0.79,12.39,-49.5,-45.47
2026-07-27 14:42:53.242,-0.6,0.22,0.64,-23.86,-49.13,-44.74
2026-07-27 14:42:53.244,-0.6,0.22,0.64,-23.86,-49.13,-44.74
2026-07-27 14:42:53.291,-0.58,0.21,0.53,-38.7,-53.59,-34.85
2026-07-27 14:42:53.291,-0.58,0.21,0.53,-38.7,-53.59,-34.85
2026-07-27 14:42:53.348,-0.59,0.17,0.44,-55.36,-47.24,-14.59
2026-07-27 14:42:53.349,-0.59,0.17,0.44,-55.36,-47.24,-14.59
2026-07-27 14:42:53.349,-0.63,0.12,0.35,-67.02,-23.99,3.11
2026-07-27 14:42:53.409,-0.66,0.11,0.3,-53.04,3.54,4.76
2026-07-27 14:42:53.409,-0.66,0.11,0.3,-53.04,3.54,4.76
2026-07-27 14:42:53.410,-0.68,0.14,0.29,-17.7,18.86,-1.95
2026-07-27 14:42:53.472,-0.68,0.14,0.29,-17.7,18.86,-1.95
