Timestamp,AccX,AccY,AccZ,GyroX,GyroY,GyroZ
2026-07-27 12:36:42.938,-0.58,0.08,0.79,-2.93,2.5,1.1
2026-07-27 12:36:42.939,0.07,-0.56,0.77,-1.22,-2.32,4.64
2026-07-27 12:36:42.939,0.07,-0.56,0.77,-1.22,-2.32,4.64
2026-07-27 12:36:42.940,0.07,-0.56,0.76,13.31,8.97,7.45
2026-07-27 12:36:42.997,0.04,-0.56,0.73,8.54,12.15,11.11
2026-07-27 12:36:42.998,0.04,-0.56,0.73,8.54,12.15,11.11
2026-07-27 12:36:42.999,0.01,-0.56,0.73,1.1,9.58,16.48
2026-07-27 12:36:43.058,0.01,-0.56,0.73,1.1,9.58,16.48
2026-07-27 12:36:43.058,-0.02,-0.56,0.74,-7.63,6.35,20.87
2026-07-27 12:36:43.059,-0.02,-0.56,0.74,-7.63,6.35,20.87
2026-07-27 12:36:43.114,-0.02,-0.57,0.76,-14.77,-4.64,20.81
2026-07-27 12:36:43.114,-0.02,-0.56,0.81,-4.88,-15.08,12.21
2026-07-27 12:36:43.175,-0.02,-0.56,0.81,-4.88,-15.08,12.21
2026-07-27 12:36:43.176,-0.02,-0.54,0.83,11.41,-12.57,-0.67
2026-07-27 12:36:43.176,-0.02,-0.54,0.83,11.41,-12.57,-0.67
2026-07-27 12:36:43.235,-0.02,-0.53,0.83,12.39,-5.31,-8.0
2026-07-27 12:36:43.235,-0.02,-0.53,0.83,12.39,-5.31,-8.0
2026-07-27 12:36:43.235,-0.0,-0.55,0.82,1.1,0.61,-7.75
2026-07-27 12:36:43.294,0.02,-0.57,0.81,-7.2,5.07,-4.52
2026-07-27 12:36:43.294,0.02,-0.57,0.81,-7.2,5.07,-4.52
2026-07-27 12:36:43.354,0.02,-0.58,0.81,-7.02,6.47,-2.14
2026-07-27 12:36:43.354,0.02,-0.58,0.81,-7.02,6.47,-2.14
2026-07-27 12:36:43.355,0.02,-0.58,0.82,-1.95,5.07,-1.77
2026-07-27 12:36:43.418,0.02,-0.58,0.82,-1.95,5.07,-1.77
2026-07-27 12:36:43.419,0.01,-0.57,0.82,1.22,2.87,-1.65
2026-07-27 12:36:43.419,0.01,-0.57,0.82,1.16,2.38,-0.85
2026-07-27 12:36:43.475,0.0,-0.56,0.82,1.16,2.38,-0.85
2026-07-27 12:36:43.476,0.0,-0.56,0.81,0.92,4.21,-0.24
2026-07-27 12:36:43.477,0.0,-0.56,0.81,0.92,4.21,-0.24
2026-07-27 12:36:43.542,0.01,-0.56,0.8,1.71,5.62,-0.31
2026-07-27 12:36:43.542,0.01,-0.56,0.8,1.71,5.62,-0.31
2026-07-27 12:36:43.594,0.01,-0.56,0.78,3.17,4.46,-1.22
2026-07-27 12:36:43.595,0.01,-0.56,0.78,3.17,4.46,-1.22
2026-07-27 12:36:43.596,0.01,-0.55,0.78,4.03,2.26,-2.5
2026-07-27 12:36:43.656,0.0,-0.56,0.79,3.36,0.85,-2.81
2026-07-27 12:36:43.656,0.0,-0.56,0.79,3.36,0.85,-2.81
2026-07-27 12:36:43.656,-0.0,-0.56,0.8,3.66,-0.24,-2.2
2026-07-27 12:36:43.715,-0.0,-0.56,0.8,3.66,-0.24,-2.2
2026-07-27 12:36:43.715,-0.01,-0.56,0.81,6.59,-1.16,-2.26
2026-07-27 12:36:43.774,-0.01,-0.56,0.81,6.59,-1.16,-2.26
2026-07-27 12:36:43.775,-0.01,-0.54,0.82,8.85,-1.22,-3.66
2026-07-27 12:36:43.779,-0.0,-0.54,0.81,6.71,-1.95,-5.55
2026-07-27 12:36:43.836,-0.0,-0.54,0.81,6.71,-1.95,-5.55
2026-07-27 12:36:43.836,0.02,-0.54,0.8,2.99,-6.84,-9.16
2026-07-27 12:36:43.836,0.02,-0.54,0.8,2.99,-6.84,-9.16
2026-07-27 12:36:43.895,0.06,-0.57,0.79,1.16,-11.6,-12.94
2026-07-27 12:36:43.913,0.06,-0.57,0.79,1.16,-11.6,-12.94
2026-07-27 12:36:43.955,0.1,-0.6,0.78,4.46,-1.95,-14.34
2026-07-27 12:36:43.955,0.14,-0.6,0.76,26.98,26.43,-16.11
2026-07-27 12:36:43.955,0.14,-0.6,0.76,26.98,26.43,-16.11
2026-07-27 12:36:44.015,0.17,-0.59,0.77,71.59,62.56,-13.67
2026-07-27 12:36:44.015,0.17,-0.59,0.77,71.59,62.56,-13.67
2026-07-27 12:36:44.016,0.13,-0.52,0.83,114.14,92.53,4.7
2026-07-27 12:36:44.075,0.13,-0.52,0.83,114.14,92.53,4.7
2026-07-27 12:36:44.080,0.01,-0.35,0.95,138.49,88.32,27.53
2026-07-27 12:36:44.146,-0.11,-0.16,1.03,137.45,57.13,39.18
2026-07-27 12:36:44.148,-0.11,-0.16,1.03,137.45,57.13,39.18
2026-07-27 12:36:44.148,-0.21,-0.05,1.02,113.16,38.09,43.88
2026-07-27 12:36:44.195,-0.21,-0.05,1.02,113.16,38.09,43.88
2026-07-27 12:36:44.195,-0.27,0.01,0.97,78.12,33.45,44.98
2026-07-27 12:36:44.197,-0.27,0.01,0.97,78.12,33.45,44.98
2026-07-27 12:36:44.256,-0.32,0.03,0.92,47.73,32.96,41.99
2026-07-27 12:36:44.256,-0.34,0.04,0.89,38.51,36.13,34.97
2026-07-27 12:36:44.314,-0.34,0.04,0.89,38.51,36.13,34.97
2026-07-27 12:36:44.338,-0.38,0.07,0.9,42.3,38.39,29.6
2026-07-27 12:36:44.338,-0.38,0.07,0.9,42.3,38.39,29.6
2026-07-27 12:36:44.374,-0.42,0.11,0.92,42.05,36.74,28.32
2026-07-27 12:36:44.375,-0.46,0.17,0.94,40.65,38.45,24.66
2026-07-27 12:36:44.434,-0.46,0.17,0.94,40.65,38.45,24.66
2026-07-27 12:36:44.435,-0.49,0.2,0.92,42.91,44.74,15.2
2026-07-27 12:36:44.435,-0.49,0.2,0.92,42.91,44.74,15.2
2026-07-27 12:36:44.496,-0.48,0.19,0.88,41.5,46.33,5.37
2026-07-27 12:36:44.496,-0.48,0.19,0.88,41.5,46.33,5.37
2026-07-27 12:36:44.497,-0.48,0.18,0.86,32.96,40.16,0.37
2026-07-27 12:36:44.555,-0.46,0.17,0.85,20.39,29.6,-0.79
2026-07-27 12:36:44.555,-0.46,0.17,0.85,20.39,29.6,-0.79
2026-07-27 12:36:44.616,-0.45,0.16,0.86,10.44,21.3,-0.43
2026-07-27 12:36:44.624,-0.45,0.16,0.86,10.44,21.3,-0.43
2026-07-27 12:36:44.624,-0.46,0.19,0.86,10.68,22.58,-0.24
2026-07-27 12:36:44.674,-0.46,0.19,0.86,21.3,32.47,-3.36
2026-07-27 12:36:44.675,-0.49,0.25,0.82,21.3,32.47,-3.36
2026-07-27 12:36:44.734,-0.5,0.29,0.77,26.79,38.82,-7.87
2026-07-27 12:36:44.735,-0.5,0.29,0.77,26.79,38.82,-7.87
2026-07-27 12:36:44.735,-0.49,0.28,0.76,9.64,34.0,-8.67
2026-07-27 12:36:44.794,-0.49,0.28,0.76,9.64,34.0,-8.67
2026-07-27 12:36:44.795,-0.47,0.22,0.78,-16.97,27.34,-5.98
2026-07-27 12:36:44.795,-0.45,0.16,0.8,-35.64,25.88,0.12
2026-07-27 12:36:44.855,-0.45,0.16,0.8,-35.64,25.88,0.12
2026-07-27 12:36:44.856,-0.46,0.12,0.84,-56.58,31.01,17.21
2026-07-27 12:36:44.856,-0.46,0.12,0.84,-56.58,31.01,17.21
2026-07-27 12:36:44.915,-0.52,0.15,0.88,-62.5,34.85,33.26
2026-07-27 12:36:44.915,-0.57,0.21,0.85,-31.68,23.99,39.73
2026-07-27 12:36:44.974,-0.57,0.21,0.85,-31.68,23.99,39.73
2026-07-27 12:36:44.974,-0.6,0.21,0.8,-0.18,4.03,54.99
2026-07-27 12:36:45.039,-0.6,0.21,0.8,-0.18,4.03,54.99
2026-07-27 12:36:45.039,-0.64,0.22,0.74,6.96,-10.68,58.9
2026-07-27 12:36:45.039,-0.64,0.22,0.74,11.54,-9.52,32.23
2026-07-27 12:36:45.095,-0.63,0.29,0.73,11.54,-9.52,32.23
2026-07-27 12:36:45.095,-0.6,0.36,0.8,12.15,-7.02,18.8
2026-07-27 12:36:45.096,-0.6,0.36,0.8,12.15,-7.02,18.8
2026-07-27 12:36:45.160,-0.63,0.38,0.84,-5.07,-16.66,41.69
2026-07-27 12:36:45.161,-0.63,0.38,0.84,-5.07,-16.66,41.69
2026-07-27 12:36:45.214,-0.67,0.43,0.83,-3.05,-12.51,43.03
2026-07-27 12:36:45.214,-0.67,0.43,0.83,23.93,-2.75,-4.88
2026-07-27 12:36:45.215,-0.64,0.45,0.77,23.93,-2.75,-4.88
2026-07-27 12:36:45.275,-0.62,0.31,0.72,43.15,-11.23,-43.15
2026-07-27 12:36:45.277,-0.62,0.31,0.72,43.15,-11.23,-43.15
2026-07-27 12:36:45.277,-0.61,0.2,0.71,54.5,-3.3,-62.93
2026-07-27 12:36:45.396,-0.61,0.2,0.71,54.5,-3.3,-62.93
2026-07-27 12:36:45.397,-0.61,0.17,0.7,63.42,35.1,-86.3
2026-07-27 12:36:45.397,-0.61,0.14,0.67,50.35,59.75,-89.17
2026-07-27 12:36:45.397,-0.61,0.14,0.67,50.35,59.75,-89.17
2026-07-27 12:36:45.398,-0.6,0.13,0.67,-1.22,42.42,-70.31
2026-07-27 12:36:45.455,-0.6,0.13,0.67,-1.22,42.42,-70.31
2026-07-27 12:36:45.455,-0.62,0.12,0.67,-54.2,12.88,-54.75
2026-07-27 12:36:45.456,-0.62,0.12,0.67,-54.2,12.88,-54.75
2026-07-27 12:36:45.515,-0.68,0.06,0.65,-70.98,4.52,-54.57
2026-07-27 12:36:45.515,-0.73,-0.03,0.66,-58.78,11.9,-62.13
2026-07-27 12:36:45.589,-0.73,-0.03,0.66,-58.78,11.9,-62.13
2026-07-27 12:36:45.590,-0.73,-0.06,0.7,-34.36,19.71,-64.88
2026-07-27 12:36:45.590,-0.73,-0.06,0.7,-34.36,19.71,-64.88
2026-07-27 12:36:45.634,-0.72,0.04,0.74,-10.99,21.73,-56.46
2026-07-27 12:36:45.635,-0.72,0.04,0.74,-10.99,21.73,-56.46
2026-07-27 12:36:45.635,-0.71,0.15,0.7,2.38,20.02,-42.3
2026-07-27 12:36:45.694,-0.7,0.11,0.6,7.69,16.78,-34.48
2026-07-27 12:36:45.695,-0.7,0.11,0.6,7.69,16.78,-34.48
2026-07-27 12:36:45.754,-0.67,-0.01,0.55,5.37,7.69,-32.59
2026-07-27 12:36:45.754,-0.67,-0.01,0.55,5.37,7.69,-32.59
2026-07-27 12:36:45.755,-0.64,-0.12,0.6,-5.49,-8.79,-29.91
2026-07-27 12:36:45.816,-0.64,-0.12,0.6,-5.49,-8.79,-29.91
2026-07-27 12:36:45.816,-0.65,-0.2,0.69,-14.1,-19.84,-23.01
2026-07-27 12:36:45.877,-0.7,-0.21,0.71,-12.15,-15.26,-13.49
2026-07-27 12:36:45.884,-0.7,-0.21,0.71,-12.15,-15.26,-13.49
2026-07-27 12:36:45.890,-0.76,-0.16,0.67,-4.64,-2.38,-5.49
2026-07-27 12:36:45.937,-0.76,-0.16,0.67,-4.64,-2.38,-5.49
2026-07-27 12:36:45.940,-0.79,-0.13,0.62,-0.24,6.41,-5.98
2026-07-27 12:36:45.941,-0.79,-0.13,0.62,-0.24,6.41,-5.98
2026-07-27 12:36:45.994,-0.76,-0.11,0.61,-2.75,7.93,-21.18
2026-07-27 12:36:45.995,-0.69,-0.11,0.64,-11.84,2.26,-37.66
2026-07-27 12:36:45.995,-0.69,-0.11,0.64,-11.84,2.26,-37.66
2026-07-27 12:36:46.054,-0.63,-0.15,0.68,-28.02,-10.5,-36.32
2026-07-27 12:36:46.054,-0.63,-0.15,0.68,-28.02,-10.5,-36.32
2026-07-27 12:36:46.115,-0.6,-0.18,0.7,-34.06,-22.03,-20.51
2026-07-27 12:36:46.115,-0.61,-0.19,0.7,-12.45,-23.8,-3.6
2026-07-27 12:36:46.116,-0.61,-0.19,0.7,-12.45,-23.8,-3.6
2026-07-27 12:36:46.174,-0.62,-0.17,0.7,21.06,-19.47,7.08
2026-07-27 12:36:46.174,-0.62,-0.17,0.7,21.06,-19.47,7.08
2026-07-27 12:36:46.234,-0.63,-0.17,0.72,38.45,-17.58,12.21
2026-07-27 12:36:46.234,-0.63,-0.17,0.72,38.45,-17.58,12.21
2026-07-27 12:36:46.235,-0.61,-0.19,0.73,30.58,-20.45,17.4
2026-07-27 12:36:46.294,-0.59,-0.24,0.74,10.62,-25.21,27.04
2026-07-27 12:36:46.295,-0.59,-0.24,0.74,10.62,-25.21,27.04
2026-07-27 12:36:46.295,-0.59,-0.29,0.75,-8.24,-31.13,39.92
2026-07-27 12:36:46.355,-0.59,-0.29,0.75,-8.24,-31.13,39.92
2026-07-27 12:36:46.355,-0.61,-0.3,0.77,-19.65,-36.87,43.88
2026-07-27 12:36:46.421,-0.61,-0.3,0.77,-19.65,-36.87,43.88
2026-07-27 12:36:46.477,-0.62,-0.3,0.81,-29.11,-38.15,31.8
2026-07-27 12:36:46.477,-0.6,-0.33,0.84,-48.1,-45.1,12.02
2026-07-27 12:36:46.477,-0.6,-0.33,0.84,-48.1,-45.1,12.02
2026-07-27 12:36:46.477,-0.53,-0.35,0.84,-80.2,-89.78,-4.09
2026-07-27 12:36:46.477,-0.53,-0.35,0.84,-80.2,-89.78,-4.09
2026-07-27 12:36:46.547,-0.45,-0.39,0.78,-127.75,-192.75,21.24
2026-07-27 12:36:46.548,-0.47,-0.48,0.7,-170.04,-267.33,109.56
2026-07-27 12:36:46.594,-0.47,-0.48,0.7,-170.04,-267.33,109.56
2026-07-27 12:36:46.653,-0.47,-0.49,0.74,-127.62,-204.35,142.09
2026-07-27 12:36:46.654,-0.47,-0.49,0.74,-127.62,-204.35,142.09
2026-07-27 12:36:46.654,-0.37,-0.34,0.85,7.2,-66.16,48.46
2026-07-27 12:36:46.655,-0.27,-0.19,0.91,143.8,25.33,-50.42
2026-07-27 12:36:46.714,-0.27,-0.19,0.91,143.8,25.33,-50.42
2026-07-27 12:36:46.714,-0.2,-0.08,0.93,219.54,44.56,-76.42
2026-07-27 12:36:46.715,-0.2,-0.08,0.93,219.54,44.56,-76.42
2026-07-27 12:36:46.774,-0.15,-0.02,0.92,228.52,27.4,-79.83
2026-07-27 12:36:46.775,-0.15,-0.02,0.92,181.52,22.46,-96.07
2026-07-27 12:36:46.838,-0.12,0.1,0.93,181.52,22.46,-96.07
2026-07-27 12:36:46.839,-0.12,0.16,0.95,70.43,22.34,-75.68
2026-07-27 12:36:46.839,-0.12,0.16,0.95,70.43,22.34,-75.68
2026-07-27 12:36:46.894,-0.13,0.1,0.94,-47.0,-8.12,-4.27
2026-07-27 12:36:46.895,-0.13,0.1,0.94,-47.0,-8.12,-4.27
2026-07-27 12:36:46.955,-0.12,-0.02,0.92,-94.48,-53.83,58.11
2026-07-27 12:36:46.955,-0.06,-0.12,0.96,-100.28,-76.54,78.92
2026-07-27 12:36:46.956,-0.06,-0.12,0.96,-100.28,-76.54,78.92
2026-07-27 12:36:47.014,-0.03,-0.18,1.02,-98.82,-66.53,73.3
2026-07-27 12:36:47.015,-0.03,-0.18,1.02,-98.82,-66.53,73.3
2026-07-27 12:36:47.016,-0.04,-0.19,1.02,-71.96,-49.68,63.72
2026-07-27 12:36:47.081,-0.07,-0.18,0.98,-34.12,-43.58,53.59
2026-07-27 12:36:47.082,-0.07,-0.18,0.98,-34.12,-43.58,53.59
2026-07-27 12:36:47.134,-0.08,-0.2,0.95,-19.47,-43.4,42.05
2026-07-27 12:36:47.135,-0.08,-0.2,0.95,-19.47,-43.4,42.05
2026-07-27 12:36:47.135,-0.04,-0.18,0.94,-18.19,-45.59,40.47
2026-07-27 12:36:47.204,0.02,-0.14,0.95,-1.65,-53.04,43.58
2026-07-27 12:36:47.204,0.02,-0.14,0.95,-1.65,-53.04,43.58
2026-07-27 12:36:47.256,0.05,-0.16,0.92,11.05,-56.27,42.24
2026-07-27 12:36:47.256,0.05,-0.16,0.92,11.05,-56.27,42.24
2026-07-27 12:36:47.256,0.06,-0.18,0.82,15.01,-35.22,41.26
2026-07-27 12:36:47.314,0.06,-0.18,0.82,15.01,-35.22,41.26
2026-07-27 12:36:47.315,-0.06,-0.1,0.87,54.81,63.11,10.38
2026-07-27 12:36:47.315,-0.14,-0.06,1.0,71.78,126.04,-54.63
2026-07-27 12:36:47.374,-0.14,-0.06,1.0,71.78,126.04,-54.63
2026-07-27 12:36:47.375,-0.07,-0.18,1.01,21.24,48.89,-90.58
2026-07-27 12:36:47.434,-0.07,-0.18,1.01,21.24,48.89,-90.58
2026-07-27 12:36:47.434,0.02,-0.24,0.97,-18.86,-41.93,-79.96
2026-07-27 12:36:47.435,0.02,-0.24,0.97,-22.83,-80.44,-55.79
2026-07-27 12:36:47.495,0.1,-0.2,0.98,-22.83,-80.44,-55.79
2026-07-27 12:36:47.496,0.14,-0.16,1.06,-19.23,-92.47,-32.1
2026-07-27 12:36:47.496,0.14,-0.16,1.06,-19.23,-92.47,-32.1
2026-07-27 12:36:47.554,0.15,-0.14,1.07,-9.58,-74.16,-13.18
2026-07-27 12:36:47.554,0.15,-0.14,1.07,-9.58,-74.16,-13.18
2026-07-27 12:36:47.616,0.1,-0.15,0.98,-9.89,-26.86,-1.22
2026-07-27 12:36:47.616,0.05,-0.19,0.91,-44.49,-0.67,8.85
2026-07-27 12:36:47.617,0.05,-0.19,0.91,-44.49,-0.67,8.85
2026-07-27 12:36:47.675,0.04,-0.28,0.88,-71.96,0.18,7.81
2026-07-27 12:36:47.675,0.04,-0.28,0.88,-71.96,0.18,7.81
2026-07-27 12:36:47.676,0.05,-0.33,0.86,-61.16,9.46,-10.44
2026-07-27 12:36:47.794,0.05,-0.33,0.86,-61.16,9.46,-10.44
2026-07-27 12:36:47.794,0.07,-0.33,0.85,-37.35,20.69,-30.21
2026-07-27 12:36:47.795,0.13,-0.35,0.9,-22.83,10.19,-39.55
2026-07-27 12:36:47.795,0.13,-0.35,0.9,-22.83,10.19,-39.55
2026-07-27 12:36:47.797,0.21,-0.4,1.09,-28.87,-7.14,-43.82
2026-07-27 12:36:47.854,0.21,-0.4,1.09,-28.87,-7.14,-43.82
2026-07-27 12:36:47.854,0.23,-0.44,1.23,-24.66,10.25,-30.09
2026-07-27 12:36:47.855,0.23,-0.44,1.23,-24.66,10.25,-30.09
2026-07-27 12:36:47.915,0.14,-0.41,1.18,22.83,55.18,13.92
2026-07-27 12:36:47.915,0.09,-0.29,1.11,92.35,64.39,57.37
2026-07-27 12:36:47.974,0.09,-0.29,1.11,92.35,64.39,57.37
2026-07-27 12:36:47.974,0.13,-0.15,1.09,116.58,34.55,69.64
2026-07-27 12:36:47.974,0.13,-0.15,1.09,116.58,34.55,69.64
2026-07-27 12:36:48.037,0.11,-0.1,1.04,68.79,30.7,60.0
2026-07-27 12:36:48.037,-0.03,-0.14,0.97,34.06,80.44,6.65
2026-07-27 12:36:48.094,-0.03,-0.14,0.97,34.06,80.44,6.65
2026-07-27 12:36:48.094,-0.28,-0.17,1.04,26.0,188.66,-77.15
2026-07-27 12:36:48.094,-0.28,-0.17,1.04,26.0,188.66,-77.15
2026-07-27 12:36:48.154,-0.52,-0.18,1.21,-15.26,263.92,-124.94
2026-07-27 12:36:48.154,-0.52,-0.18,1.21,-15.26,263.92,-124.94
2026-07-27 12:36:48.155,-0.63,-0.13,1.31,-52.31,181.46,-108.15
2026-07-27 12:36:48.279,-0.54,-0.09,1.21,-32.65,-5.0,-28.14
2026-07-27 12:36:48.279,-0.54,-0.09,1.21,-32.65,-5.0,-28.14
2026-07-27 12:36:48.279,-0.37,-0.12,0.99,-6.53,-140.75,43.7
2026-07-27 12:36:48.281,-0.37,-0.12,0.99,-6.53,-140.75,43.7
2026-07-27 12:36:48.281,-0.25,-0.18,0.82,-6.96,-149.9,45.41
2026-07-27 12:36:48.353,-0.2,-0.24,0.73,-9.4,-72.57,2.01
2026-07-27 12:36:48.354,-0.2,-0.24,0.73,-9.4,-72.57,2.01
2026-07-27 12:36:48.401,-0.22,-0.2,0.72,-34.42,10.68,-50.78
2026-07-27 12:36:48.403,-0.22,-0.2,0.72,-34.42,10.68,-50.78
2026-07-27 12:36:48.404,-0.28,-0.14,0.76,-59.08,37.54,-49.38
2026-07-27 12:36:48.456,-0.28,-0.14,0.76,-59.08,37.54,-49.38
2026-07-27 12:36:48.457,-0.36,-0.18,0.69,-22.71,12.45,60.79
2026-07-27 12:36:48.514,-0.4,-0.2,0.6,23.32,45.78,178.34
2026-07-27 12:36:48.514,-0.4,-0.2,0.6,23.32,45.78,178.34
2026-07-27 12:36:48.515,-0.38,-0.15,0.68,13.0,124.51,211.18
2026-07-27 12:36:48.574,-0.38,-0.15,0.68,13.0,124.51,211.18
2026-07-27 12:36:48.575,-0.3,-0.12,0.77,-26.43,71.29,183.9
2026-07-27 12:36:48.575,-0.24,-0.09,0.8,-45.1,-76.35,115.66
2026-07-27 12:36:48.637,-0.24,-0.09,0.8,-45.1,-76.35,115.66
2026-07-27 12:36:48.638,-0.24,-0.09,0.84,-47.0,-141.24,49.93
2026-07-27 12:36:48.638,-0.24,-0.09,0.84,-47.0,-141.24,49.93
2026-07-27 12:36:48.695,-0.3,-0.15,0.9,-51.88,-99.98,16.17
2026-07-27 12:36:48.696,-0.3,-0.15,0.9,-51.88,-99.98,16.17
2026-07-27 12:36:48.754,-0.4,-0.19,0.93,-44.86,-33.87,-1.89
2026-07-27 12:36:48.754,-0.42,-0.22,0.92,-25.39,-6.71,-5.8
2026-07-27 12:36:48.755,-0.42,-0.22,0.92,-25.39,-6.71,-5.8
2026-07-27 12:36:48.816,-0.38,-0.23,0.91,-11.41,-17.21,-12.51
2026-07-27 12:36:48.816,-0.38,-0.23,0.91,-11.41,-17.21,-12.51
2026-07-27 12:36:48.874,-0.29,-0.26,0.9,-18.68,-35.46,-28.99
2026-07-27 12:36:48.874,-0.19,-0.31,0.9,-40.22,-43.33,-28.93
2026-07-27 12:36:48.874,-0.19,-0.31,0.9,-40.22,-43.33,-28.93
2026-07-27 12:36:48.935,-0.14,-0.36,0.9,-53.59,-36.19,-17.82
2026-07-27 12:36:48.935,-0.14,-0.36,0.9,-53.59,-36.19,-17.82
2026-07-27 12:36:49.057,-0.13,-0.4,0.92,-49.38,-18.55,-20.26
2026-07-27 12:36:49.062,-0.15,-0.4,0.92,-22.71,-2.26,-24.35
2026-07-27 12:36:49.062,-0.15,-0.4,0.92,-22.71,-2.26,-24.35
2026-07-27 12:36:49.062,-0.16,-0.36,0.92,6.77,5.8,-20.2
2026-07-27 12:36:49.181,-0.16,-0.36,0.92,6.77,5.8,-20.2
2026-07-27 12:36:49.183,-0.15,-0.34,0.92,14.1,5.68,-18.98
2026-07-27 12:36:49.184,-0.15,-0.34,0.92,14.1,5.68,-18.98
2026-07-27 12:36:49.184,-0.13,-0.34,0.91,9.16,-2.14,-20.02
2026-07-27 12:36:49.184,-0.11,-0.35,0.9,1.89,-9.95,-17.82
2026-07-27 12:36:49.184,-0.11,-0.35,0.9,1.89,-9.95,-17.82
2026-07-27 12:36:49.184,-0.1,-0.36,0.89,-4.09,-3.11,-21.79
2026-07-27 12:36:49.239,-0.1,-0.36,0.89,-4.09,-3.11,-21.79
2026-07-27 12:36:49.239,-0.13,-0.36,0.9,-4.94,10.93,-26.55
2026-07-27 12:36:49.239,-0.13,-0.36,0.9,-4.94,10.93,-26.55
2026-07-27 12:36:49.301,-0.21,-0.37,0.94,-6.16,16.6,-20.63
2026-07-27 12:36:49.302,-0.28,-0.37,0.97,-5.68,23.5,-17.52
2026-07-27 12:36:49.356,-0.28,-0.37,0.97,-5.68,23.5,-17.52
2026-07-27 12:36:49.357,-0.31,-0.39,0.92,-7.87,35.03,-25.15
2026-07-27 12:36:49.358,-0.31,-0.39,0.92,-7.87,35.03,-25.15
2026-07-27 12:36:49.426,-0.29,-0.44,0.84,-14.59,41.69,-35.64
2026-07-27 12:36:49.430,-0.24,-0.46,0.78,-11.96,35.46,-37.72
2026-07-27 12:36:49.485,-0.24,-0.46,0.78,-11.96,35.46,-37.72
2026-07-27 12:36:49.485,-0.17,-0.43,0.78,-3.72,19.71,-31.74
2026-07-27 12:36:49.486,-0.17,-0.43,0.78,-3.72,19.71,-31.74
2026-07-27 12:36:49.533,-0.13,-0.4,0.85,-1.4,5.43,-26.43
2026-07-27 12:36:49.534,-0.13,-0.4,0.85,-1.4,5.43,-26.43
2026-07-27 12:36:49.535,-0.09,-0.38,0.92,2.01,-3.72,-21.12
2026-07-27 12:36:49.597,-0.07,-0.38,0.95,10.01,-7.26,-12.33
2026-07-27 12:36:49.598,-0.07,-0.38,0.95,10.01,-7.26,-12.33
2026-07-27 12:36:49.661,-0.09,-0.39,0.93,11.05,-3.36,-3.11
2026-07-27 12:36:49.663,-0.09,-0.39,0.93,11.05,-3.36,-3.11
2026-07-27 12:36:49.663,-0.14,-0.4,0.9,3.85,3.85,1.83
2026-07-27 12:36:49.714,-0.14,-0.4,0.9,3.85,3.85,1.83
2026-07-27 12:36:49.718,-0.18,-0.42,0.86,-2.99,8.67,1.53
2026-07-27 12:36:49.719,-0.18,-0.42,0.86,-3.6,9.64,-1.65
2026-07-27 12:36:49.775,-0.2,-0.44,0.84,-3.6,9.64,-1.65
2026-07-27 12:36:49.795,-0.19,-0.43,0.86,1.65,3.91,-2.26
2026-07-27 12:36:49.795,-0.19,-0.43,0.86,1.65,3.91,-2.26
2026-07-27 12:36:49.839,-0.17,-0.41,0.89,5.13,-2.56,0.92
2026-07-27 12:36:49.839,-0.17,-0.41,0.89,5.13,-2.56,0.92
2026-07-27 12:36:49.895,-0.17,-0.4,0.9,2.38,-1.04,2.93
2026-07-27 12:36:49.895,-0.17,-0.4,0.9,2.38,-1.04,2.93
2026-07-27 12:36:49.895,-0.18,-0.4,0.89,-2.26,4.82,1.04
2026-07-27 12:36:50.015,-0.21,-0.42,0.87,-4.82,8.48,-2.14
2026-07-27 12:36:50.015,-0.21,-0.42,0.87,-4.82,8.48,-2.14
2026-07-27 12:36:50.015,-0.22,-0.43,0.85,-5.25,9.34,-4.64
2026-07-27 12:36:50.015,-0.22,-0.43,0.85,-5.25,9.34,-4.64
2026-07-27 12:36:50.016,-0.22,-0.43,0.84,-4.33,9.83,-5.19
2026-07-27 12:36:50.078,-0.22,-0.43,0.84,-4.33,9.83,-5.19
2026-07-27 12:36:50.078,-0.22,-0.44,0.84,-3.97,12.21,-3.91
2026-07-27 12:36:50.079,-0.24,-0.45,0.83,-4.09,16.85,-2.69
2026-07-27 12:36:50.137,-0.24,-0.45,0.83,-4.09,16.85,-2.69
2026-07-27 12:36:50.137,-0.27,-0.45,0.82,-3.11,22.83,-3.66
2026-07-27 12:36:50.137,-0.27,-0.45,0.82,-3.11,22.83,-3.66
2026-07-27 12:36:50.204,-0.29,-0.45,0.84,0.18,25.57,-6.16
2026-07-27 12:36:50.207,-0.29,-0.45,0.84,0.18,25.57,-6.16
2026-07-27 12:36:50.259,-0.29,-0.44,0.86,5.8,19.47,-6.16
2026-07-27 12:36:50.273,-0.28,-0.43,0.86,9.22,11.41,-4.46
2026-07-27 12:36:50.274,-0.28,-0.43,0.86,9.22,11.41,-4.46
2026-07-27 12:36:50.314,-0.32,-0.44,0.84,8.73,7.14,-1.59
2026-07-27 12:36:50.315,-0.32,-0.44,0.84,8.73,7.14,-1.59
2026-07-27 12:36:50.315,-0.42,-0.45,0.82,8.73,0.43,2.99
2026-07-27 12:36:50.375,-0.42,-0.45,0.82,8.73,0.43,2.99
2026-07-27 12:36:50.376,-0.5,-0.45,0.82,9.95,-9.95,2.81
2026-07-27 12:36:50.433,-0.45,-0.42,0.83,12.76,-33.51,-3.17
2026-07-27 12:36:50.434,-0.45,-0.42,0.83,12.76,-33.51,-3.17
2026-07-27 12:36:50.495,-0.26,-0.36,0.84,16.78,-70.13,-5.92
2026-07-27 12:36:50.498,-0.26,-0.36,0.84,16.78,-70.13,-5.92
2026-07-27 12:36:50.499,-0.01,-0.31,0.88,16.78,-99.24,1.28
2026-07-27 12:36:50.499,-0.01,-0.31,0.88,16.78,-99.24,1.28
2026-07-27 12:36:50.553,0.2,-0.31,0.91,11.9,-100.46,8.0
2026-07-27 12:36:50.554,0.26,-0.34,0.93,7.32,-66.83,3.23
2026-07-27 12:36:50.614,0.26,-0.34,0.93,7.32,-66.83,3.23
2026-07-27 12:36:50.615,0.21,-0.37,0.93,3.66,-23.13,-2.01
2026-07-27 12:36:50.615,0.21,-0.37,0.93,3.66,-23.13,-2.01
2026-07-27 12:36:50.674,0.12,-0.38,0.91,0.79,3.42,3.23
2026-07-27 12:36:50.674,0.12,-0.38,0.91,0.79,3.42,3.23
2026-07-27 12:36:50.674,0.02,-0.39,0.89,0.92,7.63,15.56
2026-07-27 12:36:50.733,-0.04,-0.39,0.89,2.75,0.85,24.23
2026-07-27 12:36:50.734,-0.04,-0.39,0.89,2.75,0.85,24.23
2026-07-27 12:36:50.795,-0.07,-0.38,0.93,4.82,-4.58,26.43
2026-07-27 12:36:50.795,-0.07,-0.38,0.93,4.82,-4.58,26.43
2026-07-27 12:36:50.796,-0.1,-0.37,0.96,5.86,-9.58,29.91
2026-07-27 12:36:50.853,-0.1,-0.37,0.96,5.86,-9.58,29.91
2026-07-27 12:36:50.854,-0.1,-0.36,0.96,5.07,-17.82,37.05
2026-07-27 12:36:50.915,-0.11,-0.35,0.92,3.97,-21.97,42.11
2026-07-27 12:36:50.915,-0.11,-0.35,0.92,3.97,-21.97,42.11
2026-07-27 12:36:50.916,-0.09,-0.34,0.86,3.3,-18.37,40.34
2026-07-27 12:36:50.976,-0.09,-0.34,0.86,3.3,-18.37,40.34
2026-07-27 12:36:50.976,-0.06,-0.35,0.81,6.23,-12.57,37.17
2026-07-27 12:36:51.034,-0.01,-0.37,0.83,19.96,-7.87,37.17
2026-07-27 12:36:51.035,-0.01,-0.37,0.83,19.96,-7.87,37.17
2026-07-27 12:36:51.035,0.06,-0.34,0.93,38.76,-6.9,34.18
2026-07-27 12:36:51.093,0.06,-0.34,0.93,38.76,-6.9,34.18
2026-07-27 12:36:51.093,0.07,-0.26,1.0,52.43,-0.06,33.69
2026-07-27 12:36:51.094,0.07,-0.26,1.0,52.43,-0.06,33.69
2026-07-27 12:36:51.153,-0.04,-0.22,0.98,71.41,19.35,47.67
2026-07-27 12:36:51.159,-0.12,-0.22,1.0,103.27,35.1,63.29
2026-07-27 12:36:51.159,-0.12,-0.22,1.0,103.27,35.1,63.29
2026-07-27 12:36:51.215,-0.07,-0.1,1.16,111.39,45.72,36.19
2026-07-27 12:36:51.216,-0.07,-0.1,1.16,111.39,45.72,36.19
2026-07-27 12:36:51.281,-0.07,-0.05,1.15,63.35,71.04,-41.5
2026-07-27 12:36:51.281,-0.23,-0.13,0.96,17.82,91.49,-97.35
2026-07-27 12:36:51.281,-0.23,-0.13,0.96,17.82,91.49,-97.35
2026-07-27 12:36:51.334,-0.32,-0.07,0.94,35.4,70.25,-86.91
2026-07-27 12:36:51.334,-0.32,-0.07,0.94,35.4,70.25,-86.91
2026-07-27 12:36:51.394,-0.23,0.12,1.07,86.12,22.09,-25.27
2026-07-27 12:36:51.394,-0.23,0.12,1.07,86.12,22.09,-25.27
2026-07-27 12:36:51.395,-0.07,0.29,1.2,105.16,-9.58,42.79
2026-07-27 12:36:51.456,0.02,0.3,1.2,73.49,-6.41,65.8
2026-07-27 12:36:51.456,0.02,0.3,1.2,73.49,-6.41,65.8
2026-07-27 12:36:51.524,0.04,0.18,1.09,35.16,6.53,38.76
2026-07-27 12:36:51.524,0.04,0.18,1.09,35.16,6.53,38.76
2026-07-27 12:36:51.525,0.1,0.15,1.02,25.39,-6.35,6.41
2026-07-27 12:36:51.576,0.1,0.15,1.02,42.24,-40.95,7.57
2026-07-27 12:36:51.577,0.21,0.26,0.98,42.24,-40.95,7.57
2026-07-27 12:36:51.577,0.17,0.41,0.95,52.31,-63.29,13.79
2026-07-27 12:36:51.634,0.17,0.41,0.95,52.31,-63.29,13.79
2026-07-27 12:36:51.634,-0.09,0.57,0.98,17.15,-46.51,-1.65
2026-07-27 12:36:51.635,-0.09,0.57,0.98,17.15,-46.51,-1.65
2026-07-27 12:36:51.695,-0.43,0.64,1.05,-5.74,11.05,-24.72
2026-07-27 12:36:51.696,-0.72,0.5,0.97,28.93,77.64,-31.07
2026-07-27 12:36:51.755,-0.72,0.5,0.97,28.93,77.64,-31.07
2026-07-27 12:36:51.755,-0.9,0.2,0.75,46.08,115.97,-16.48
2026-07-27 12:36:51.756,-0.9,0.2,0.75,46.08,115.97,-16.48
2026-07-27 12:36:51.815,-0.92,-0.02,0.55,18.49,106.08,-6.04
2026-07-27 12:36:51.815,-0.92,-0.02,0.55,18.49,106.08,-6.04
2026-07-27 12:36:51.934,-0.83,-0.04,0.43,5.43,68.48,-14.1
2026-07-27 12:36:51.934,-0.68,0.11,0.42,26.37,35.4,-36.87
2026-07-27 12:36:51.935,-0.68,0.11,0.42,26.37,35.4,-36.87
2026-07-27 12:36:51.935,-0.49,0.31,0.5,36.8,7.39,-63.17
2026-07-27 12:36:51.936,-0.49,0.31,0.5,36.8,7.39,-63.17
2026-07-27 12:36:51.936,-0.35,0.39,0.59,32.29,-5.07,-70.8
2026-07-27 12:36:51.993,-0.35,0.39,0.59,37.05,10.8,-54.5
2026-07-27 12:36:51.994,-0.36,0.36,0.63,37.05,10.8,-54.5
2026-07-27 12:36:52.054,-0.5,0.24,0.65,36.99,36.38,-35.16
2026-07-27 12:36:52.058,-0.5,0.24,0.65,36.99,36.38,-35.16
2026-07-27 12:36:52.058,-0.71,0.13,0.69,36.56,49.68,-22.09
2026-07-27 12:36:52.115,-0.71,0.13,0.69,36.56,49.68,-22.09
2026-07-27 12:36:52.115,-0.95,0.09,0.73,47.42,42.72,-16.48
2026-07-27 12:36:52.174,-1.18,0.16,0.8,54.14,2.93,-27.22
2026-07-27 12:36:52.175,-1.18,0.16,0.8,54.14,2.93,-27.22
2026-07-27 12:36:52.176,-1.21,0.37,0.89,49.38,-89.29,-47.85
2026-07-27 12:36:52.294,-1.21,0.37,0.89,49.38,-89.29,-47.85
2026-07-27 12:36:52.294,-0.88,0.65,0.95,36.56,-217.29,-56.4
2026-07-27 12:36:52.295,-0.88,0.65,0.95,36.56,-217.29,-56.4
2026-07-27 12:36:52.295,-0.27,0.86,0.93,13.43,-315.61,-47.0
2026-07-27 12:36:52.296,0.38,0.87,0.84,-29.97,-332.82,-17.64
2026-07-27 12:36:52.296,0.38,0.87,0.84,-29.97,-332.82,-17.64
2026-07-27 12:36:52.355,0.73,0.67,0.7,-87.04,-262.76,29.05
2026-07-27 12:36:52.355,0.73,0.67,0.7,-87.04,-262.76,29.05
2026-07-27 12:36:52.414,0.72,0.41,0.53,-123.72,-143.8,77.39
2026-07-27 12:36:52.415,0.57,0.22,0.35,-131.35,-36.8,117.31
2026-07-27 12:36:52.476,0.57,0.22,0.35,-131.35,-36.8,117.31
2026-07-27 12:36:52.478,0.53,0.11,0.18,-123.41,28.32,159.79
2026-07-27 12:36:52.480,0.53,0.11,0.18,-123.41,28.32,159.79
2026-07-27 12:36:52.538,0.56,0.06,0.04,-84.66,82.4,201.42
2026-07-27 12:36:52.539,0.52,0.1,-0.05,-20.69,161.8,222.35
2026-07-27 12:36:52.546,0.52,0.1,-0.05,-20.69,161.8,222.35
2026-07-27 12:36:52.605,0.37,0.29,-0.04,27.89,260.56,234.99
2026-07-27 12:36:52.605,0.37,0.29,-0.04,27.89,260.56,234.99
2026-07-27 12:36:52.654,0.12,0.68,-0.03,42.11,372.99,271.55
2026-07-27 12:36:52.654,-0.35,1.31,-0.26,29.36,509.16,341.67
2026-07-27 12:36:52.656,-0.35,1.31,-0.26,29.36,509.16,341.67
2026-07-27 12:36:52.716,-1.27,1.59,-0.74,2.56,661.13,410.1
2026-07-27 12:36:52.729,-1.27,1.59,-0.74,2.56,661.13,410.1
2026-07-27 12:36:52.774,-2.23,1.26,-0.89,-42.24,667.24,402.95
2026-07-27 12:36:52.775,-2.4,1.03,-0.56,-86.79,392.88,277.34
2026-07-27 12:36:52.776,-2.4,1.03,-0.56,-86.79,392.88,277.34
2026-07-27 12:36:52.840,-1.74,1.1,-0.62,-107.24,34.61,87.28
2026-07-27 12:36:52.840,-1.74,1.1,-0.62,-107.24,34.61,87.28
2026-07-27 12:36:52.894,-1.11,1.11,-0.76,-110.84,-130.55,-50.11
2026-07-27 12:36:52.896,-1.11,1.11,-0.76,-110.84,-130.55,-50.11
2026-07-27 12:36:52.897,-0.94,1.09,-0.45,-33.14,-115.54,-84.17
2026-07-27 12:36:52.956,-0.87,1.07,-0.1,80.02,-105.96,-71.59
2026-07-27 12:36:52.956,-0.87,1.07,-0.1,80.02,-105.96,-71.59
2026-07-27 12:36:53.015,-0.71,0.94,0.13,103.7,-146.06,-73.12
2026-07-27 12:36:53.015,-0.71,0.94,0.13,62.26,-175.84,-94.97
2026-07-27 12:36:53.016,-0.52,0.81,0.2,62.26,-175.84,-94.97
2026-07-27 12:36:53.074,-0.45,0.65,0.18,1.4,-163.02,-122.01
2026-07-27 12:36:53.075,-0.45,0.65,0.18,1.4,-163.02,-122.01
2026-07-27 12:36:53.075,-0.55,0.48,0.14,-11.9,-111.94,-142.09
2026-07-27 12:36:53.135,-0.55,0.48,0.14,-11.9,-111.94,-142.09
2026-07-27 12:36:53.135,-0.65,0.37,0.12,26.86,-66.1,-134.34
2026-07-27 12:36:53.193,-0.65,0.23,0.18,38.94,-56.76,-98.51
2026-07-27 12:36:53.194,-0.65,0.23,0.18,38.94,-56.76,-98.51
2026-07-27 12:36:53.194,-0.65,0.14,0.3,26.43,-59.94,-61.89
2026-07-27 12:36:53.314,-0.65,0.14,0.3,26.43,-59.94,-61.89
2026-07-27 12:36:53.315,-0.77,0.14,0.4,15.01,-43.58,-35.16
2026-07-27 12:36:53.315,-1.0,0.17,0.43,10.62,-0.24,-17.7
2026-07-27 12:36:53.315,-1.0,0.17,0.43,10.62,-0.24,-17.7
2026-07-27 12:36:53.316,-1.11,0.22,0.4,22.46,22.03,-10.19
2026-07-27 12:36:53.378,-1.11,0.22,0.4,22.46,22.03,-10.19
2026-07-27 12:36:53.378,-1.02,0.23,0.35,31.56,-27.28,-6.35
2026-07-27 12:36:53.378,-1.02,0.23,0.35,31.56,-27.28,-6.35
2026-07-27 12:36:53.434,-0.82,0.25,0.36,51.88,-105.47,-19.78
2026-07-27 12:36:53.435,-0.68,0.29,0.49,100.89,-130.43,-54.81
2026-07-27 12:36:53.498,-0.68,0.29,0.49,100.89,-130.43,-54.81
2026-07-27 12:36:53.499,-0.78,0.18,0.63,114.32,-77.03,-69.4
2026-07-27 12:36:53.499,-0.78,0.18,0.63,114.32,-77.03,-69.4
2026-07-27 12:36:53.565,-1.04,-0.05,0.71,64.39,-7.32,-46.14
2026-07-27 12:36:53.566,-1.04,-0.05,0.71,64.39,-7.32,-46.14
2026-07-27 12:36:53.566,-1.04,-0.05,0.71,64.39,-7.32,-46.14
2026-07-27 12:36:53.676,-1.04,-0.05,0.71,64.39,-7.32,-46.14
2026-07-27 12:36:53.676,-0.75,0.0,0.59,-98.69,-51.88,-9.89
2026-07-27 12:36:53.677,-0.75,0.0,0.59,-141.36,-100.28,15.99
2026-07-27 12:36:53.677,-0.39,0.21,0.33,-141.36,-100.28,15.99
2026-07-27 12:36:53.678,-0.24,0.32,0.16,-148.93,-78.0,55.73
2026-07-27 12:36:53.679,-0.24,0.32,0.16,-148.93,-78.0,55.73
2026-07-27 12:36:53.734,-0.35,0.35,0.27,-142.15,-3.11,78.49
2026-07-27 12:36:53.735,-0.35,0.35,0.27,-142.15,-3.11,78.49
2026-07-27 12:36:53.798,-0.62,0.37,0.57,-120.18,71.66,65.86
2026-07-27 12:36:53.798,-0.85,0.41,0.78,-93.32,115.84,21.3
2026-07-27 12:36:53.854,-0.85,0.41,0.78,-93.32,115.84,21.3
2026-07-27 12:36:53.876,-0.78,0.52,0.73,-46.75,89.11,-30.46
2026-07-27 12:36:53.876,-0.78,0.52,0.73,-46.75,89.11,-30.46
2026-07-27 12:36:53.914,-0.44,0.62,0.5,40.71,-14.34,-54.93
2026-07-27 12:36:53.915,-0.44,0.62,0.5,40.71,-14.34,-54.93
2026-07-27 12:36:53.915,-0.44,0.62,0.5,40.71,-14.34,-54.93
2026-07-27 12:36:54.219,-0.44,0.62,0.5,40.71,-14.34,-54.93
2026-07-27 12:36:54.219,-0.02,0.97,0.16,287.11,-170.78,4.33
2026-07-27 12:36:54.219,-0.24,1.23,0.56,348.69,-135.68,81.79
2026-07-27 12:36:54.220,-0.24,1.23,0.56,348.69,-135.68,81.79
2026-07-27 12:36:54.220,-0.72,1.26,1.21,273.8,-67.32,112.67
2026-07-27 12:36:54.221,-0.72,1.26,1.21,273.8,-67.32,112.67
2026-07-27 12:36:54.221,-1.15,1.07,1.56,165.41,-74.58,82.21
2026-07-27 12:36:54.221,-1.24,0.82,1.4,112.85,-131.16,43.27
2026-07-27 12:36:54.221,-1.24,0.82,1.4,112.85,-131.16,43.27
2026-07-27 12:36:54.222,-1.06,0.59,1.04,78.43,-125.85,25.88
2026-07-27 12:36:54.222,-1.06,0.59,1.04,78.43,-125.85,25.88
2026-07-27 12:36:54.222,-0.88,0.39,0.75,38.39,-58.96,26.55
2026-07-27 12:36:54.222,-0.88,0.39,0.75,38.39,-58.96,26.55
2026-07-27 12:36:54.222,-0.77,0.27,0.63,19.9,2.56,33.08
2026-07-27 12:36:54.273,-0.63,0.26,0.6,44.86,46.81,42.97
2026-07-27 12:36:54.274,-0.63,0.26,0.6,44.86,46.81,42.97
2026-07-27 12:36:54.334,-0.54,0.35,0.58,82.03,71.59,45.59
2026-07-27 12:36:54.335,-0.54,0.35,0.58,82.03,71.59,45.59
2026-07-27 12:36:54.393,-0.48,0.46,0.6,80.26,65.37,27.4
2026-07-27 12:36:54.394,-0.45,0.59,0.6,25.63,50.66,-3.6
2026-07-27 12:36:54.394,-0.45,0.59,0.6,25.63,50.66,-3.6
2026-07-27 12:36:54.515,-0.37,0.8,0.5,-64.7,31.31,4.03
2026-07-27 12:36:54.515,-0.37,0.8,0.5,-64.7,31.31,4.03
2026-07-27 12:36:54.515,-0.25,0.75,0.57,-207.34,26.06,80.08
2026-07-27 12:36:54.515,-0.25,0.75,0.57,-207.34,26.06,80.08
2026-07-27 12:36:54.516,-0.15,0.67,0.97,-315.06,51.03,127.56
2026-07-27 12:36:54.574,-0.12,1.04,1.5,-247.56,47.3,80.57
2026-07-27 12:36:54.575,-0.12,1.04,1.5,-247.56,47.3,80.57
2026-07-27 12:36:54.575,-0.05,1.34,1.79,-124.57,6.47,-0.06
2026-07-27 12:36:54.634,-0.05,1.34,1.79,-124.57,6.47,-0.06
2026-07-27 12:36:54.635,0.13,1.23,1.52,-100.65,-20.94,-43.33
2026-07-27 12:36:54.635,0.13,1.23,1.52,-138.31,14.4,-39.37
2026-07-27 12:36:54.695,0.21,1.01,0.93,-138.31,14.4,-39.37
2026-07-27 12:36:54.696,0.05,0.8,0.42,-169.37,130.92,-1.04
2026-07-27 12:36:54.754,0.05,0.8,0.42,-169.37,130.92,-1.04
2026-07-27 12:36:54.754,-0.18,0.55,0.19,-170.9,249.21,52.61
2026-07-27 12:36:54.755,-0.18,0.55,0.19,-170.9,249.21,52.61
2026-07-27 12:36:54.815,-0.3,0.42,0.14,-138.24,276.0,79.65
2026-07-27 12:36:54.815,-0.26,0.36,0.05,-92.41,200.5,96.5
2026-07-27 12:36:54.875,-0.26,0.36,0.05,-92.41,200.5,96.5
2026-07-27 12:36:54.875,-0.17,0.21,-0.08,-74.52,73.55,143.07
2026-07-27 12:36:54.876,-0.17,0.21,-0.08,-74.52,73.55,143.07
2026-07-27 12:36:54.937,-0.12,0.07,-0.11,-86.67,-39.79,177.31
2026-07-27 12:36:54.937,-0.07,0.06,0.05,-73.85,-97.47,136.78
2026-07-27 12:36:54.994,-0.07,0.06,0.05,-73.85,-97.47,136.78
2026-07-27 12:36:54.995,-0.1,0.18,0.4,-20.75,-70.8,29.97
2026-07-27 12:36:54.995,-0.1,0.18,0.4,31.74,11.54,-92.9
2026-07-27 12:36:55.055,-0.33,0.47,0.98,31.74,11.54,-92.9
2026-07-27 12:36:55.055,-0.62,0.73,1.6,76.35,11.6,-176.15
2026-07-27 12:36:55.056,-0.62,0.73,1.6,76.35,11.6,-176.15
2026-07-27 12:36:55.179,-0.7,0.6,1.95,70.86,-83.92,-229.49
2026-07-27 12:36:55.179,-0.7,0.6,1.95,70.86,-83.92,-229.49
2026-07-27 12:36:55.179,-0.61,0.23,1.84,15.14,-145.14,-272.52
2026-07-27 12:36:55.179,-0.49,-0.03,1.36,-3.54,-118.16,-247.25
2026-07-27 12:36:55.236,-0.49,-0.03,1.36,-3.54,-118.16,-247.25
2026-07-27 12:36:55.236,-0.45,-0.05,0.8,46.2,-35.16,-139.04
2026-07-27 12:36:55.236,-0.45,-0.05,0.8,46.2,-35.16,-139.04
2026-07-27 12:36:55.302,-0.47,0.11,0.44,126.53,30.88,-31.56
2026-07-27 12:36:55.354,-0.48,0.16,0.3,161.8,46.87,-2.01
2026-07-27 12:36:55.354,-0.48,0.16,0.3,161.8,46.87,-2.01
2026-07-27 12:36:55.355,-0.46,0.1,0.37,160.52,33.75,-39.67
2026-07-27 12:36:55.371,-0.46,0.1,0.37,160.52,33.75,-39.67
2026-07-27 12:36:55.414,-0.46,0.05,0.6,169.98,16.66,-85.39
2026-07-27 12:36:55.415,-0.46,0.05,0.6,169.98,16.66,-85.39
2026-07-27 12:36:55.415,-0.48,0.01,0.75,161.38,1.46,-111.39
2026-07-27 12:36:55.475,-0.49,0.06,0.85,138.24,-25.45,-118.41
2026-07-27 12:36:55.476,-0.49,0.06,0.85,138.24,-25.45,-118.41
2026-07-27 12:36:55.476,-0.44,0.16,1.01,116.09,-80.02,-99.85
2026-07-27 12:36:55.536,-0.44,0.16,1.01,116.09,-80.02,-99.85
2026-07-27 12:36:55.537,-0.34,0.3,1.19,88.5,-148.38,-57.43
2026-07-27 12:36:55.657,-0.33,0.51,1.34,80.44,-180.97,-7.02
2026-07-27 12:36:55.658,-0.33,0.51,1.34,80.44,-180.97,-7.02
2026-07-27 12:36:55.658,-0.34,0.74,1.35,97.9,-157.35,28.5
2026-07-27 12:36:55.658,-0.34,0.74,1.35,97.9,-157.35,28.5
2026-07-27 12:36:55.658,-0.36,0.89,1.09,105.83,-89.11,40.53
2026-07-27 12:36:55.658,-0.36,0.89,1.09,105.83,-89.11,40.53
2026-07-27 12:36:55.717,-0.47,0.99,0.79,86.61,3.91,28.32
2026-07-27 12:36:55.717,-0.57,1.0,0.65,48.4,59.14,-1.89
2026-07-27 12:36:55.774,-0.57,1.0,0.65,48.4,59.14,-1.89
2026-07-27 12:36:55.774,-0.56,0.88,0.59,8.18,48.22,-15.56
2026-07-27 12:36:55.775,-0.56,0.88,0.59,8.18,48.22,-15.56
2026-07-27 12:36:55.835,-0.45,0.8,0.58,10.68,11.66,10.62
2026-07-27 12:36:55.836,-0.28,0.85,0.54,53.16,-9.64,63.29
2026-07-27 12:36:55.894,-0.28,0.85,0.54,53.16,-9.64,63.29
2026-07-27 12:36:55.957,-0.09,0.84,0.47,83.25,-7.51,112.12
2026-07-27 12:36:55.957,-0.09,0.84,0.47,83.25,-7.51,112.12
2026-07-27 12:36:55.958,-0.0,0.85,0.38,93.14,12.02,94.97
2026-07-27 12:36:55.958,-0.0,0.85,0.38,93.14,12.02,94.97
2026-07-27 12:36:55.960,0.01,0.89,0.36,53.41,27.1,39.61
2026-07-27 12:36:56.014,0.04,0.84,0.43,-52.8,37.23,60.97
2026-07-27 12:36:56.015,0.04,0.84,0.43,-52.8,37.23,60.97
2026-07-27 12:36:56.080,0.06,0.54,0.57,-181.64,53.71,143.74
2026-07-27 12:36:56.080,0.06,0.54,0.57,-181.64,53.71,143.74
2026-07-27 12:36:56.080,0.09,0.25,0.74,-246.22,57.68,157.9
2026-07-27 12:36:56.134,0.16,0.34,1.01,-183.41,69.09,53.22
2026-07-27 12:36:56.135,0.16,0.34,1.01,-183.41,69.09,53.22
2026-07-27 12:36:56.196,0.21,0.5,1.3,-96.01,118.04,-53.1
2026-07-27 12:36:56.197,0.21,0.5,1.3,-96.01,118.04,-53.1
2026-07-27 12:36:56.197,0.12,0.52,1.29,-62.07,181.46,-72.94
2026-07-27 12:36:56.254,0.12,0.52,1.29,-62.07,181.46,-72.94
2026-07-27 12:36:56.255,-0.04,0.43,0.91,-18.43,207.64,-68.48
2026-07-27 12:36:56.322,-0.11,0.22,0.35,102.42,192.14,-84.84
2026-07-27 12:36:56.324,-0.11,0.22,0.35,102.42,192.14,-84.84
2026-07-27 12:36:56.325,-0.07,0.01,-0.06,307.01,183.41,-97.72
2026-07-27 12:36:56.375,-0.07,0.01,-0.06,307.01,183.41,-97.72
2026-07-27 12:36:56.376,-0.01,-0.06,-0.16,487.37,184.94,-108.22
2026-07-27 12:36:56.386,0.01,-0.04,-0.11,553.83,165.34,-133.0
2026-07-27 12:36:56.554,0.01,-0.04,-0.11,553.83,165.34,-133.0
2026-07-27 12:36:56.555,-0.43,0.24,-0.04,525.88,123.72,-161.93
2026-07-27 12:36:56.556,-0.43,0.24,-0.04,525.88,123.72,-161.93
2026-07-27 12:36:56.557,-0.9,0.61,-0.11,342.65,95.83,-152.65
2026-07-27 12:36:56.558,-0.88,0.63,-0.15,10.56,79.1,-95.76
2026-07-27 12:36:56.559,-0.88,0.63,-0.15,10.56,79.1,-95.76
2026-07-27 12:36:56.559,-0.84,0.46,-0.13,-261.17,39.37,-42.54
2026-07-27 12:36:56.560,-0.84,0.46,-0.13,-261.17,39.37,-42.54
2026-07-27 12:36:56.616,-0.86,0.43,-0.27,-357.06,-16.36,24.05
2026-07-27 12:36:56.620,-0.98,0.67,-0.44,-331.85,-74.52,126.53
2026-07-27 12:36:56.863,-0.98,0.67,-0.44,-331.85,-74.52,126.53
2026-07-27 12:36:56.991,-1.14,1.12,-0.44,-254.27,-127.75,226.93
2026-07-27 12:36:56.992,-1.14,1.12,-0.44,-254.27,-127.75,226.93
2026-07-27 12:36:56.992,-1.15,1.44,-0.23,-143.92,-169.86,326.54
2026-07-27 12:36:56.992,-1.15,1.44,-0.23,-65.37,-129.82,488.65
2026-07-27 12:36:56.992,-0.36,1.62,-0.02,-65.37,-129.82,488.65
2026-07-27 12:36:56.992,0.45,1.64,0.02,-33.87,-29.11,454.71
2026-07-27 12:36:56.992,0.45,1.64,0.02,-33.87,-29.11,454.71
2026-07-27 12:36:56.992,0.38,1.24,-0.01,3.72,5.74,89.72
2026-07-27 12:36:57.048,0.38,1.24,-0.01,3.72,5.74,89.72
2026-07-27 12:36:57.049,0.12,0.79,0.1,4.15,-27.65,-185.12
2026-07-27 12:36:57.049,0.14,0.48,0.29,-51.76,-77.27,-194.52
2026-07-27 12:36:57.049,0.14,0.48,0.29,-51.76,-77.27,-194.52
2026-07-27 12:36:57.049,0.22,0.23,0.46,-169.68,-100.65,-104.8
2026-07-27 12:36:57.050,0.22,0.23,0.46,-304.32,-118.65,-55.42
2026-07-27 12:36:57.050,0.15,-0.05,0.54,-304.32,-118.65,-55.42
2026-07-27 12:36:57.050,0.21,-0.05,0.55,-292.18,-153.81,-48.22
2026-07-27 12:36:57.051,0.21,-0.05,0.55,-292.18,-153.81,-48.22
2026-07-27 12:36:57.096,0.32,0.38,0.72,-120.24,-119.93,-29.66
2026-07-27 12:36:57.096,0.32,0.38,0.72,-120.24,-119.93,-29.66
2026-07-27 12:36:57.214,0.25,0.77,0.89,26.79,-33.14,-1.4
2026-07-27 12:36:57.215,0.15,0.87,0.84,72.33,3.11,6.53
2026-07-27 12:36:57.216,0.15,0.87,0.84,72.33,3.11,6.53
2026-07-27 12:36:57.216,0.08,0.9,0.73,79.53,-22.64,-14.04
2026-07-27 12:36:57.217,0.08,0.9,0.73,79.53,-22.64,-14.04
2026-07-27 12:36:57.217,0.19,0.95,0.74,60.61,-98.45,-23.56
2026-07-27 12:36:57.338,0.37,0.87,0.81,15.32,-171.81,-17.52
2026-07-27 12:36:57.338,0.37,0.87,0.81,15.32,-171.81,-17.52
2026-07-27 12:36:57.339,0.36,0.65,0.76,-11.17,-153.26,-21.67
2026-07-27 12:36:57.339,0.36,0.65,0.76,-11.17,-153.26,-21.67
2026-07-27 12:36:57.339,0.16,0.49,0.58,3.36,-60.79,-24.66
2026-07-27 12:36:57.456,0.16,0.49,0.58,3.36,-60.79,-24.66
2026-07-27 12:36:57.457,-0.02,0.5,0.51,30.76,4.82,-11.17
2026-07-27 12:36:57.457,-0.02,0.67,0.66,44.31,-0.79,15.38
2026-07-27 12:36:57.457,-0.02,0.67,0.66,44.31,-0.79,15.38
2026-07-27 12:36:57.457,0.13,0.85,0.84,51.76,-29.6,35.52
2026-07-27 12:36:57.526,0.13,0.85,0.84,51.76,-29.6,35.52
2026-07-27 12:36:57.528,0.21,0.87,0.8,60.12,-12.21,35.34
2026-07-27 12:36:57.529,0.21,0.87,0.8,60.12,-12.21,35.34
2026-07-27 12:36:57.574,0.18,0.8,0.6,68.6,46.69,25.45
2026-07-27 12:36:57.574,0.12,0.72,0.45,82.58,88.81,19.9
2026-07-27 12:36:57.578,0.12,0.72,0.45,82.58,88.81,19.9
2026-07-27 12:36:57.635,0.11,0.65,0.42,99.3,93.93,24.05
2026-07-27 12:36:57.636,0.11,0.65,0.42,99.3,93.93,24.05
2026-07-27 12:36:57.694,0.14,0.61,0.45,115.11,86.61,37.78
2026-07-27 12:36:57.695,0.17,0.69,0.48,138.0,88.38,55.24
2026-07-27 12:36:57.695,0.17,0.69,0.48,138.0,88.38,55.24
2026-07-27 12:36:57.757,0.2,0.87,0.46,170.53,105.83,63.17
2026-07-27 12:36:57.758,0.2,0.87,0.46,170.53,105.83,63.17
2026-07-27 12:36:57.815,0.25,1.01,0.35,200.44,134.58,49.56
2026-07-27 12:36:57.815,0.27,1.03,0.16,225.89,162.9,1.16
2026-07-27 12:36:57.887,0.27,1.03,0.16,225.89,162.9,1.16
2026-07-27 12:36:57.887,0.16,0.98,-0.09,249.33,183.84,-85.82
2026-07-27 12:36:57.888,0.16,0.98,-0.09,249.33,183.84,-85.82
2026-07-27 12:36:57.935,-0.02,0.88,-0.21,217.22,195.19,-141.85
2026-07-27 12:36:57.936,-0.02,0.88,-0.21,217.22,195.19,-141.85
2026-07-27 12:36:57.936,-0.07,0.81,-0.19,112.92,184.45,-101.26
2026-07-27 12:36:57.998,0.03,0.91,-0.2,33.63,146.12,-19.96
2026-07-27 12:36:57.998,0.03,0.91,-0.2,33.63,146.12,-19.96
2026-07-27 12:36:58.122,0.19,1.06,-0.31,40.22,108.83,20.63
2026-07-27 12:36:58.122,0.19,1.06,-0.31,40.22,108.83,20.63
2026-07-27 12:36:58.122,0.28,1.1,-0.46,85.94,99.06,11.35
2026-07-27 12:36:58.316,0.32,1.01,-0.57,105.47,107.67,-13.24
2026-07-27 12:36:58.317,0.32,1.01,-0.57,105.47,107.67,-13.24
2026-07-27 12:36:58.317,0.35,0.84,-0.63,92.53,114.93,-32.1
2026-07-27 12:36:58.317,0.35,0.84,-0.63,92.53,114.93,-32.1
2026-07-27 12:36:58.317,0.38,0.65,-0.68,77.64,112.61,-42.72
2026-07-27 12:36:58.318,0.41,0.53,-0.72,80.93,102.11,-44.49
2026-07-27 12:36:58.320,0.41,0.53,-0.72,80.93,102.11,-44.49
2026-07-27 12:36:58.322,0.42,0.5,-0.77,92.22,85.57,-36.38
2026-07-27 12:36:58.322,0.42,0.5,-0.77,92.22,85.57,-36.38
2026-07-27 12:36:58.323,0.42,0.5,-0.79,89.23,66.71,-17.33
2026-07-27 12:36:58.358,0.42,0.5,-0.79,89.23,66.71,-17.33
2026-07-27 12:36:58.359,0.43,0.52,-0.77,72.57,50.05,1.46
2026-07-27 12:36:58.359,0.49,0.52,-0.76,50.35,37.29,14.28
2026-07-27 12:36:58.416,0.49,0.52,-0.76,50.35,37.29,14.28
2026-07-27 12:36:58.417,0.64,0.5,-0.79,27.1,29.42,28.08
2026-07-27 12:36:58.417,0.64,0.5,-0.79,27.1,29.42,28.08
2026-07-27 12:36:58.476,0.88,0.5,-0.89,19.35,24.54,43.33
2026-07-27 12:36:58.476,1.02,0.57,-0.97,28.08,21.18,63.78
2026-07-27 12:36:58.655,1.02,0.57,-0.97,28.08,21.18,63.78
2026-07-27 12:36:58.664,0.86,0.68,-0.91,33.75,27.28,89.29
2026-07-27 12:36:58.675,0.86,0.68,-0.91,33.75,27.28,89.29
2026-07-27 12:36:58.675,0.54,0.75,-0.86,35.64,42.54,88.93
2026-07-27 12:36:58.675,0.54,0.75,-0.86,35.64,42.54,88.93
2026-07-27 12:36:58.676,0.38,0.67,-0.88,41.14,42.05,39.73
2026-07-27 12:36:58.676,0.46,0.46,-0.87,20.2,1.28,-8.67
2026-07-27 12:36:58.676,0.46,0.46,-0.87,20.2,1.28,-8.67
2026-07-27 12:36:58.842,0.63,0.28,-0.7,-56.76,-68.12,14.1
2026-07-27 12:36:58.842,0.63,0.28,-0.7,-56.76,-68.12,14.1
2026-07-27 12:36:58.843,0.71,0.27,-0.46,-139.4,-125.18,80.2
2026-07-27 12:36:58.843,0.71,0.27,-0.46,-172.55,-145.94,114.2
2026-07-27 12:36:58.898,0.65,0.42,-0.32,-172.55,-145.94,114.2
2026-07-27 12:36:58.898,0.54,0.55,-0.31,-187.87,-135.5,115.54
2026-07-27 12:36:58.907,0.54,0.55,-0.31,-187.87,-135.5,115.54
2026-07-27 12:36:58.907,0.47,0.63,-0.37,-211.43,-118.47,115.23
2026-07-27 12:36:58.910,0.47,0.63,-0.37,-211.43,-118.47,115.23
2026-07-27 12:36:58.912,0.41,0.68,-0.51,-235.47,-141.85,128.97
2026-07-27 12:36:58.912,0.44,0.6,-0.67,-254.7,-199.1,165.22
2026-07-27 12:36:58.971,0.44,0.6,-0.67,-254.7,-199.1,165.22
2026-07-27 12:36:58.972,0.53,0.51,-0.66,-234.86,-190.25,161.13
2026-07-27 12:36:59.028,0.57,0.54,-0.53,-165.41,-102.91,82.4
2026-07-27 12:36:59.028,0.57,0.54,-0.53,-165.41,-102.91,82.4
2026-07-27 12:36:59.136,0.6,0.62,-0.44,-94.67,-24.54,12.39
2026-07-27 12:36:59.136,0.6,0.62,-0.44,-94.67,-24.54,12.39
2026-07-27 12:36:59.137,0.63,0.72,-0.52,-49.32,13.67,-7.02
2026-07-27 12:36:59.137,0.63,0.72,-0.52,-20.94,21.36,0.85
2026-07-27 12:36:59.137,0.6,0.87,-0.69,-20.94,21.36,0.85
2026-07-27 12:36:59.138,0.47,1.08,-0.79,-7.08,19.47,11.11
2026-07-27 12:36:59.314,0.47,1.08,-0.79,-7.08,19.47,11.11
2026-07-27 12:36:59.333,0.38,1.15,-0.85,-31.13,4.21,19.41
2026-07-27 12:36:59.333,0.38,1.15,-0.85,-31.13,4.21,19.41
2026-07-27 12:36:59.333,0.5,0.98,-0.83,-105.22,-45.47,39.49
2026-07-27 12:36:59.333,0.78,0.74,-0.66,-186.4,-113.77,50.05
2026-07-27 12:36:59.333,0.78,0.74,-0.66,-186.4,-113.77,50.05
2026-07-27 12:36:59.334,0.99,0.59,-0.41,-237.85,-169.13,30.82
2026-07-27 12:36:59.334,0.99,0.59,-0.41,-237.85,-169.13,30.82
2026-07-27 12:36:59.439,1.0,0.55,-0.25,-264.16,-191.16,2.26
2026-07-27 12:36:59.440,1.0,0.55,-0.25,-275.63,-176.94,-17.76
2026-07-27 12:36:59.440,0.84,0.56,-0.24,-275.63,-176.94,-17.76
2026-07-27 12:36:59.440,0.68,0.52,-0.29,-265.69,-161.87,-35.89
2026-07-27 12:36:59.494,0.68,0.52,-0.29,-265.69,-161.87,-35.89
2026-07-27 12:36:59.554,0.61,0.52,-0.32,-213.56,-174.19,-63.54
2026-07-27 12:36:59.558,0.61,0.52,-0.32,-213.56,-174.19,-63.54
2026-07-27 12:36:59.560,0.63,0.58,-0.28,-148.93,-167.24,-85.27
2026-07-27 12:36:59.616,0.66,0.52,-0.16,-118.53,-98.88,-72.2
2026-07-27 12:36:59.616,0.66,0.52,-0.16,-118.53,-98.88,-72.2
2026-07-27 12:36:59.617,0.64,0.44,-0.0,-106.51,-21.24,-73.0
2026-07-27 12:36:59.617,0.64,0.44,-0.0,-106.51,-21.24,-73.0
2026-07-27 12:36:59.683,0.68,0.56,0.0,-66.41,-22.89,-121.58
2026-07-27 12:36:59.683,0.82,0.68,-0.14,-5.25,-88.81,-123.35
2026-07-27 12:36:59.683,0.82,0.68,-0.14,-5.25,-88.81,-123.35
2026-07-27 12:36:59.741,0.95,0.66,-0.19,40.71,-131.29,-64.45
2026-07-27 12:36:59.743,0.95,0.66,-0.19,40.71,-131.29,-64.45
2026-07-27 12:36:59.743,1.02,0.71,-0.24,79.28,-153.44,-38.27
2026-07-27 12:36:59.808,1.04,0.81,-0.3,97.17,-192.14,-62.13
2026-07-27 12:36:59.809,1.04,0.81,-0.3,97.17,-192.14,-62.13
2026-07-27 12:36:59.977,0.97,1.03,-0.21,64.27,-214.54,-85.63
2026-07-27 12:36:59.985,0.97,1.03,-0.21,64.27,-214.54,-85.63
2026-07-27 12:36:59.985,0.75,1.27,-0.01,17.76,-187.99,-87.04
2026-07-27 12:36:59.985,0.75,1.27,-0.01,17.76,-187.99,-87.04
2026-07-27 12:36:59.985,0.45,1.23,0.09,-2.87,-149.84,-65.31
2026-07-27 12:36:59.986,0.21,0.99,0.11,-7.69,-126.46,-28.08
2026-07-27 12:36:59.987,0.21,0.99,0.11,-7.69,-126.46,-28.08
2026-07-27 12:36:59.987,0.12,0.81,0.12,-10.8,-118.53,-9.22
2026-07-27 12:37:00.043,0.12,0.81,0.12,-10.8,-118.53,-9.22
2026-07-27 12:37:00.052,0.2,0.75,0.15,-18.74,-130.31,-7.69
2026-07-27 12:37:00.052,0.2,0.75,0.15,-18.74,-130.31,-7.69
2026-07-27 12:37:00.162,0.33,0.79,0.24,-17.58,-146.48,8.79
2026-07-27 12:37:00.163,0.46,0.83,0.35,1.46,-167.85,64.21
2026-07-27 12:37:00.163,0.46,0.83,0.35,1.46,-167.85,64.21
2026-07-27 12:37:00.163,0.56,0.77,0.46,-12.15,-177.43,153.5
2026-07-27 12:37:00.165,0.56,0.77,0.46,-12.15,-177.43,153.5
2026-07-27 12:37:00.218,0.6,0.69,0.58,-72.45,-153.63,223.75
2026-07-27 12:37:00.219,0.68,0.74,0.66,-105.16,-120.06,220.64
2026-07-27 12:37:00.219,0.68,0.74,0.66,-105.16,-120.06,220.64
2026-07-27 12:37:00.336,0.83,0.99,0.7,-67.26,-99.43,158.94
2026-07-27 12:37:00.336,0.83,0.99,0.7,-67.26,-99.43,158.94
2026-07-27 12:37:00.336,0.87,1.39,0.82,4.52,-72.27,97.11
2026-07-27 12:37:00.336,0.71,1.65,0.98,36.13,-18.8,53.47
2026-07-27 12:37:00.337,0.71,1.65,0.98,36.13,-18.8,53.47
2026-07-27 12:37:00.394,0.65,1.58,0.95,-3.54,44.19,5.19
2026-07-27 12:37:00.394,0.65,1.58,0.95,-3.54,44.19,5.19
2026-07-27 12:37:00.516,0.75,1.38,0.75,-68.54,121.34,-40.65
2026-07-27 12:37:00.530,0.75,1.38,0.75,-68.54,121.34,-40.65
2026-07-27 12:37:00.575,0.85,1.2,0.51,-105.47,220.09,-54.93
2026-07-27 12:37:00.575,0.87,1.06,0.29,-109.99,303.96,-46.14
2026-07-27 12:37:00.576,0.87,1.06,0.29,-109.99,303.96,-46.14
2026-07-27 12:37:00.576,0.83,0.94,0.14,-105.22,352.72,-36.93
2026-07-27 12:37:00.594,0.83,0.94,0.14,-105.22,352.72,-36.93
2026-07-27 12:37:00.594,0.74,0.77,0.1,-93.2,363.95,-17.21
2026-07-27 12:37:00.634,0.74,0.77,0.1,-65.55,318.73,-6.77
2026-07-27 12:37:00.634,0.62,0.56,0.12,-65.55,318.73,-6.77
2026-07-27 12:37:00.635,0.54,0.44,0.1,-36.01,224.37,-42.18
2026-07-27 12:37:00.723,0.54,0.44,0.1,-36.01,224.37,-42.18
2026-07-27 12:37:00.724,0.48,0.45,0.08,-10.62,137.15,-81.73
2026-07-27 12:37:00.724,0.48,0.45,0.08,-10.62,137.15,-81.73
2026-07-27 12:37:00.755,0.4,0.53,0.17,12.02,80.08,-85.08
2026-07-27 12:37:00.755,0.42,0.61,0.23,21.73,13.67,-80.2
2026-07-27 12:37:00.884,0.42,0.61,0.23,21.73,13.67,-80.2
2026-07-27 12:37:00.887,0.55,0.65,0.09,20.2,-71.96,-71.17
2026-07-27 12:37:00.887,0.55,0.65,0.09,20.2,-71.96,-71.17
2026-07-27 12:37:00.887,0.69,0.68,-0.08,38.88,-147.89,-31.13
2026-07-27 12:37:00.994,0.77,0.9,0.04,101.32,-207.28,14.95
2026-07-27 12:37:00.994,0.77,0.9,0.04,101.32,-207.28,14.95
2026-07-27 12:37:00.995,0.62,1.34,0.3,182.01,-231.87,28.63
2026-07-27 12:37:00.995,0.62,1.34,0.3,182.01,-231.87,28.63
2026-07-27 12:37:00.995,0.2,1.63,0.4,231.57,-200.81,9.95
2026-07-27 12:37:00.995,-0.11,1.44,0.26,208.13,-166.08,-27.83
2026-07-27 12:37:01.054,-0.11,1.44,0.26,208.13,-166.08,-27.83
2026-07-27 12:37:01.055,-0.17,1.07,0.11,112.79,-162.35,-82.4
2026-07-27 12:37:01.055,-0.17,1.07,0.11,112.79,-162.35,-82.4
2026-07-27 12:37:01.114,-0.13,0.88,0.15,4.64,-127.56,-140.14
2026-07-27 12:37:01.114,-0.18,0.88,0.33,-70.43,-51.76,-170.17
2026-07-27 12:37:01.177,-0.18,0.88,0.33,-70.43,-51.76,-170.17
2026-07-27 12:37:01.178,-0.29,0.88,0.59,-121.34,-23.19,-175.96
2026-07-27 12:37:01.178,-0.29,0.88,0.59,-121.34,-23.19,-175.96
2026-07-27 12:37:01.234,-0.33,0.78,0.84,-124.51,-45.41,-161.44
2026-07-27 12:37:01.234,-0.19,0.69,0.91,-47.55,-62.32,-117.98
2026-07-27 12:37:01.235,-0.19,0.69,0.91,-47.55,-62.32,-117.98
2026-07-27 12:37:01.296,0.02,0.72,0.91,50.6,-72.39,-66.59
2026-07-27 12:37:01.296,0.02,0.72,0.91,50.6,-72.39,-66.59
2026-07-27 12:37:01.354,0.13,0.85,1.01,104.86,-73.12,-25.27
2026-07-27 12:37:01.354,0.13,0.85,1.01,104.86,-73.12,-25.27
2026-07-27 12:37:01.355,0.07,0.93,1.27,106.87,-59.69,9.64
2026-07-27 12:37:01.418,-0.22,0.83,1.55,54.14,-26.12,47.91
2026-07-27 12:37:01.418,-0.22,0.83,1.55,54.14,-26.12,47.91
2026-07-27 12:37:01.474,-0.48,0.69,1.65,-41.32,27.95,77.88
2026-07-27 12:37:01.475,-0.48,0.69,1.65,-41.32,27.95,77.88
2026-07-27 12:37:01.665,-0.45,0.69,1.55,-135.68,76.78,78.98
2026-07-27 12:37:01.668,-0.45,0.69,1.55,-174.5,84.29,61.34
2026-07-27 12:37:01.717,-0.2,0.87,1.33,-174.5,84.29,61.34
2026-07-27 12:37:01.718,-0.02,1.06,1.08,-181.76,72.94,56.34
2026-07-27 12:37:01.719,-0.02,1.06,1.08,-181.76,72.94,56.34
2026-07-27 12:37:01.719,-0.02,1.21,0.8,-195.74,89.72,58.78
2026-07-27 12:37:01.719,-0.02,1.21,0.8,-195.74,89.72,58.78
2026-07-27 12:37:01.719,-0.07,1.31,0.43,-211.24,113.1,36.87
2026-07-27 12:37:01.719,-0.07,1.1,0.26,-287.11,105.16,25.7
2026-07-27 12:37:01.720,-0.07,1.1,0.26,-287.11,105.16,25.7
2026-07-27 12:37:01.720,0.0,0.79,0.32,-316.59,67.81,47.85
2026-07-27 12:37:01.720,0.0,0.79,0.32,-316.59,67.81,47.85
2026-07-27 12:37:01.893,0.05,0.71,0.26,-198.0,31.98,60.12
2026-07-27 12:37:01.894,0.05,0.75,0.14,-68.79,10.38,47.85
2026-07-27 12:37:01.895,0.05,0.75,0.14,-68.79,10.38,47.85
2026-07-27 12:37:01.895,0.01,0.82,0.11,-5.07,-2.2,20.81
2026-07-27 12:37:01.895,0.01,0.82,0.11,-5.07,-2.2,20.81
2026-07-27 12:37:01.896,-0.01,0.95,0.26,21.73,-2.2,-15.81
2026-07-27 12:37:01.896,-0.01,0.95,0.26,21.73,-2.2,-15.81
2026-07-27 12:37:01.957,0.01,1.02,0.49,55.36,-10.25,-54.32
2026-07-27 12:37:01.960,0.05,1.0,0.7,117.31,-43.52,-80.63
2026-07-27 12:37:01.960,0.05,1.0,0.7,117.31,-43.52,-80.63
2026-07-27 12:37:02.014,-0.03,1.04,0.84,188.9,-62.07,-85.27
2026-07-27 12:37:02.014,-0.03,1.04,0.84,188.9,-62.07,-85.27
2026-07-27 12:37:02.134,-0.21,1.06,0.83,232.18,-45.53,-76.29
2026-07-27 12:37:02.135,-0.29,0.99,0.72,239.99,-49.07,-68.91
2026-07-27 12:37:02.135,-0.29,0.99,0.72,239.99,-49.07,-68.91
2026-07-27 12:37:02.138,-0.21,0.87,0.61,236.82,-114.14,-64.88
2026-07-27 12:37:02.139,-0.21,0.87,0.61,236.82,-114.14,-64.88
2026-07-27 12:37:02.139,-0.01,0.76,0.56,226.68,-187.19,-54.32
2026-07-27 12:37:02.204,-0.01,0.76,0.56,203.67,-183.53,-41.63
2026-07-27 12:37:02.253,0.17,0.75,0.59,203.67,-183.53,-41.63
2026-07-27 12:37:02.267,0.2,0.83,0.69,177.49,-108.95,-38.39
2026-07-27 12:37:02.314,0.2,0.83,0.69,177.49,-108.95,-38.39
2026-07-27 12:37:02.315,0.19,0.91,0.82,156.8,-42.91,-40.28
2026-07-27 12:37:02.316,0.19,0.91,0.82,156.8,-42.91,-40.28
2026-07-27 12:37:02.317,0.21,0.96,0.99,141.91,-18.31,-34.73
2026-07-27 12:37:02.375,0.23,1.01,1.2,126.89,-2.14,-13.61
2026-07-27 12:37:02.375,0.23,1.01,1.2,126.89,-2.14,-13.61
2026-07-27 12:37:02.375,0.13,1.1,1.41,98.82,32.17,17.94
2026-07-27 12:37:02.496,0.13,1.1,1.41,98.82,32.17,17.94
2026-07-27 12:37:02.497,-0.15,1.14,1.57,45.78,71.41,48.52
2026-07-27 12:37:02.497,-0.45,1.12,1.57,-30.09,101.38,65.12
2026-07-27 12:37:02.498,-0.45,1.12,1.57,-30.09,101.38,65.12
2026-07-27 12:37:02.498,-0.46,1.21,1.37,-103.27,119.26,45.23
2026-07-27 12:37:02.555,-0.46,1.21,1.37,-103.27,119.26,45.23
2026-07-27 12:37:02.556,-0.21,1.41,1.04,-156.43,132.81,-1.53
2026-07-27 12:37:02.556,-0.21,1.41,1.04,-156.43,132.81,-1.53
2026-07-27 12:37:02.614,-0.02,1.55,0.79,-198.61,153.75,-29.97
2026-07-27 12:37:02.615,-0.01,1.52,0.63,-225.22,182.01,-29.42
2026-07-27 12:37:02.615,-0.01,1.52,0.63,-225.22,182.01,-29.42
2026-07-27 12:37:02.676,-0.09,1.4,0.52,-232.97,198.12,-27.04
2026-07-27 12:37:02.676,-0.09,1.4,0.52,-232.97,198.12,-27.04
2026-07-27 12:37:02.799,-0.07,1.26,0.41,-227.36,172.85,-40.89
2026-07-27 12:37:02.799,0.03,1.14,0.28,-208.62,120.67,-58.04
2026-07-27 12:37:02.799,0.03,1.14,0.28,-208.62,120.67,-58.04
2026-07-27 12:37:02.800,0.13,0.99,0.16,-183.11,80.57,-58.23
2026-07-27 12:37:02.800,0.13,0.99,0.16,-183.11,80.57,-58.23
2026-07-27 12:37:02.859,0.2,0.83,0.07,-152.04,57.07,-42.18
2026-07-27 12:37:02.859,0.24,0.7,-0.03,-116.64,27.1,-20.39
2026-07-27 12:37:02.859,0.24,0.7,-0.03,-116.64,27.1,-20.39
2026-07-27 12:37:02.975,0.22,0.67,-0.13,-75.2,-19.1,-0.18
2026-07-27 12:37:02.976,0.22,0.67,-0.13,-75.2,-19.1,-0.18
2026-07-27 12:37:02.976,0.12,0.78,-0.14,-19.53,-52.12,10.8
2026-07-27 12:37:02.994,0.12,0.78,-0.14,-19.53,-52.12,10.8
2026-07-27 12:37:02.994,-0.03,0.93,-0.0,51.27,-49.8,9.83
2026-07-27 12:37:03.035,-0.17,1.06,0.21,121.22,-33.63,10.38
2026-07-27 12:37:03.035,-0.17,1.06,0.21,121.22,-33.63,10.38
2026-07-27 12:37:03.156,-0.36,1.17,0.39,168.09,-23.19,22.09
2026-07-27 12:37:03.156,-0.36,1.17,0.39,168.09,-23.19,22.09
2026-07-27 12:37:03.156,-0.51,1.21,0.49,185.24,-30.03,31.92
2026-07-27 12:37:03.156,-0.43,1.13,0.51,185.18,-77.7,24.48
2026-07-27 12:37:03.156,-0.43,1.13,0.51,185.18,-77.7,24.48
2026-07-27 12:37:03.156,-0.19,1.02,0.49,181.34,-149.6,5.55
2026-07-27 12:37:03.216,-0.19,1.02,0.49,181.34,-149.6,5.55
2026-07-27 12:37:03.216,0.03,0.99,0.5,178.34,-188.96,-11.17
2026-07-27 12:37:03.275,0.16,1.04,0.55,179.5,-175.17,-19.78
2026-07-27 12:37:03.282,0.16,1.04,0.55,179.5,-175.17,-19.78
2026-07-27 12:37:03.282,0.17,1.13,0.67,187.81,-125.67,-17.52
2026-07-27 12:37:03.334,0.17,1.13,0.67,187.81,-125.67,-17.52
2026-07-27 12:37:03.335,0.05,1.2,0.86,200.26,-63.05,-4.09
2026-07-27 12:37:03.394,0.05,1.2,0.86,201.84,-13.06,15.62
2026-07-27 12:37:03.394,-0.13,1.22,1.08,201.84,-13.06,15.62
2026-07-27 12:37:03.396,-0.21,1.19,1.27,175.11,-1.65,29.11
2026-07-27 12:37:03.520,-0.21,1.19,1.27,175.11,-1.65,29.11
2026-07-27 12:37:03.520,-0.18,1.15,1.34,115.78,-22.22,30.82
2026-07-27 12:37:03.520,-0.18,1.15,1.34,115.78,-22.22,30.82
2026-07-27 12:37:03.520,-0.16,1.06,1.35,20.63,-34.73,31.98
2026-07-27 12:37:03.521,-0.31,0.98,1.31,-70.01,10.44,40.83
2026-07-27 12:37:03.633,-0.31,0.98,1.31,-70.01,10.44,40.83
2026-07-27 12:37:03.634,-0.44,1.08,1.17,-104.74,98.75,38.51
2026-07-27 12:37:03.641,-0.44,1.08,1.17,-104.74,98.75,38.51
2026-07-27 12:37:03.649,-0.31,1.33,0.98,-90.52,161.8,8.54
2026-07-27 12:37:03.649,-0.31,1.33,0.98,-90.52,161.8,8.54
2026-07-27 12:37:03.650,-0.1,1.61,0.75,-69.46,183.53,-34.48
2026-07-27 12:37:03.696,-0.02,1.71,0.56,-95.89,178.83,-67.69
2026-07-27 12:37:03.696,-0.02,1.71,0.56,-95.89,178.83,-67.69
2026-07-27 12:37:03.757,-0.03,1.63,0.41,-159.79,155.4,-82.82
2026-07-27 12:37:03.757,-0.03,1.63,0.41,-159.79,155.4,-82.82
2026-07-27 12:37:03.757,-0.01,1.54,0.22,-201.97,121.09,-91.06
2026-07-27 12:37:03.814,0.08,1.44,0.04,-225.71,95.83,-97.96
2026-07-27 12:37:03.815,0.08,1.44,0.04,-225.71,95.83,-97.96
2026-07-27 12:37:03.998,0.07,1.28,-0.01,-260.13,99.67,-104.8
2026-07-27 12:37:03.998,0.07,1.28,-0.01,-260.13,99.67,-104.8
2026-07-27 12:37:03.999,-0.01,1.1,0.07,-306.27,93.81,-117.13
2026-07-27 12:37:03.999,-0.03,0.92,0.14,-332.52,29.66,-132.81
2026-07-27 12:37:04.000,-0.03,0.92,0.14,-332.52,29.66,-132.81
2026-07-27 12:37:04.000,0.01,0.77,-0.0,-262.76,-67.44,-130.92
2026-07-27 12:37:04.005,0.01,0.77,-0.0,-262.76,-67.44,-130.92
2026-07-27 12:37:04.005,0.06,0.68,-0.15,-107.73,-135.93,-88.38
2026-07-27 12:37:04.059,0.06,0.68,-0.15,28.44,-126.28,-15.69
2026-07-27 12:37:04.060,0.01,0.68,-0.1,28.44,-126.28,-15.69
2026-07-27 12:37:04.121,-0.16,0.78,0.1,105.9,-57.74,49.8
2026-07-27 12:37:04.121,-0.16,0.78,0.1,105.9,-57.74,49.8
2026-07-27 12:37:04.121,-0.36,0.99,0.27,153.02,4.76,83.74
2026-07-27 12:37:04.185,-0.36,0.99,0.27,153.02,4.76,83.74
2026-07-27 12:37:04.187,-0.48,1.2,0.35,199.65,19.23,92.1
2026-07-27 12:37:04.188,-0.43,1.25,0.39,252.99,-26.61,81.67
2026-07-27 12:37:04.294,-0.43,1.25,0.39,252.99,-26.61,81.67
2026-07-27 12:37:04.295,-0.22,1.18,0.43,293.82,-98.02,57.37
2026-07-27 12:37:04.297,-0.22,1.18,0.43,293.82,-98.02,57.37
2026-07-27 12:37:04.297,-0.03,1.13,0.48,293.4,-131.9,32.35
2026-07-27 12:37:04.298,0.04,1.18,0.52,234.92,-112.98,22.58
2026-07-27 12:37:04.426,0.04,1.18,0.52,234.92,-112.98,22.58
2026-07-27 12:37:04.426,0.05,1.24,0.66,120.85,-84.78,53.28
2026-07-27 12:37:04.426,0.05,1.24,0.66,120.85,-84.78,53.28
2026-07-27 12:37:04.435,0.18,1.12,0.97,2.38,-111.02,97.9
2026-07-27 12:37:04.435,0.18,1.12,0.97,-43.15,-185.36,82.89
2026-07-27 12:37:04.478,0.46,0.84,1.31,-43.15,-185.36,82.89
2026-07-27 12:37:04.478,0.61,0.6,1.53,-2.2,-215.58,15.44
2026-07-27 12:37:04.480,0.61,0.6,1.53,-2.2,-215.58,15.44
2026-07-27 12:37:04.534,0.62,0.52,1.62,52.31,-170.9,-29.54
2026-07-27 12:37:04.535,0.62,0.52,1.62,52.31,-170.9,-29.54
2026-07-27 12:37:04.716,0.54,0.5,1.54,41.93,-112.24,-15.38
2026-07-27 12:37:04.717,0.43,0.39,1.54,-90.03,-89.48,53.53
2026-07-27 12:37:04.717,0.43,0.39,1.54,-90.03,-89.48,53.53
2026-07-27 12:37:04.718,0.39,0.2,1.73,-255.31,-53.71,128.78
2026-07-27 12:37:04.720,0.39,0.2,1.73,-255.31,-53.71,128.78
2026-07-27 12:37:04.724,0.55,0.13,1.78,-240.05,24.35,151.12
2026-07-27 12:37:04.724,0.91,0.29,1.59,-79.1,63.6,131.16
2026-07-27 12:37:04.724,0.91,0.29,1.59,-79.1,63.6,131.16
2026-07-27 12:37:04.779,1.07,0.64,1.39,6.04,85.21,114.38
2026-07-27 12:37:04.785,1.07,0.64,1.39,6.04,85.21,114.38
2026-07-27 12:37:04.785,0.89,0.97,1.42,-60.36,166.02,101.32
2026-07-27 12:37:04.843,0.89,0.97,1.42,-60.36,166.02,101.32
2026-07-27 12:37:04.847,0.68,1.14,1.69,-192.99,263.0,74.89
2026-07-27 12:37:04.895,0.8,1.19,1.83,-265.87,283.26,46.51
2026-07-27 12:37:04.895,0.8,1.19,1.83,-265.87,283.26,46.51
2026-07-27 12:37:04.896,0.97,1.22,1.39,-227.42,184.94,9.58
2026-07-27 12:37:04.955,0.97,1.22,1.39,-227.42,184.94,9.58
2026-07-27 12:37:04.957,0.76,1.2,0.74,-185.97,77.09,-31.56
2026-07-27 12:37:05.080,0.36,0.99,0.4,-194.34,61.28,-32.47
2026-07-27 12:37:05.080,0.36,0.99,0.4,-194.34,61.28,-32.47
2026-07-27 12:37:05.081,0.06,0.64,0.27,-180.18,61.34,15.69
2026-07-27 12:37:05.081,0.06,0.64,0.27,-180.18,61.34,15.69
2026-07-27 12:37:05.081,-0.09,0.26,0.15,-153.32,38.7,68.3
2026-07-27 12:37:05.134,-0.23,-0.09,0.12,-123.6,50.48,82.34
2026-07-27 12:37:05.135,-0.23,-0.09,0.12,-123.6,50.48,82.34
2026-07-27 12:37:05.136,-0.38,-0.29,0.3,-53.59,80.26,66.22
2026-07-27 12:37:05.257,-0.38,-0.29,0.3,-53.59,80.26,66.22
2026-07-27 12:37:05.257,-0.44,-0.28,0.54,21.12,64.58,30.15
2026-07-27 12:37:05.257,-0.46,-0.19,0.65,23.74,4.09,-33.45
2026-07-27 12:37:05.258,-0.46,-0.19,0.65,23.74,4.09,-33.45
2026-07-27 12:37:05.259,-0.47,-0.19,0.61,-28.02,-61.46,-122.31
2026-07-27 12:37:05.494,-0.47,-0.19,0.61,-28.02,-61.46,-122.31
2026-07-27 12:37:05.495,-0.35,-0.31,0.56,-56.7,-108.4,-237.85
2026-07-27 12:37:05.496,-0.35,-0.31,0.56,-49.99,-107.73,-312.68
2026-07-27 12:37:05.496,-0.13,-0.45,0.56,-49.99,-107.73,-312.68
2026-07-27 12:37:05.496,0.14,-0.54,0.56,-47.85,-74.46,-254.03
2026-07-27 12:37:05.497,0.14,-0.54,0.56,-47.85,-74.46,-254.03
2026-07-27 12:37:05.497,0.34,-0.62,0.55,-75.32,-44.37,-104.43
2026-07-27 12:37:05.497,0.34,-0.62,0.55,-75.32,-44.37,-104.43
2026-07-27 12:37:05.498,0.28,-0.7,0.53,-137.63,-33.02,16.78
2026-07-27 12:37:05.559,0.19,-0.75,0.52,-109.8,-28.08,39.12
2026-07-27 12:37:05.559,0.19,-0.75,0.52,-109.8,-28.08,39.12
2026-07-27 12:37:05.560,0.27,-0.78,0.61,5.92,-18.86,-0.55
2026-07-27 12:37:05.560,0.27,-0.78,0.61,5.92,-18.86,-0.55
2026-07-27 12:37:05.614,0.37,-0.86,0.62,27.65,-29.72,-16.24
2026-07-27 12:37:05.615,0.47,-0.96,0.53,-26.31,-40.71,-5.8
2026-07-27 12:37:05.616,0.47,-0.96,0.53,-26.31,-40.71,-5.8
2026-07-27 12:37:05.674,0.65,-0.98,0.61,-43.82,-12.51,-15.32
2026-07-27 12:37:05.674,0.65,-0.98,0.61,-43.82,-12.51,-15.32
2026-07-27 12:37:05.797,0.77,-0.83,0.78,-1.83,49.8,-49.68
2026-07-27 12:37:05.799,0.77,-0.83,0.78,-1.83,49.8,-49.68
2026-07-27 12:37:05.800,0.66,-0.63,0.81,66.77,95.52,-63.35
2026-07-27 12:37:05.914,0.45,-0.52,0.75,107.97,99.79,-30.82
2026-07-27 12:37:05.975,0.45,-0.52,0.75,107.97,99.79,-30.82
2026-07-27 12:37:05.975,0.26,-0.47,0.74,87.77,85.33,17.88
2026-07-27 12:37:05.976,0.26,-0.47,0.74,87.77,85.33,17.88
2026-07-27 12:37:05.979,0.13,-0.47,0.71,40.41,75.62,50.66
2026-07-27 12:37:06.033,0.13,-0.47,0.71,9.77,78.43,54.5
2026-07-27 12:37:06.034,0.04,-0.5,0.61,9.77,78.43,54.5
2026-07-27 12:37:06.034,-0.03,-0.54,0.52,-3.6,80.38,33.39
2026-07-27 12:37:06.034,-0.03,-0.54,0.52,-3.6,80.38,33.39
2026-07-27 12:37:06.035,-0.11,-0.6,0.45,-8.36,74.58,7.26
2026-07-27 12:37:06.036,-0.11,-0.6,0.45,-8.36,74.58,7.26
2026-07-27 12:37:06.036,-0.15,-0.64,0.37,-3.23,70.98,-6.65
2026-07-27 12:37:06.153,-0.15,-0.64,0.37,-3.23,70.98,-6.65
2026-07-27 12:37:06.153,-0.15,-0.64,0.37,-3.23,70.98,-6.65
2026-07-27 12:37:06.154,-0.15,-0.64,0.37,-3.23,70.98,-6.65
2026-07-27 12:37:06.154,-0.17,-0.58,0.22,92.04,43.64,-24.23
2026-07-27 12:37:06.154,-0.17,-0.58,0.22,136.41,17.27,-35.22
2026-07-27 12:37:06.157,-0.23,-0.41,0.08,136.41,17.27,-35.22
2026-07-27 12:37:06.157,-0.41,-0.09,0.01,140.44,11.17,-46.33
2026-07-27 12:37:06.220,-0.41,-0.09,0.01,140.44,11.17,-46.33
2026-07-27 12:37:06.220,-0.67,0.33,0.04,173.34,34.85,-79.65
2026-07-27 12:37:06.222,-0.67,0.33,0.04,173.34,34.85,-79.65
2026-07-27 12:37:06.341,-0.97,0.74,0.06,233.52,79.83,-124.08
2026-07-27 12:37:06.346,-1.35,1.17,0.07,247.68,139.28,-147.58
2026-07-27 12:37:06.517,-1.35,1.17,0.07,247.68,139.28,-147.58
2026-07-27 12:37:06.517,-1.64,1.62,0.22,236.88,191.16,-156.07
2026-07-27 12:37:06.518,-1.64,1.62,0.22,236.88,191.16,-156.07
2026-07-27 12:37:06.518,-1.65,1.94,0.51,284.06,185.91,-162.35
2026-07-27 12:37:06.636,-1.4,2.04,0.67,408.26,97.78,-174.13
2026-07-27 12:37:06.636,-1.4,2.04,0.67,408.26,97.78,-174.13
2026-07-27 12:37:06.637,-1.0,2.09,0.59,519.35,-13.37,-190.98
2026-07-27 12:37:06.637,-1.0,2.09,0.59,519.35,-13.37,-190.98
2026-07-27 12:37:06.637,-0.59,2.13,0.48,494.2,-55.24,-193.73
2026-07-27 12:37:06.637,-0.35,1.99,0.45,323.79,-19.35,-161.8
2026-07-27 12:37:06.638,-0.35,1.99,0.45,323.79,-19.35,-161.8
2026-07-27 12:37:06.638,-0.32,1.67,0.44,151.92,25.15,-96.25
2026-07-27 12:37:06.638,-0.32,1.67,0.44,151.92,25.15,-96.25
2026-07-27 12:37:06.754,-0.39,1.34,0.4,100.71,26.61,-25.33
2026-07-27 12:37:06.755,-0.39,1.34,0.4,100.71,26.61,-25.33
2026-07-27 12:37:06.755,-0.4,1.17,0.3,146.12,1.04,9.28
2026-07-27 12:37:06.755,-0.3,1.26,0.19,180.79,-13.67,-4.15
2026-07-27 12:37:06.756,-0.3,1.26,0.19,180.79,-13.67,-4.15
2026-07-27 12:37:06.771,-0.15,1.49,0.24,155.76,-6.59,-28.32
2026-07-27 12:37:06.937,-0.15,1.49,0.24,155.76,-6.59,-28.32
2026-07-27 12:37:06.938,-0.05,1.7,0.5,92.65,15.14,-22.58
2026-07-27 12:37:06.938,-0.05,1.7,0.5,-3.78,37.72,21.18
2026-07-27 12:37:06.940,-0.12,1.88,0.71,-3.78,37.72,21.18
2026-07-27 12:37:06.940,-0.37,1.97,0.56,-111.45,51.03,81.79
2026-07-27 12:37:06.940,-0.37,1.97,0.56,-111.45,51.03,81.79
2026-07-27 12:37:06.942,-0.66,1.95,0.18,-169.98,46.08,134.4
2026-07-27 12:37:06.943,-0.66,1.95,0.18,-169.98,46.08,134.4
2026-07-27 12:37:06.943,-0.89,1.84,-0.12,-169.56,26.06,168.03
2026-07-27 12:37:06.944,-1.05,1.7,-0.29,-164.98,6.41,190.25
2026-07-27 12:37:07.114,-1.05,1.7,-0.29,-164.98,6.41,190.25
2026-07-27 12:37:07.115,-1.1,1.55,-0.43,-195.74,-7.63,211.36
2026-07-27 12:37:07.116,-1.1,1.55,-0.43,-195.74,-7.63,211.36
2026-07-27 12:37:07.116,-1.01,1.45,-0.53,-245.0,-14.22,216.06
2026-07-27 12:37:07.116,-0.9,1.31,-0.54,-236.88,-3.3,182.5
2026-07-27 12:37:07.116,-0.9,1.31,-0.54,-236.88,-3.3,182.5
2026-07-27 12:37:07.117,-0.81,1.05,-0.49,-155.21,14.71,137.7
2026-07-27 12:37:07.118,-0.81,1.05,-0.49,-155.21,14.71,137.7
2026-07-27 12:37:07.668,-0.7,0.72,-0.51,-78.12,15.87,124.76
2026-07-27 12:37:07.714,-0.64,0.18,-0.62,-67.5,22.89,125.24
2026-07-27 12:37:07.714,-0.64,0.18,-0.62,-67.5,22.89,125.24
2026-07-27 12:37:07.729,-0.74,-0.61,-0.7,-101.81,24.48,128.42
2026-07-27 12:37:07.729,-0.74,-0.61,-0.7,-101.81,24.48,128.42
2026-07-27 12:37:07.729,-0.82,-0.79,-0.71,-45.23,-20.08,107.97
2026-07-27 12:37:07.730,-0.82,-0.79,-0.71,58.59,-51.94,-17.76
2026-07-27 12:37:07.730,-0.78,0.08,-0.65,58.59,-51.94,-17.76
2026-07-27 12:37:07.730,-0.79,1.08,-0.47,60.85,-8.12,-189.15
2026-07-27 12:37:07.730,-0.79,1.08,-0.47,60.85,-8.12,-189.15
2026-07-27 12:37:07.730,-0.92,1.42,-0.26,35.89,65.12,-259.7
2026-07-27 12:37:07.730,-0.92,1.42,-0.26,35.89,65.12,-259.7
2026-07-27 12:37:07.731,-1.09,1.25,-0.16,76.97,101.56,-227.66
2026-07-27 12:37:07.731,-1.2,1.15,-0.1,161.44,98.08,-185.12
2026-07-27 12:37:07.732,-1.2,1.15,-0.1,161.44,98.08,-185.12
2026-07-27 12:37:07.732,-1.15,1.41,0.05,242.61,63.29,-167.48
2026-07-27 12:37:07.732,-1.15,1.41,0.05,242.61,63.29,-167.48
2026-07-27 12:37:07.732,-0.87,1.88,0.23,295.84,-3.3,-153.32
2026-07-27 12:37:07.732,-0.87,1.88,0.23,295.84,-3.3,-153.32
2026-07-27 12:37:07.732,-0.87,1.88,0.23,295.84,-3.3,-153.32
2026-07-27 12:37:07.733,-0.87,1.88,0.23,295.84,-3.3,-153.32
2026-07-27 12:37:07.734,-0.2,1.97,0.18,240.91,-71.23,-128.78
2026-07-27 12:37:07.734,-0.11,1.69,0.04,166.99,-48.4,-97.23
2026-07-27 12:37:07.735,-0.11,1.69,0.04,166.99,-48.4,-97.23
2026-07-27 12:37:07.735,-0.22,1.46,0.12,93.93,-0.79,-58.59
2026-07-27 12:37:07.735,-0.22,1.46,0.12,93.93,-0.79,-58.59
2026-07-27 12:37:07.735,-0.36,1.46,0.3,36.93,40.28,-38.57
2026-07-27 12:37:07.775,-0.36,1.46,0.3,36.93,40.28,-38.57
2026-07-27 12:37:07.794,-0.36,1.68,0.48,-4.33,51.88,-37.05
2026-07-27 12:37:07.837,-0.31,1.84,0.68,-39.37,37.11,-31.01
2026-07-27 12:37:07.837,-0.31,1.84,0.68,-39.37,37.11,-31.01
2026-07-27 12:37:08.435,-0.38,1.89,0.64,-75.62,9.4,9.77
2026-07-27 12:37:08.435,-0.38,1.89,0.64,-75.62,9.4,9.77
2026-07-27 12:37:08.495,-0.6,1.88,0.29,-121.7,-5.0,80.99
2026-07-27 12:37:08.495,-0.6,1.88,0.29,-185.61,4.21,140.99
2026-07-27 12:37:08.496,-0.87,1.78,-0.04,-185.61,4.21,140.99
2026-07-27 12:37:08.496,-1.01,1.66,-0.12,-247.13,13.31,172.85
2026-07-27 12:37:08.497,-1.01,1.66,-0.12,-247.13,13.31,172.85
2026-07-27 12:37:08.498,-1.02,1.58,-0.07,-279.36,-2.14,187.81
2026-07-27 12:37:08.499,-1.02,1.58,-0.07,-279.36,-2.14,187.81
2026-07-27 12:37:08.499,-0.97,1.48,-0.12,-273.86,-41.63,197.14
2026-07-27 12:37:08.499,-0.89,1.34,-0.34,-231.45,-78.12,201.84
2026-07-27 12:37:08.520,-0.89,1.34,-0.34,-231.45,-78.12,201.84
2026-07-27 12:37:08.520,-0.79,1.12,-0.54,-176.09,-84.11,197.08
2026-07-27 12:37:08.553,-0.79,1.12,-0.54,-176.09,-84.11,197.08
2026-07-27 12:37:08.554,-0.68,0.82,-0.6,-129.03,-56.58,179.26
2026-07-27 12:37:08.554,-0.68,0.82,-0.6,-72.08,-21.97,150.88
2026-07-27 12:37:08.555,-0.55,0.5,-0.54,-72.08,-21.97,150.88
2026-07-27 12:37:08.555,-0.43,0.23,-0.46,9.09,-2.08,118.65
2026-07-27 12:37:08.555,-0.43,0.23,-0.46,9.09,-2.08,118.65
2026-07-27 12:37:08.556,-0.34,0.08,-0.46,79.16,4.33,79.71
2026-07-27 12:37:08.556,-0.34,0.08,-0.46,79.16,4.33,79.71
2026-07-27 12:37:08.557,-0.34,0.0,-0.45,106.45,2.44,24.9
2026-07-27 12:37:08.557,-0.34,0.0,-0.45,109.86,5.43,-43.76
2026-07-27 12:37:08.558,-0.45,0.06,-0.37,109.86,5.43,-43.76
2026-07-27 12:37:08.559,-0.73,0.38,-0.26,93.69,23.19,-114.2
2026-07-27 12:37:08.559,-0.73,0.38,-0.26,93.69,23.19,-114.2
2026-07-27 12:37:08.563,-1.09,0.86,-0.09,59.45,43.52,-173.58
2026-07-27 12:37:08.563,-1.09,0.86,-0.09,59.45,43.52,-173.58
2026-07-27 12:37:08.563,-1.29,1.24,0.04,78.98,34.73,-210.94
2026-07-27 12:37:08.564,-1.2,1.43,-0.01,172.67,-16.91,-222.66
2026-07-27 12:37:08.564,-1.2,1.43,-0.01,172.67,-16.91,-222.66
2026-07-27 12:37:08.564,-0.89,1.6,-0.04,258.79,-77.39,-217.77
2026-07-27 12:37:08.737,-0.89,1.6,-0.04,258.79,-77.39,-217.77
2026-07-27 12:37:08.739,-0.55,1.71,-0.01,279.17,-106.75,-199.58
2026-07-27 12:37:08.739,-0.32,1.67,-0.02,241.64,-98.63,-158.08
2026-07-27 12:37:08.739,-0.32,1.67,-0.02,241.64,-98.63,-158.08
2026-07-27 12:37:08.740,-0.26,1.51,-0.08,172.73,-68.97,-96.44
2026-07-27 12:37:08.740,-0.26,1.51,-0.08,172.73,-68.97,-96.44
2026-07-27 12:37:08.740,-0.28,1.27,-0.17,108.28,-42.85,-30.09
2026-07-27 12:37:08.740,-0.28,1.27,-0.17,65.49,-29.24,14.65
2026-07-27 12:37:08.917,-0.3,1.1,-0.27,65.49,-29.24,14.65
2026-07-27 12:37:08.918,-0.32,1.05,-0.36,28.02,-30.64,14.34
2026-07-27 12:37:08.918,-0.32,1.05,-0.36,28.02,-30.64,14.34
2026-07-27 12:37:08.919,-0.3,1.22,-0.39,16.85,-67.93,-35.22
2026-07-27 12:37:08.919,-0.3,1.22,-0.39,16.85,-67.93,-35.22
2026-07-27 12:37:08.919,-0.16,1.63,-0.18,26.06,-112.73,-113.71
2026-07-27 12:37:08.978,-0.08,2.01,0.33,-32.96,-97.96,-148.86
2026-07-27 12:37:08.978,-0.08,2.01,0.33,-32.96,-97.96,-148.86
2026-07-27 12:37:08.983,-0.27,2.1,0.76,-159.18,-45.35,-82.34
2026-07-27 12:37:08.983,-0.27,2.1,0.76,-159.18,-45.35,-82.34
2026-07-27 12:37:09.157,-0.7,1.96,0.67,-223.75,-18.25,45.35
2026-07-27 12:37:09.395,-1.08,1.74,0.26,-201.17,-4.7,168.58
2026-07-27 12:37:09.395,-1.08,1.74,0.26,-201.17,-4.7,168.58
2026-07-27 12:37:09.396,-1.25,1.45,-0.0,-214.66,48.65,279.05
2026-07-27 12:37:09.398,-1.25,1.45,-0.0,-214.66,48.65,279.05
2026-07-27 12:37:09.400,-1.3,1.11,0.08,-305.97,111.33,354.0
2026-07-27 12:37:09.400,-1.24,0.86,0.26,-372.07,107.12,350.1
2026-07-27 12:37:09.401,-1.24,0.86,0.26,-372.07,107.12,350.1
2026-07-27 12:37:09.401,-1.03,0.74,0.23,-334.23,38.02,270.45
2026-07-27 12:37:09.402,-1.03,0.74,0.23,-334.23,38.02,270.45
2026-07-27 12:37:09.402,-0.78,0.64,0.01,-207.52,-43.88,158.75
2026-07-27 12:37:09.402,-0.56,0.48,-0.17,-65.86,-98.51,71.35
2026-07-27 12:37:09.403,-0.56,0.48,-0.17,-65.86,-98.51,71.35
2026-07-27 12:37:09.403,-0.45,0.34,-0.24,15.75,-117.07,30.58
2026-07-27 12:37:09.404,-0.45,0.34,-0.24,15.75,-117.07,30.58
2026-07-27 12:37:09.405,-0.42,0.33,-0.26,24.96,-108.89,17.52
2026-07-27 12:37:09.405,-0.42,0.33,-0.26,24.96,-108.89,17.52
2026-07-27 12:37:09.458,-0.45,0.4,-0.26,-1.22,-88.93,5.13
2026-07-27 12:37:09.458,-0.54,0.51,-0.23,-18.8,-66.77,-23.13
2026-07-27 12:37:09.514,-0.54,0.51,-0.23,-18.8,-66.77,-23.13
2026-07-27 12:37:09.754,-0.7,0.65,-0.1,-33.2,-29.66,-45.17
2026-07-27 12:37:09.755,-0.7,0.65,-0.1,-33.2,-29.66,-45.17
2026-07-27 12:37:09.755,-0.87,0.74,0.34,-29.79,27.47,-52.73
2026-07-27 12:37:09.755,-1.0,0.78,0.92,31.19,73.06,-99.73
2026-07-27 12:37:09.759,-1.0,0.78,0.92,31.19,73.06,-99.73
2026-07-27 12:37:09.759,-1.02,0.86,1.22,114.26,67.81,-198.91
2026-07-27 12:37:09.760,-1.02,0.86,1.22,114.26,67.81,-198.91
2026-07-27 12:37:09.760,-0.8,1.02,1.27,182.43,14.83,-296.02
2026-07-27 12:37:09.760,-0.8,1.02,1.27,182.43,14.83,-296.02
2026-07-27 12:37:09.760,-0.41,1.23,1.16,222.17,-66.53,-341.06
2026-07-27 12:37:09.761,-0.03,1.43,0.81,220.09,-167.91,-314.88
2026-07-27 12:37:09.761,-0.03,1.43,0.81,220.09,-167.91,-314.88
2026-07-27 12:37:09.761,0.15,1.5,0.45,157.59,-217.47,-225.1
2026-07-27 12:37:09.761,0.15,1.5,0.45,157.59,-217.47,-225.1
2026-07-27 12:37:09.814,0.11,1.4,0.24,52.31,-180.11,-111.88
2026-07-27 12:37:09.814,-0.03,1.16,0.19,-36.99,-111.76,-26.37
2026-07-27 12:37:09.888,-0.03,1.16,0.19,-36.99,-111.76,-26.37
2026-07-27 12:37:09.888,-0.16,0.89,0.19,-68.6,-48.28,3.11
2026-07-27 12:37:09.888,-0.16,0.89,0.19,-68.6,-48.28,3.11
2026-07-27 12:37:09.995,-0.2,0.75,0.23,-48.34,-5.8,-10.5
2026-07-27 12:37:09.995,-0.19,0.87,0.34,-12.63,12.08,-31.98
2026-07-27 12:37:09.997,-0.19,0.87,0.34,-12.63,12.08,-31.98
2026-07-27 12:37:09.998,-0.15,1.16,0.48,15.08,25.02,-43.46
2026-07-27 12:37:09.999,-0.15,1.16,0.48,15.08,25.02,-43.46
2026-07-27 12:37:10.114,-0.12,1.44,0.65,21.3,61.04,-54.14
2026-07-27 12:37:10.114,-0.12,1.44,0.65,21.3,61.04,-54.14
2026-07-27 12:37:10.115,-0.15,1.59,0.97,-24.05,132.75,-47.73
2026-07-27 12:37:10.115,-0.3,1.46,1.36,-144.9,212.16,13.61
2026-07-27 12:37:10.115,-0.3,1.46,1.36,-144.9,212.16,13.61
2026-07-27 12:37:10.419,-0.59,1.11,1.5,-295.04,236.69,114.69
2026-07-27 12:37:10.473,-0.59,1.11,1.5,-295.04,236.69,114.69
2026-07-27 12:37:10.474,-0.95,0.72,1.34,-378.91,158.08,214.97
2026-07-27 12:37:10.475,-0.95,0.72,1.34,-362.85,2.01,279.05
2026-07-27 12:37:10.593,-1.29,0.46,1.01,-362.85,2.01,279.05
2026-07-27 12:37:10.659,-1.41,0.43,0.52,-307.8,-135.31,280.58
2026-07-27 12:37:11.133,-1.41,0.43,0.52,-307.8,-135.31,280.58
2026-07-27 12:37:11.194,-1.18,0.47,0.07,-278.14,-173.71,228.7
2026-07-27 12:37:11.194,-1.18,0.47,0.07,-278.14,-173.71,228.7
2026-07-27 12:37:11.195,-0.8,0.4,-0.16,-278.81,-123.78,179.63
2026-07-27 12:37:11.434,-0.55,0.24,-0.14,-287.35,-65.43,179.14
2026-07-27 12:37:11.435,-0.55,0.24,-0.14,-287.35,-65.43,179.14
2026-07-27 12:37:11.435,-0.47,0.15,0.05,-261.47,-44.37,185.18
2026-07-27 12:37:11.436,-0.47,0.15,0.05,-261.47,-44.37,185.18
2026-07-27 12:37:11.554,-0.48,0.17,0.31,-179.75,-30.15,134.09
2026-07-27 12:37:11.555,-0.47,0.24,0.55,-78.37,-3.6,33.39
2026-07-27 12:37:11.555,-0.47,0.24,0.55,-78.37,-3.6,33.39
2026-07-27 12:37:11.555,-0.41,0.36,0.8,17.58,17.15,-68.66
2026-07-27 12:37:11.556,-0.41,0.36,0.8,17.58,17.15,-68.66
2026-07-27 12:37:11.556,-0.42,0.44,1.11,78.31,20.75,-117.0
2026-07-27 12:37:11.557,-0.42,0.44,1.11,85.94,37.29,-79.41
2026-07-27 12:37:11.557,-0.54,0.27,1.41,85.94,37.29,-79.41
2026-07-27 12:37:11.558,-0.54,-0.12,1.48,62.56,90.39,-14.59
2026-07-27 12:37:11.864,-0.54,-0.12,1.48,62.56,90.39,-14.59
2026-07-27 12:37:11.865,-0.44,-0.38,1.19,55.6,122.44,-25.15
2026-07-27 12:37:11.865,-0.44,-0.38,1.19,55.6,122.44,-25.15
2026-07-27 12:37:11.865,-0.45,-0.37,0.71,85.02,88.38,-125.85
2026-07-27 12:37:11.865,-0.5,-0.21,0.43,78.12,23.86,-201.54
2026-07-27 12:37:11.866,-0.5,-0.21,0.43,78.12,23.86,-201.54
2026-07-27 12:37:12.034,-0.4,-0.06,0.47,15.62,-9.46,-175.11
2026-07-27 12:37:12.035,-0.4,-0.06,0.47,15.62,-9.46,-175.11
2026-07-27 12:37:12.036,-0.23,-0.03,0.68,-11.72,10.25,-136.72
2026-07-27 12:37:12.036,-0.23,-0.03,0.68,-11.72,10.25,-136.72
2026-07-27 12:37:12.036,-0.14,-0.09,0.86,49.13,70.25,-149.29
2026-07-27 12:37:12.337,-0.13,-0.08,1.04,144.17,123.23,-166.63
2026-07-27 12:37:12.338,-0.13,-0.08,1.04,144.17,123.23,-166.63
2026-07-27 12:37:12.338,-0.13,0.04,1.28,193.73,131.47,-156.31
2026-07-27 12:37:12.339,-0.13,0.04,1.28,193.73,131.47,-156.31
2026-07-27 12:37:12.339,-0.2,0.21,1.51,191.35,132.87,-144.04
2026-07-27 12:37:12.339,-0.28,0.33,1.68,149.41,135.38,-144.53
2026-07-27 12:37:12.341,-0.28,0.33,1.68,149.41,135.38,-144.53
2026-07-27 12:37:12.341,-0.25,0.27,1.78,78.31,92.96,-130.0
2026-07-27 12:37:12.341,-0.25,0.27,1.78,78.31,92.96,-130.0
2026-07-27 12:37:12.342,-0.15,0.04,1.7,11.9,11.11,-95.89
2026-07-27 12:37:12.342,-0.15,0.04,1.7,11.9,11.11,-95.89
2026-07-27 12:37:12.342,-0.06,-0.26,1.45,-28.38,-65.37,-30.15
2026-07-27 12:37:12.343,-0.07,-0.46,1.23,-52.98,-120.06,75.99
2026-07-27 12:37:12.343,-0.07,-0.46,1.23,-52.98,-120.06,75.99
2026-07-27 12:37:12.344,-0.08,-0.52,1.08,-96.74,-189.64,167.79
2026-07-27 12:37:12.344,-0.08,-0.52,1.08,-96.74,-189.64,167.79
2026-07-27 12:37:12.344,-0.02,-0.54,0.98,-144.35,-278.63,203.86
2026-07-27 12:37:12.344,-0.05,-0.55,0.97,-148.01,-326.9,190.12
2026-07-27 12:37:12.875,-0.05,-0.55,0.97,-148.01,-326.9,190.12
2026-07-27 12:37:12.876,-0.13,-0.48,1.02,-115.48,-312.19,131.1
2026-07-27 12:37:12.876,-0.13,-0.48,1.02,-115.48,-312.19,131.1
2026-07-27 12:37:12.876,-0.19,-0.31,1.05,-71.84,-243.84,38.64
2026-07-27 12:37:12.876,-0.19,-0.31,1.05,-71.84,-243.84,38.64
2026-07-27 12:37:12.877,-0.23,-0.1,0.99,-27.65,-154.36,-59.2
2026-07-27 12:37:13.721,-0.21,0.05,0.85,0.49,-85.08,-126.89
2026-07-27 12:37:13.956,-0.21,0.05,0.85,0.49,-85.08,-126.89
2026-07-27 12:37:13.957,-0.19,0.06,0.79,1.04,-30.09,-148.99
2026-07-27 12:37:13.957,-0.19,0.06,0.79,1.04,-30.09,-148.99
2026-07-27 12:37:13.957,-0.25,0.03,0.85,-14.1,22.64,-148.5
2026-07-27 12:37:13.958,-0.25,0.03,0.85,-29.85,67.75,-147.09
2026-07-27 12:37:13.958,-0.36,0.02,0.97,-29.85,67.75,-147.09
2026-07-27 12:37:13.959,-0.4,-0.07,1.07,-42.36,127.38,-146.12
2026-07-27 12:37:13.959,-0.4,-0.07,1.07,-42.36,127.38,-146.12
2026-07-27 12:37:13.959,-0.31,-0.3,1.19,-48.22,186.71,-124.63
2026-07-27 12:37:13.959,-0.31,-0.3,1.19,-48.22,186.71,-124.63
2026-07-27 12:37:13.960,-0.15,-0.6,1.27,-51.27,179.69,-66.47
2026-07-27 12:37:13.961,-0.15,-0.6,1.27,-59.2,119.2,-30.21
2026-07-27 12:37:13.961,-0.05,-0.75,1.22,-59.2,119.2,-30.21
2026-07-27 12:37:13.962,0.03,-0.72,0.96,-90.03,129.94,-98.45
2026-07-27 12:37:13.963,0.03,-0.72,0.96,-90.03,129.94,-98.45
2026-07-27 12:37:13.963,0.06,-0.68,0.55,-150.51,284.97,-180.36
2026-07-27 12:37:13.964,0.06,-0.68,0.55,-150.51,284.97,-180.36
2026-07-27 12:37:13.965,0.01,-0.65,0.41,-143.07,362.98,-124.45
2026-07-27 12:37:13.965,-0.06,-0.59,0.65,-64.76,242.19,-16.91
2026-07-27 12:37:13.966,-0.06,-0.59,0.65,-64.76,242.19,-16.91
2026-07-27 12:37:13.966,-0.19,-0.47,0.99,-10.38,102.54,7.57
2026-07-27 12:37:13.967,-0.19,-0.47,0.99,-10.38,102.54,7.57
2026-07-27 12:37:13.968,-0.3,-0.29,1.15,27.47,25.82,-47.91
2026-07-27 12:37:13.969,-0.3,-0.29,1.15,27.47,25.82,-47.91
2026-07-27 12:37:13.970,-0.3,-0.14,1.06,75.13,-26.18,-163.33
2026-07-27 12:37:13.974,-0.29,-0.05,0.89,122.31,-65.8,-286.5
2026-07-27 12:37:13.975,-0.29,-0.05,0.89,122.31,-65.8,-286.5
2026-07-27 12:37:13.986,-0.44,-0.04,0.81,142.33,-63.29,-343.63
2026-07-27 12:37:13.989,-0.44,-0.04,0.81,142.33,-63.29,-343.63
2026-07-27 12:37:13.991,-0.59,0.06,0.84,164.12,4.7,-304.14
2026-07-27 12:37:13.992,-0.59,0.06,0.84,164.12,4.7,-304.14
2026-07-27 12:37:13.992,-0.59,0.06,0.84,164.12,4.7,-304.14
2026-07-27 12:37:13.995,-0.59,0.06,0.84,164.12,4.7,-304.14
2026-07-27 12:37:13.996,-0.36,1.03,1.02,252.01,106.32,-126.65
2026-07-27 12:37:14.203,-0.3,1.03,1.27,139.04,100.34,-114.87
2026-07-27 12:37:14.203,-0.3,1.03,1.27,139.04,100.34,-114.87
2026-07-27 12:37:14.799,-0.17,0.64,1.54,-15.93,97.53,-23.74
2026-07-27 12:37:14.800,0.06,0.11,1.61,-147.22,-41.93,327.51
2026-07-27 12:37:14.801,0.21,-0.47,1.4,-147.22,-41.93,327.51
2026-07-27 12:37:14.801,0.23,-0.9,1.1,-115.36,-163.51,363.83
2026-07-27 12:37:14.801,0.23,-0.9,1.1,-115.36,-163.51,363.83
2026-07-27 12:37:14.801,0.17,-0.9,0.93,-22.95,-221.8,252.2
2026-07-27 12:37:14.802,0.17,-0.9,0.93,-22.95,-221.8,252.2
2026-07-27 12:37:14.802,0.01,-0.58,0.9,66.47,-199.52,110.96
2026-07-27 12:37:14.804,-0.14,-0.24,0.91,103.45,-151.67,48.52
2026-07-27 12:37:14.805,-0.14,-0.24,0.91,103.45,-151.67,48.52
2026-07-27 12:37:14.806,-0.2,-0.04,0.85,97.29,-109.86,57.31
2026-07-27 12:37:14.806,-0.2,-0.04,0.85,97.29,-109.86,57.31
2026-07-27 12:37:14.806,-0.18,0.07,0.73,72.33,-69.82,63.23
2026-07-27 12:37:14.806,-0.18,0.07,0.73,72.33,-69.82,63.23
2026-07-27 12:37:14.806,-0.2,0.11,0.67,39.12,-9.95,19.84
2026-07-27 12:37:14.806,-0.17,0.15,0.79,4.03,61.89,-50.29
2026-07-27 12:37:14.806,-0.17,0.15,0.79,4.03,61.89,-50.29
2026-07-27 12:37:14.806,0.04,0.22,1.13,-16.11,104.61,-79.59
2026-07-27 12:37:14.807,0.04,0.22,1.13,-16.11,104.61,-79.59
2026-07-27 12:37:14.807,0.13,-0.2,0.84,-30.03,-21.18,-99.37
2026-07-27 12:37:14.807,0.13,-0.2,0.84,-24.41,-37.35,-149.72
2026-07-27 12:37:14.807,0.14,-0.12,0.65,-24.41,-37.35,-149.72
2026-07-27 12:37:15.164,0.23,-0.0,0.63,-31.86,-38.27,-149.29
2026-07-27 12:37:15.165,0.23,-0.0,0.63,-31.86,-38.27,-149.29
2026-07-27 12:37:15.165,0.32,0.16,0.72,-33.94,-35.95,-127.62
2026-07-27 12:37:15.166,-0.26,0.41,1.17,55.05,132.39,138.18
2026-07-27 12:37:15.274,0.31,-0.29,1.04,116.39,-207.64,-88.62
2026-07-27 12:37:15.275,0.1,-0.31,0.86,120.0,-279.48,-177.98
2026-07-27 12:37:15.275,0.1,-0.31,0.86,120.0,-279.48,-177.98
2026-07-27 12:37:15.276,0.1,-0.31,0.86,120.0,-279.48,-177.98
2026-07-27 12:37:15.277,0.1,-0.31,0.86,120.0,-279.48,-177.98
2026-07-27 12:37:15.277,-0.34,-0.06,0.56,8.73,-278.14,-193.73
2026-07-27 12:37:15.277,0.11,0.11,0.8,-110.23,-197.33,-111.76
2026-07-27 12:37:15.278,0.11,0.11,0.8,-110.23,-197.33,-111.76
2026-07-27 12:37:15.278,0.49,0.23,0.88,-107.06,-108.64,-55.66
2026-07-27 12:37:15.278,0.49,0.23,0.88,-107.06,-108.64,-55.66
2026-07-27 12:37:15.279,0.55,0.27,0.92,-41.81,-38.94,-37.78
2026-07-27 12:37:15.280,0.55,0.27,0.92,-37.84,-30.21,0.98
2026-07-27 12:37:15.281,0.65,0.24,1.17,-37.84,-30.21,0.98
2026-07-27 12:37:15.995,0.55,0.2,1.37,-39.55,-45.59,19.47
2026-07-27 12:37:15.995,0.55,0.2,1.37,-39.55,-45.59,19.47
2026-07-27 12:37:15.996,0.31,0.49,1.21,6.04,-42.18,19.1
2026-07-27 12:37:15.996,0.31,0.49,1.21,6.04,-42.18,19.1
2026-07-27 12:37:15.997,0.26,0.82,0.87,45.9,-12.33,59.08
2026-07-27 12:37:15.998,0.26,0.82,0.87,45.9,-12.33,59.08
2026-07-27 12:37:16.355,0.34,0.84,0.76,50.66,28.56,89.54
2026-07-27 12:37:16.355,0.46,0.78,0.89,41.08,45.35,80.14
2026-07-27 12:37:16.356,0.46,0.78,0.89,41.08,45.35,80.14
2026-07-27 12:37:16.356,0.5,0.69,0.98,32.04,53.71,76.48
2026-07-27 12:37:16.356,0.5,0.69,0.98,32.04,53.71,76.48
2026-07-27 12:37:16.357,0.5,0.52,0.94,41.99,58.23,72.45
2026-07-27 12:37:16.357,0.5,0.52,0.94,41.99,58.23,72.45
2026-07-27 12:37:16.358,0.54,0.33,0.82,80.63,22.64,32.41
2026-07-27 12:37:16.358,0.51,0.13,0.5,122.56,-33.94,-17.7
2026-07-27 12:37:16.359,0.51,0.13,0.5,122.56,-33.94,-17.7
2026-07-27 12:37:16.359,0.3,-0.04,0.13,130.0,-49.62,-33.87
2026-07-27 12:37:16.360,0.3,-0.04,0.13,130.0,-49.62,-33.87
2026-07-27 12:37:16.361,0.13,-0.02,0.03,107.91,-19.78,-22.28
2026-07-27 12:37:16.361,0.13,-0.02,0.03,107.91,-19.78,-22.28
2026-07-27 12:37:16.362,0.17,0.24,0.21,88.07,6.1,-5.98
2026-07-27 12:37:16.362,0.42,0.64,0.5,78.55,3.3,20.32
2026-07-27 12:37:16.362,0.42,0.64,0.5,78.55,3.3,20.32
2026-07-27 12:37:16.363,0.65,1.06,0.81,50.66,-49.07,32.29
2026-07-27 12:37:16.363,0.65,1.06,0.81,50.66,-49.07,32.29
2026-07-27 12:37:16.364,0.41,1.15,0.44,49.19,-50.9,-10.5
2026-07-27 12:37:16.364,0.09,1.19,-0.02,50.84,-0.49,-42.79
2026-07-27 12:37:16.364,0.09,1.19,-0.02,50.84,-0.49,-42.79
2026-07-27 12:37:16.365,-0.14,0.98,-0.12,27.65,106.75,-39.61
2026-07-27 12:37:16.366,-0.14,0.98,-0.12,27.65,106.75,-39.61
2026-07-27 12:37:16.366,-0.11,0.51,0.16,-21.3,237.3,-8.97
2026-07-27 12:37:16.367,-0.11,0.51,0.16,-21.3,237.3,-8.97
2026-07-27 12:37:16.387,0.39,0.2,0.79,-91.13,299.44,15.69
2026-07-27 12:37:16.387,0.76,0.16,1.38,-125.61,166.44,-46.02
2026-07-27 12:37:16.387,0.76,0.16,1.38,-125.61,166.44,-46.02
2026-07-27 12:37:16.387,0.45,0.29,1.26,-49.5,-74.52,-187.32
2026-07-27 12:37:16.387,0.45,0.29,1.26,-49.5,-74.52,-187.32
2026-07-27 12:37:16.387,-0.01,0.4,0.75,20.57,-180.97,-218.02
2026-07-27 12:37:16.474,-0.25,0.25,0.57,-55.97,-72.33,-92.22
2026-07-27 12:37:16.474,-0.25,0.25,0.57,-55.97,-72.33,-92.22
2026-07-27 12:37:16.474,-0.22,-0.09,0.76,-200.38,125.98,35.34
2026-07-27 12:37:16.474,-0.22,-0.09,0.76,-200.38,125.98,35.34
2026-07-27 12:37:16.476,-0.04,-0.23,1.04,-272.16,237.37,65.0
2026-07-27 12:37:16.593,-0.04,-0.23,1.04,-272.16,237.37,65.0
2026-07-27 12:37:16.594,-0.04,-0.23,1.04,-272.16,237.37,65.0
2026-07-27 12:37:16.594,-0.04,-0.23,1.04,-272.16,237.37,65.0
2026-07-27 12:37:16.594,0.24,0.15,1.64,-204.22,131.53,-68.42
2026-07-27 12:37:16.595,0.31,0.29,1.86,-132.93,-5.86,-151.61
2026-07-27 12:37:16.595,0.31,0.29,1.86,-132.93,-5.86,-151.61
2026-07-27 12:37:16.596,0.22,0.29,1.81,-41.14,-148.13,-199.22
2026-07-27 12:37:16.597,0.22,0.29,1.81,-41.14,-148.13,-199.22
2026-07-27 12:37:16.597,0.23,0.2,1.69,0.98,-216.37,-164.18
2026-07-27 12:37:16.598,0.23,0.2,1.69,0.98,-216.37,-164.18
2026-07-27 12:37:16.599,0.37,0.29,1.7,-2.44,-208.01,-87.77
2026-07-27 12:37:16.601,0.35,0.44,1.64,8.0,-179.5,-34.3
2026-07-27 12:37:16.601,0.35,0.44,1.64,8.0,-179.5,-34.3
2026-07-27 12:37:16.602,0.22,0.35,1.39,16.72,-161.38,12.82
2026-07-27 12:37:16.603,0.22,0.35,1.39,16.72,-161.38,12.82
2026-07-27 12:37:16.603,0.04,0.09,1.08,0.18,-154.66,65.92
2026-07-27 12:37:16.604,0.04,0.09,1.08,0.18,-154.66,65.92
2026-07-27 12:37:16.604,-0.15,-0.13,0.73,-14.4,-150.76,108.95
2026-07-27 12:37:17.554,-0.25,-0.21,0.42,-15.08,-142.4,133.24
2026-07-27 12:37:17.554,-0.94,-0.01,1.93,-61.89,307.19,-173.95
2026-07-27 12:37:17.560,-0.66,-0.28,2.32,-100.1,358.83,-58.78
2026-07-27 12:37:17.560,-0.66,-0.28,2.32,-100.1,358.83,-58.78
2026-07-27 12:37:17.560,-0.14,-0.36,2.17,-58.47,332.7,38.02
2026-07-27 12:37:17.560,-0.14,-0.36,2.17,-58.47,332.7,38.02
2026-07-27 12:37:17.562,0.22,-0.28,1.68,33.57,241.52,14.95
2026-07-27 12:37:17.563,0.02,0.1,0.91,23.32,21.61,-101.32
2026-07-27 12:37:17.563,-0.08,0.16,1.08,11.47,23.32,-100.46
2026-07-27 12:37:17.563,-0.24,0.24,1.33,-11.41,22.71,-102.36
2026-07-27 12:37:17.563,-0.24,0.24,1.33,-11.41,22.71,-102.36
2026-07-27 12:37:17.568,-0.32,0.2,1.61,-35.89,30.33,-82.34
2026-07-27 12:37:17.568,-0.32,0.2,1.61,-35.89,30.33,-82.34
2026-07-27 12:37:17.569,-0.15,-0.04,1.79,-54.99,29.97,14.83
2026-07-27 12:37:17.569,-0.15,-0.04,1.79,-54.99,29.97,14.83
2026-07-27 12:37:17.569,0.09,-0.29,1.77,-66.16,-26.73,152.95
2026-07-27 12:37:17.569,0.03,-0.38,1.6,-56.34,-131.41,208.62
2026-07-27 12:37:17.570,0.03,-0.38,1.6,-56.34,-131.41,208.62
2026-07-27 12:37:17.570,-0.24,-0.37,1.38,-23.62,-217.04,163.45
2026-07-27 12:37:17.570,-0.24,-0.37,1.38,-23.62,-217.04,163.45
2026-07-27 12:37:17.570,-0.45,-0.34,1.14,1.1,-254.76,109.92
2026-07-27 12:37:17.570,-0.48,-0.33,0.91,-10.56,-261.35,110.47
2026-07-27 12:37:17.571,-0.48,-0.33,0.91,-10.56,-261.35,110.47
2026-07-27 12:37:17.571,-0.41,-0.3,0.76,-45.96,-249.63,134.16
2026-07-27 12:37:17.571,-0.41,-0.3,0.76,-45.96,-249.63,134.16
2026-07-27 12:37:17.571,-0.37,-0.22,0.68,-70.13,-217.1,125.61
2026-07-27 12:37:17.795,-0.37,-0.22,0.68,-70.13,-217.1,125.61
2026-07-27 12:37:18.343,-0.38,-0.13,0.63,-64.45,-168.21,85.51
2026-07-27 12:37:22.055,-0.37,-0.08,0.64,-42.72,-111.15,45.29
2026-07-27 12:37:22.056,-0.37,-0.08,0.64,-42.72,-111.15,45.29
2026-07-27 12:37:22.056,-0.35,-0.05,0.74,-27.47,-52.55,19.65
2026-07-27 12:37:22.535,-0.35,-0.05,0.74,-27.47,-52.55,19.65
2026-07-27 12:37:22.535,-0.38,-0.05,0.89,-16.85,-2.56,4.46
2026-07-27 12:37:22.535,-0.38,-0.05,0.89,-16.85,-2.56,4.46
2026-07-27 12:37:23.015,-0.45,-0.05,0.99,1.65,34.42,-10.62
2026-07-27 12:37:23.193,-0.49,-0.07,1.01,26.55,63.42,-25.21
2026-07-27 12:37:23.194,-0.49,-0.07,1.01,26.55,63.42,-25.21
2026-07-27 12:37:23.194,-0.49,-0.21,1.04,38.09,92.29,-18.37
2026-07-27 12:37:23.195,-0.49,-0.21,1.04,38.09,92.29,-18.37
2026-07-27 12:37:23.196,-0.43,-0.47,1.11,19.59,115.42,27.77
2026-07-27 12:37:23.197,-0.25,-0.63,1.09,-3.05,116.21,75.32
2026-07-27 12:37:23.201,-0.25,-0.63,1.09,-3.05,116.21,75.32
2026-07-27 12:37:23.202,-0.08,-0.57,0.93,18.49,106.81,49.32
2026-07-27 12:37:23.203,-0.08,-0.57,0.93,18.49,106.81,49.32
2026-07-27 12:37:23.203,-0.04,-0.45,0.73,77.21,107.3,-47.73
2026-07-27 12:37:23.204,-0.04,-0.45,0.73,77.21,107.3,-47.73
2026-07-27 12:37:23.204,-0.04,-0.36,0.63,112.98,112.79,-132.32
2026-07-27 12:37:23.210,-0.02,-0.26,0.71,95.09,120.67,-160.71
2026-07-27 12:37:23.210,-0.02,-0.26,0.71,95.09,120.67,-160.71
2026-07-27 12:37:23.210,0.03,-0.14,0.92,49.44,135.01,-152.16
2026-07-27 12:37:23.210,0.03,-0.14,0.92,49.44,135.01,-152.16
2026-07-27 12:37:23.211,0.12,-0.04,1.16,9.89,149.54,-131.04
2026-07-27 12:37:23.211,0.12,-0.04,1.16,9.89,149.54,-131.04
2026-07-27 12:37:23.211,0.19,0.05,1.39,-17.03,155.15,-106.57
2026-07-27 12:37:23.212,0.2,0.16,1.64,-38.39,148.93,-77.7
2026-07-27 12:37:23.320,0.2,0.16,1.64,-38.39,148.93,-77.7
2026-07-27 12:37:23.434,0.2,0.19,1.9,-45.04,121.7,-39.37
2026-07-27 12:37:24.095,0.2,0.19,1.9,-45.04,121.7,-39.37
2026-07-27 12:37:24.095,0.23,0.02,2.08,-19.84,64.27,9.7
2026-07-27 12:37:24.096,0.23,0.02,2.08,-19.84,64.27,9.7
2026-07-27 12:37:24.096,0.26,-0.23,2.14,10.01,-24.84,66.53
2026-07-27 12:37:24.170,0.12,-0.28,2.09,19.04,-131.84,100.95
2026-07-27 12:37:24.171,0.12,-0.28,2.09,19.04,-131.84,100.95
2026-07-27 12:37:24.171,-0.14,-0.18,1.92,44.49,-218.75,83.92
2026-07-27 12:37:24.171,-0.14,-0.18,1.92,44.49,-218.75,83.92
2026-07-27 12:37:24.171,-0.38,-0.15,1.69,97.23,-268.19,55.48
2026-07-27 12:37:24.173,-0.38,-0.15,1.69,123.78,-301.88,75.81
2026-07-27 12:37:24.173,-0.61,-0.16,1.44,123.78,-301.88,75.81
2026-07-27 12:37:24.174,-0.91,-0.17,1.15,95.7,-335.02,148.25
2026-07-27 12:37:24.175,-0.91,-0.17,1.15,95.7,-335.02,148.25
2026-07-27 12:37:24.175,-1.46,-0.21,0.74,33.26,-343.08,232.36
2026-07-27 12:37:24.175,-1.46,-0.21,0.74,33.26,-343.08,232.36
2026-07-27 12:37:24.175,-2.16,-0.14,0.04,-2.01,-290.77,264.53
2026-07-27 12:37:24.175,-2.58,0.27,-0.44,45.78,-125.67,155.52
2026-07-27 12:37:24.190,-2.58,0.27,-0.44,45.78,-125.67,155.52
2026-07-27 12:37:24.190,-2.79,0.77,0.15,75.2,153.26,-32.1
2026-07-27 12:37:24.191,-2.79,0.77,0.15,75.2,153.26,-32.1
2026-07-27 12:37:24.191,-3.04,0.92,1.74,18.98,424.56,-85.33
2026-07-27 12:37:24.191,-3.04,0.92,1.74,18.98,424.56,-85.33
2026-07-27 12:37:24.193,-3.03,0.86,3.42,-4.21,598.45,31.31
2026-07-27 12:37:24.193,-2.28,0.55,4.0,80.51,601.5,241.46
2026-07-27 12:37:24.193,-2.28,0.55,4.0,80.51,601.5,241.46
2026-07-27 12:37:24.194,-0.75,-0.19,3.95,229.0,400.09,409.06
2026-07-27 12:37:24.194,-0.75,-0.19,3.95,229.0,400.09,409.06
2026-07-27 12:37:24.195,0.65,-0.6,2.91,343.87,134.58,306.09
2026-07-27 12:37:24.196,0.65,-0.6,2.91,343.87,134.58,306.09
2026-07-27 12:37:24.199,1.15,-0.29,1.85,343.63,-81.3,-18.25
2026-07-27 12:37:24.199,1.07,0.02,1.25,220.64,-212.28,-248.84
2026-07-27 12:37:24.199,1.07,0.02,1.25,220.64,-212.28,-248.84
2026-07-27 12:37:24.200,0.74,-0.65,0.71,-211.55,-265.26,-88.01
2026-07-27 12:37:24.200,0.19,-0.6,0.92,71.23,60.49,-110.96
2026-07-27 12:37:24.394,0.31,-0.51,0.85,51.64,28.87,-131.84
2026-07-27 12:37:24.395,-0.16,0.17,0.76,76.48,-41.56,5.68
2026-07-27 12:37:24.395,-0.11,0.36,0.7,-8.97,-92.65,39.98
2026-07-27 12:37:25.055,-0.94,0.37,0.92,163.51,-77.03,-113.53
2026-07-27 12:37:25.353,-0.83,0.05,0.61,184.75,25.15,-127.56
2026-07-27 12:37:25.354,-0.83,0.05,0.61,189.27,-25.82,-64.94
2026-07-27 12:37:25.355,-0.83,0.01,0.91,189.27,-25.82,-64.94
2026-07-27 12:37:25.958,-1.07,-0.25,1.0,162.54,-44.62,20.14
2026-07-27 12:37:25.958,-1.07,-0.25,1.0,162.54,-44.62,20.14
2026-07-27 12:37:26.494,-1.29,-0.43,0.81,166.08,-39.67,44.43
2026-07-27 12:37:26.914,-1.29,-0.43,0.81,166.08,-39.67,44.43
2026-07-27 12:37:26.917,-1.25,-0.26,0.59,174.01,-56.09,1.59
2026-07-27 12:37:27.097,-1.25,-0.26,0.59,137.82,-86.73,-51.64
2026-07-27 12:37:27.876,-0.99,0.07,0.28,137.82,-86.73,-51.64
2026-07-27 12:37:28.056,-0.57,0.39,-0.16,93.87,-109.13,-80.81
2026-07-27 12:37:28.057,-0.57,0.39,-0.16,93.87,-109.13,-80.81
2026-07-27 12:37:28.057,-0.19,0.77,-0.55,97.72,-112.37,-54.26
2026-07-27 12:37:28.294,-0.19,0.77,-0.55,97.72,-112.37,-54.26
2026-07-27 12:37:28.294,-0.19,1.14,-0.9,144.84,-73.3,24.05
2026-07-27 12:37:28.296,-0.75,1.22,-1.3,175.54,10.74,106.99
2026-07-27 12:37:28.420,-0.75,1.22,-1.3,175.54,10.74,106.99
2026-07-27 12:37:28.474,-1.59,1.06,-1.53,170.35,105.22,147.83
2026-07-27 12:37:28.534,-1.59,1.06,-1.53,170.35,105.22,147.83
2026-07-27 12:37:28.534,-2.09,1.13,-1.28,148.5,186.89,124.88
2026-07-27 12:37:28.535,-2.09,1.13,-1.28,148.5,186.89,124.88
2026-07-27 12:37:28.716,-1.67,1.21,-0.92,146.12,327.21,-4.09
2026-07-27 12:37:28.716,-1.21,0.92,-0.97,232.42,522.71,-198.73
2026-07-27 12:37:28.717,-1.21,0.92,-0.97,232.42,522.71,-198.73
2026-07-27 12:37:28.897,-3.26,-1.73,-0.19,-0.85,-342.04,-214.48
2026-07-27 12:37:28.898,-3.26,-1.73,-0.19,-0.85,-342.04,-214.48
2026-07-27 12:37:28.899,-3.75,-2.82,-1.25,271.12,-242.74,-315.4
2026-07-27 12:37:28.900,-2.57,-1.91,-2.21,519.59,-187.19,-234.0
2026-07-27 12:37:28.901,-2.57,-1.91,-2.21,519.59,-187.19,-234.0
2026-07-27 12:37:28.901,-0.36,0.05,-1.79,548.28,-149.96,-87.65
2026-07-27 12:37:28.902,-0.36,0.05,-1.79,548.28,-149.96,-87.65
2026-07-27 12:37:28.902,-0.36,0.05,-1.79,548.28,-149.96,-87.65
2026-07-27 12:37:28.903,-0.36,0.05,-1.79,548.28,-149.96,-87.65
2026-07-27 12:37:28.903,1.01,0.25,-0.33,275.88,194.95,133.36
2026-07-27 12:37:28.904,0.6,-0.21,-0.38,124.08,265.38,102.78
2026-07-27 12:37:28.904,0.6,-0.21,-0.38,124.08,265.38,102.78
2026-07-27 12:37:28.904,0.5,-0.25,-0.35,0.43,246.95,-21.79
2026-07-27 12:37:28.905,0.5,-0.25,-0.35,0.43,246.95,-21.79
2026-07-27 12:37:28.905,0.61,-0.09,-0.33,-107.18,217.29,-110.41
2026-07-27 12:37:28.905,0.61,-0.09,-0.33,-107.18,217.29,-110.41
2026-07-27 12:37:28.955,0.71,0.09,-0.55,-187.19,217.22,-120.85
2026-07-27 12:37:28.955,0.66,0.23,-1.2,-234.07,263.12,-65.49
2026-07-27 12:37:28.955,0.66,0.23,-1.2,-234.07,263.12,-65.49
2026-07-27 12:37:28.955,-0.5,0.35,-2.47,-243.16,355.71,-0.37
2026-07-27 12:37:28.956,-0.5,0.35,-2.47,-243.16,355.71,-0.37
2026-07-27 12:37:28.956,-2.66,0.41,-3.64,-218.2,418.64,8.91
2026-07-27 12:37:28.961,-2.66,0.41,-3.64,-145.57,311.71,-87.28
2026-07-27 12:37:28.961,-3.56,-0.04,-3.28,-145.57,311.71,-87.28
2026-07-27 12:37:28.973,-2.4,-0.49,-1.36,-58.65,77.39,-157.1
2026-07-27 12:37:28.973,-2.4,-0.49,-1.36,-58.65,77.39,-157.1
2026-07-27 12:37:28.974,-0.65,-0.27,0.71,-19.1,-80.69,-103.64
2026-07-27 12:37:28.974,-0.65,-0.27,0.71,-19.1,-80.69,-103.64
2026-07-27 12:37:28.975,0.12,0.13,1.7,-25.27,-83.44,-74.1
2026-07-27 12:37:29.193,0.12,0.13,1.7,-32.9,-25.7,-69.95
2026-07-27 12:37:29.314,-0.05,0.56,1.68,-32.9,-25.7,-69.95
2026-07-27 12:37:29.325,-0.37,0.75,1.29,-42.24,-25.02,-23.62
2026-07-27 12:37:29.325,-0.37,0.75,1.29,-42.24,-25.02,-23.62
2026-07-27 12:37:29.325,-0.58,0.13,0.61,-87.95,-83.44,-48.65
2026-07-27 12:37:29.325,-0.58,0.13,0.61,-87.95,-83.44,-48.65
2026-07-27 12:37:29.325,-0.63,-0.73,-0.05,-89.23,-149.6,-135.8
2026-07-27 12:37:29.325,-0.63,-0.73,-0.05,46.63,-189.21,-92.83
2026-07-27 12:37:29.325,0.5,-0.06,-1.68,-69.34,254.33,-269.47
2026-07-27 12:37:29.326,0.5,-0.06,-1.68,-69.34,254.33,-269.47
2026-07-27 12:37:29.326,0.14,-1.2,-2.92,-107.67,369.26,-275.57
2026-07-27 12:37:29.326,-0.16,-0.39,-1.48,384.22,-328.67,439.15
2026-07-27 12:37:29.326,-0.16,-0.39,-1.48,384.22,-328.67,439.15
2026-07-27 12:37:29.326,-0.48,0.54,0.58,41.87,-25.33,-38.82
2026-07-27 12:37:29.326,0.08,-0.13,0.0,93.32,-79.22,-30.09
2026-07-27 12:37:29.326,0.08,-0.13,0.0,93.32,-79.22,-30.09
2026-07-27 12:37:29.326,-0.1,0.37,-0.22,320.8,10.44,114.56
2026-07-27 12:37:29.326,-0.1,0.37,-0.22,320.8,10.44,114.56
2026-07-27 12:37:29.326,0.21,-0.64,-1.9,351.44,-87.89,441.71
2026-07-27 12:37:29.326,0.41,-0.43,-1.7,325.2,-75.5,419.07
2026-07-27 12:37:29.326,0.41,-0.43,-1.7,325.2,-75.5,419.07
2026-07-27 12:37:29.326,0.38,-0.23,-0.57,-36.13,20.32,-41.2
2026-07-27 12:37:29.326,0.38,-0.23,-0.57,-36.13,20.32,-41.2
2026-07-27 12:37:29.327,0.51,-0.18,-0.73,-30.88,55.42,-96.86
2026-07-27 12:37:29.327,0.49,-0.11,-1.0,-39.37,117.68,-132.08
2026-07-27 12:37:29.327,0.1,0.03,-1.65,-124.33,219.36,-153.44
2026-07-27 12:37:29.328,0.1,0.03,-1.65,-124.33,219.36,-153.44
2026-07-27 12:37:29.328,0.0,0.03,-1.67,-154.17,203.86,-164.31
2026-07-27 12:37:29.329,0.04,-0.11,-1.44,-138.85,162.84,-217.29
2026-07-27 12:37:29.329,0.13,-0.28,-1.24,-107.67,134.09,-271.97
2026-07-27 12:37:29.331,0.11,-0.16,-1.36,-132.87,148.8,-127.14
2026-07-27 12:37:29.331,0.06,-0.14,-1.46,-125.0,178.47,-101.01
2026-07-27 12:37:29.332,0.06,-0.14,-1.46,-125.0,178.47,-101.01
2026-07-27 12:37:29.333,-0.22,-0.56,-1.72,21.12,36.07,-8.24
2026-07-27 12:37:29.334,-0.22,-0.56,-1.72,21.12,36.07,-8.24
2026-07-27 12:37:29.334,-0.17,-0.43,-1.76,76.54,-24.17,75.62
2026-07-27 12:37:29.733,-0.17,-0.43,-1.76,76.54,-24.17,75.62
2026-07-27 12:37:29.913,-0.02,-0.33,-1.69,125.67,-88.44,149.35
2026-07-27 12:37:29.914,0.17,-0.24,-1.67,135.68,-140.56,212.95
2026-07-27 12:37:29.914,0.17,-0.24,-1.67,135.68,-140.56,212.95
2026-07-27 12:37:29.914,0.3,-0.14,-1.67,107.85,-180.36,264.34
2026-07-27 12:37:29.918,0.3,-0.14,-1.67,107.85,-180.36,264.34
2026-07-27 12:37:29.918,0.33,-0.12,-1.64,92.71,-216.43,268.07
2026-07-27 12:37:29.919,0.34,-0.19,-1.52,130.98,-266.66,207.4
2026-07-27 12:37:29.919,0.34,-0.19,-1.52,130.98,-266.66,207.4
2026-07-27 12:37:29.919,0.36,-0.24,-1.35,184.27,-301.51,161.38
2026-07-27 12:37:29.919,0.36,-0.24,-1.35,184.27,-301.51,161.38
2026-07-27 12:37:29.920,0.33,-0.25,-1.2,187.5,-281.31,176.15
2026-07-27 12:37:29.920,0.3,-0.22,-1.02,152.47,-219.91,177.43
2026-07-27 12:37:29.920,0.3,-0.22,-1.02,152.47,-219.91,177.43
2026-07-27 12:37:29.921,0.21,-0.23,-0.85,114.56,-147.77,128.97
2026-07-27 12:37:30.159,0.21,-0.23,-0.85,114.56,-147.77,128.97
2026-07-27 12:37:30.163,0.1,-0.32,-0.75,92.04,-105.83,58.17
2026-07-27 12:37:30.164,0.11,-0.38,-0.78,114.5,-108.4,-6.53
2026-07-27 12:37:30.164,0.11,-0.38,-0.78,114.5,-108.4,-6.53
2026-07-27 12:37:30.164,0.22,-0.38,-0.92,168.33,-105.71,-30.46
2026-07-27 12:37:30.164,0.22,-0.38,-0.92,168.33,-105.71,-30.46
2026-07-27 12:37:30.176,0.23,-0.41,-0.88,168.46,-14.47,-42.05
2026-07-27 12:37:30.176,0.03,-0.46,-0.75,85.14,107.12,-82.76
2026-07-27 12:37:30.176,0.03,-0.46,-0.75,85.14,107.12,-82.76
2026-07-27 12:37:30.176,-0.23,-0.55,-0.85,-25.39,132.57,-97.17
2026-07-27 12:37:30.183,-0.23,-0.55,-0.85,-25.39,132.57,-97.17
2026-07-27 12:37:30.184,-0.4,-0.56,-1.01,-110.35,81.85,-79.47
2026-07-27 12:37:30.184,-0.4,-0.56,-1.01,-110.35,81.85,-79.47
2026-07-27 12:37:30.184,-0.32,-0.54,-1.0,-153.75,16.85,-102.23
2026-07-27 12:37:30.185,-0.12,-0.66,-0.88,-178.41,-29.05,-155.9
2026-07-27 12:37:30.185,-0.12,-0.66,-0.88,-178.41,-29.05,-155.9
2026-07-27 12:37:30.185,-0.01,-0.88,-0.8,-189.33,-18.37,-166.3
2026-07-27 12:37:30.185,-0.01,-0.88,-0.8,-189.33,-18.37,-166.3
2026-07-27 12:37:30.186,-0.06,-0.88,-0.85,-232.97,26.61,-158.39
2026-07-27 12:37:30.187,-0.06,-0.88,-0.85,-232.97,26.61,-158.39
2026-07-27 12:37:30.188,-0.19,-0.71,-1.03,-337.04,46.94,-171.63
2026-07-27 12:37:30.189,-0.44,-0.56,-1.22,-350.95,55.18,-172.12
2026-07-27 12:37:30.189,-0.44,-0.56,-1.22,-350.95,55.18,-172.12
2026-07-27 12:37:30.190,-0.79,-0.56,-1.36,-244.45,60.55,-153.38
2026-07-27 12:37:30.213,-0.79,-0.56,-1.36,-244.45,60.55,-153.38
2026-07-27 12:37:30.214,-0.93,-0.78,-1.32,-176.03,53.71,-152.65
2026-07-27 12:37:30.214,-0.85,-1.03,-1.17,-169.13,42.11,-181.09
2026-07-27 12:37:30.214,-0.85,-1.03,-1.17,-169.13,42.11,-181.09
2026-07-27 12:37:30.216,-0.78,-1.09,-1.13,-132.57,20.39,-187.87
2026-07-27 12:37:30.222,-0.78,-1.09,-1.13,-132.57,20.39,-187.87
2026-07-27 12:37:30.222,-0.81,-0.92,-1.13,-41.5,-3.66,-136.96
2026-07-27 12:37:30.222,-0.81,-0.92,-1.13,-41.5,-3.66,-136.96
2026-07-27 12:37:30.223,-0.88,-0.64,-1.08,50.05,-25.27,-58.04
2026-07-27 12:37:30.223,-0.93,-0.4,-1.05,107.97,-56.21,12.51
2026-07-27 12:37:30.223,-0.93,-0.4,-1.05,107.97,-56.21,12.51
2026-07-27 12:37:30.223,-0.94,-0.25,-1.08,146.18,-97.41,71.9
2026-07-27 12:37:30.223,-0.94,-0.25,-1.08,146.18,-97.41,71.9
2026-07-27 12:37:30.223,-0.94,-0.17,-1.13,179.63,-137.94,117.19
2026-07-27 12:37:30.223,-0.88,-0.1,-1.18,212.89,-169.56,139.71
2026-07-27 12:37:30.394,-0.88,-0.1,-1.18,212.89,-169.56,139.71
2026-07-27 12:37:30.394,-0.72,-0.01,-1.22,261.35,-182.43,154.24
2026-07-27 12:37:30.574,-0.72,-0.01,-1.22,261.35,-182.43,154.24
2026-07-27 12:37:30.575,-0.48,0.02,-1.18,298.28,-171.69,164.61
2026-07-27 12:37:30.575,-0.18,-0.04,-1.06,299.93,-115.84,143.31
2026-07-27 12:37:30.577,-0.18,-0.04,-1.06,299.93,-115.84,143.31
2026-07-27 12:37:30.579,-0.03,-0.07,-0.9,264.47,-12.39,55.36
2026-07-27 12:37:30.583,-0.03,-0.07,-0.9,264.47,-12.39,55.36
2026-07-27 12:37:30.813,-0.08,-0.1,-0.82,175.17,49.87,4.76
2026-07-27 12:37:30.814,-0.08,-0.1,-0.82,175.17,49.87,4.76
2026-07-27 12:37:30.814,-0.16,-0.21,-0.86,75.5,36.93,41.69
2026-07-27 12:37:30.815,-0.12,-0.34,-1.04,21.18,2.32,37.84
2026-07-27 12:37:30.815,-0.12,-0.34,-1.04,21.18,2.32,37.84
2026-07-27 12:37:30.816,0.09,-0.46,-1.18,21.73,-8.61,-47.0
2026-07-27 12:37:30.821,0.09,-0.46,-1.18,21.73,-8.61,-47.0
2026-07-27 12:37:30.833,0.15,-0.6,-1.03,65.06,45.72,-153.69
2026-07-27 12:37:30.834,0.15,-0.6,-1.03,146.12,123.66,-201.54
2026-07-27 12:37:30.834,-0.12,-0.79,-0.77,146.12,123.66,-201.54
2026-07-27 12:37:30.834,-0.38,-0.84,-0.67,194.03,111.08,-193.97
2026-07-27 12:37:30.834,-0.38,-0.84,-0.67,194.03,111.08,-193.97
2026-07-27 12:37:30.834,-0.23,-0.75,-0.65,152.95,-11.9,-180.6
2026-07-27 12:37:30.834,-0.23,-0.75,-0.65,152.95,-11.9,-180.6
2026-07-27 12:37:30.834,0.14,-0.76,-0.49,63.66,-145.2,-164.98
2026-07-27 12:37:30.834,0.34,-0.99,-0.26,-38.27,-209.41,-143.92
2026-07-27 12:37:30.933,0.34,-0.99,-0.26,-38.27,-209.41,-143.92
2026-07-27 12:37:30.934,0.28,-1.29,-0.1,-124.51,-205.44,-137.5
2026-07-27 12:37:30.935,0.28,-1.29,-0.1,-124.51,-205.44,-137.5
2026-07-27 12:37:30.935,0.09,-1.48,-0.05,-169.98,-157.29,-154.4
2026-07-27 12:37:30.936,-0.13,-1.57,-0.0,-169.74,-90.21,-171.2
2026-07-27 12:37:30.936,-0.13,-1.57,-0.0,-169.74,-90.21,-171.2
2026-07-27 12:37:30.936,-0.27,-1.54,0.16,-117.86,-39.12,-178.89
2026-07-27 12:37:31.114,-0.27,-1.54,0.16,-117.86,-39.12,-178.89
2026-07-27 12:37:31.115,-0.29,-1.42,0.37,-31.56,-24.17,-164.73
2026-07-27 12:37:31.115,-0.29,-1.42,0.37,41.32,-26.98,-118.9
2026-07-27 12:37:31.115,-0.23,-1.39,0.49,41.32,-26.98,-118.9
2026-07-27 12:37:31.175,-0.28,-1.44,0.55,102.11,-8.67,-78.31
2026-07-27 12:37:31.176,-0.28,-1.44,0.55,102.11,-8.67,-78.31
2026-07-27 12:37:31.176,-0.42,-1.42,0.65,144.47,35.71,-56.34
2026-07-27 12:37:31.176,-0.42,-1.37,0.7,135.8,73.43,-18.98
2026-07-27 12:37:31.176,-0.42,-1.37,0.7,135.8,73.43,-18.98
2026-07-27 12:37:31.180,-0.18,-1.39,0.66,109.74,102.84,26.79
2026-07-27 12:37:31.247,-0.18,-1.39,0.66,109.74,102.84,26.79
2026-07-27 12:37:31.247,0.1,-1.5,0.52,106.26,151.18,51.39
2026-07-27 12:37:31.249,0.1,-1.5,0.52,129.39,210.88,57.01
2026-07-27 12:37:31.474,0.28,-1.55,0.37,129.39,210.88,57.01
2026-07-27 12:37:31.475,0.39,-1.42,0.35,165.59,228.09,70.31
2026-07-27 12:37:31.476,0.39,-1.42,0.35,165.59,228.09,70.31
2026-07-27 12:37:31.714,0.45,-1.31,0.31,187.74,140.69,141.91
2026-07-27 12:37:31.714,0.45,-1.31,0.31,187.74,140.69,141.91
2026-07-27 12:37:31.715,0.45,-1.27,0.18,186.1,49.56,203.0
2026-07-27 12:37:31.715,0.39,-1.12,0.16,171.81,82.95,143.68
2026-07-27 12:37:31.716,0.39,-1.12,0.16,171.81,82.95,143.68
2026-07-27 12:37:31.716,0.4,-0.86,0.24,162.11,135.5,20.08
2026-07-27 12:37:31.716,0.4,-0.86,0.24,162.11,135.5,20.08
2026-07-27 12:37:31.716,0.47,-0.63,0.27,174.62,86.24,-53.16
2026-07-27 12:37:31.717,0.6,-0.52,0.18,223.88,-42.48,-44.25
2026-07-27 12:37:31.717,0.6,-0.52,0.18,223.88,-42.48,-44.25
2026-07-27 12:37:31.718,0.75,-0.52,0.04,249.94,-148.93,-38.94
2026-07-27 12:37:31.719,0.75,-0.52,0.04,249.94,-148.93,-38.94
2026-07-27 12:37:31.719,0.84,-0.52,0.02,172.49,-150.94,-98.75
2026-07-27 12:37:31.720,0.81,-0.4,0.22,44.56,-102.6,-150.7
2026-07-27 12:37:31.720,0.81,-0.4,0.22,44.56,-102.6,-150.7
2026-07-27 12:37:31.721,0.69,-0.39,0.55,-41.14,-111.08,-125.12
2026-07-27 12:37:31.721,0.69,-0.39,0.55,-41.14,-111.08,-125.12
2026-07-27 12:37:31.722,0.59,-0.67,0.83,-77.33,-152.16,-58.9
2026-07-27 12:37:31.774,0.59,-0.67,0.83,-77.33,-152.16,-58.9
2026-07-27 12:37:31.775,0.57,-0.9,0.95,-85.51,-157.29,-5.49
2026-07-27 12:37:32.197,0.67,-0.79,0.9,-52.67,-158.81,34.67
2026-07-27 12:37:32.198,0.67,-0.79,0.9,-52.67,-158.81,34.67
2026-07-27 12:37:32.198,0.79,-0.48,0.81,-3.42,-181.52,64.51
2026-07-27 12:37:32.198,0.79,-0.48,0.81,-3.42,-181.52,64.51
2026-07-27 12:37:32.253,0.84,-0.25,0.78,-3.23,-186.89,64.33
2026-07-27 12:37:32.314,0.81,-0.19,0.79,-37.11,-166.14,33.2
2026-07-27 12:37:32.314,0.81,-0.19,0.79,-37.11,-166.14,33.2
2026-07-27 12:37:32.315,0.73,-0.29,0.82,-51.21,-141.42,-3.3
2026-07-27 12:37:32.315,0.73,-0.29,0.82,-51.21,-141.42,-3.3
2026-07-27 12:37:32.315,0.66,-0.4,0.89,-37.54,-122.56,-15.93
2026-07-27 12:37:32.315,0.66,-0.4,0.89,-37.54,-122.56,-15.93
2026-07-27 12:37:32.316,0.66,-0.4,0.89,-37.54,-122.56,-15.93
2026-07-27 12:37:32.316,0.66,-0.4,0.89,-37.54,-122.56,-15.93
2026-07-27 12:37:32.317,0.67,-0.39,0.96,12.57,-129.39,30.21
2026-07-27 12:37:32.317,0.79,-0.35,1.0,8.85,-144.41,43.21
2026-07-27 12:37:32.318,0.79,-0.35,1.0,8.85,-144.41,43.21
2026-07-27 12:37:32.318,0.9,-0.43,1.12,-29.3,-122.8,51.39
2026-07-27 12:37:32.320,0.9,-0.43,1.12,-29.3,-122.8,51.39
2026-07-27 12:37:32.320,0.81,-0.62,1.25,-87.04,-40.77,49.74
2026-07-27 12:37:32.320,0.81,-0.62,1.25,-87.04,-40.77,49.74
2026-07-27 12:37:32.320,0.66,-0.92,1.18,-162.41,79.9,23.44
2026-07-27 12:37:32.321,0.71,-1.22,0.76,-257.32,185.73,-36.93
2026-07-27 12:37:32.443,0.71,-1.22,0.76,-257.32,185.73,-36.93
2026-07-27 12:37:32.447,0.94,-1.27,0.41,-336.98,264.34,-102.05
2026-07-27 12:37:32.447,0.94,-1.27,0.41,-336.98,264.34,-102.05
2026-07-27 12:37:32.447,1.11,-1.05,0.36,-320.86,284.24,-74.46
2026-07-27 12:37:32.448,1.17,-0.79,0.34,-185.49,225.52,52.0
2026-07-27 12:37:32.448,1.17,-0.79,0.34,-185.49,225.52,52.0
2026-07-27 12:37:32.448,1.17,-0.64,0.27,-24.48,166.5,170.23
2026-07-27 12:37:32.737,1.17,-0.64,0.27,-24.48,166.5,170.23
2026-07-27 12:37:32.737,1.14,-0.54,0.21,58.47,161.87,224.43
2026-07-27 12:37:32.738,1.06,-0.41,0.16,51.03,185.61,225.28
2026-07-27 12:37:32.738,1.06,-0.41,0.16,51.03,185.61,225.28
2026-07-27 12:37:32.738,0.89,-0.32,0.14,12.02,189.33,207.7
2026-07-27 12:37:33.100,0.89,-0.32,0.14,12.02,189.33,207.7
2026-07-27 12:37:33.104,0.72,-0.31,0.18,-8.91,160.77,205.69
2026-07-27 12:37:33.104,0.72,-0.31,0.18,1.34,121.83,195.13
2026-07-27 12:37:33.397,0.63,-0.32,0.24,1.34,121.83,195.13
2026-07-27 12:37:33.404,0.68,-0.32,0.26,22.95,91.25,133.79
2026-07-27 12:37:33.405,0.68,-0.32,0.26,22.95,91.25,133.79
2026-07-27 12:37:33.405,0.82,-0.39,0.29,29.42,60.42,37.05
2026-07-27 12:37:33.405,0.82,-0.39,0.29,29.42,60.42,37.05
2026-07-27 12:37:33.405,0.81,-0.56,0.39,2.56,12.51,-54.57
2026-07-27 12:37:33.405,0.56,-0.87,0.4,-54.08,-39.43,-123.78
2026-07-27 12:37:33.405,0.56,-0.87,0.4,-54.08,-39.43,-123.78
2026-07-27 12:37:33.405,0.25,-1.23,0.28,-98.21,-55.36,-161.93
2026-07-27 12:37:33.406,0.25,-1.23,0.28,-98.21,-55.36,-161.93
2026-07-27 12:37:33.406,0.06,-1.38,0.2,-76.84,-63.11,-136.72
2026-07-27 12:37:33.406,0.06,-1.38,0.2,-76.84,-63.11,-136.72
2026-07-27 12:37:33.406,0.06,-1.38,0.2,-76.84,-63.11,-136.72
2026-07-27 12:37:33.406,0.06,-1.38,0.2,-76.84,-63.11,-136.72
2026-07-27 12:37:33.406,0.32,-1.01,0.37,59.33,-244.93,27.83
2026-07-27 12:37:33.406,0.35,-0.95,0.38,38.27,-282.47,45.17
2026-07-27 12:37:33.406,0.35,-0.95,0.38,38.27,-282.47,45.17
2026-07-27 12:37:33.406,0.15,-0.99,0.34,-19.65,-239.75,11.9
2026-07-27 12:37:33.406,0.15,-0.99,0.34,-19.65,-239.75,11.9
2026-07-27 12:37:33.406,-0.07,-1.04,0.3,-42.72,-159.73,-40.34
2026-07-27 12:37:33.406,-0.07,-1.04,0.3,8.61,-90.21,-94.79
2026-07-27 12:37:33.407,-0.15,-1.07,0.36,8.61,-90.21,-94.79
2026-07-27 12:37:33.407,-0.07,-0.98,0.66,138.61,-55.91,-154.11
2026-07-27 12:37:33.407,-0.07,-0.98,0.66,138.61,-55.91,-154.11
2026-07-27 12:37:33.407,0.03,-0.9,1.06,222.96,-52.73,-177.06
2026-07-27 12:37:33.409,0.12,-0.97,1.35,135.8,-58.41,-112.92
2026-07-27 12:37:33.410,0.12,-0.97,1.35,135.8,-58.41,-112.92
2026-07-27 12:37:33.410,0.24,-1.03,1.49,5.19,-47.49,-6.1
2026-07-27 12:37:33.410,0.24,-1.03,1.49,5.19,-47.49,-6.1
2026-07-27 12:37:33.411,0.35,-0.87,1.51,-18.25,-18.19,53.59
2026-07-27 12:37:33.411,0.35,-0.87,1.51,-18.25,-18.19,53.59
2026-07-27 12:37:33.411,0.51,-0.61,1.39,44.13,18.8,49.93
2026-07-27 12:37:33.412,0.51,-0.61,1.39,99.37,74.28,16.78
2026-07-27 12:37:33.412,0.78,-0.48,1.12,99.37,74.28,16.78
2026-07-27 12:37:33.412,0.98,-0.5,0.82,77.64,155.46,-19.35
2026-07-27 12:37:33.454,0.98,-0.5,0.82,77.64,155.46,-19.35
2026-07-27 12:37:33.454,0.93,-0.58,0.69,-3.85,239.38,-41.26
2026-07-27 12:37:33.520,0.93,-0.58,0.69,-3.85,239.38,-41.26
2026-07-27 12:37:33.521,0.71,-0.64,0.72,-72.02,280.4,-51.76
2026-07-27 12:37:33.574,0.54,-0.62,0.75,-75.01,259.09,-47.67
2026-07-27 12:37:33.634,0.54,-0.62,0.75,-75.01,259.09,-47.67
2026-07-27 12:37:33.694,0.53,-0.54,0.71,-32.78,205.63,-18.86
2026-07-27 12:37:33.694,0.53,-0.54,0.71,-32.78,205.63,-18.86
2026-07-27 12:37:33.694,0.61,-0.46,0.62,7.32,155.21,18.49
2026-07-27 12:37:33.697,0.68,-0.4,0.52,28.56,125.18,38.45
2026-07-27 12:37:33.697,0.68,-0.4,0.52,28.56,125.18,38.45
2026-07-27 12:37:33.697,0.67,-0.34,0.42,39.49,107.18,36.19
2026-07-27 12:37:33.763,0.67,-0.34,0.42,39.49,107.18,36.19
2026-07-27 12:37:33.763,0.61,-0.31,0.31,39.18,78.74,26.12
2026-07-27 12:37:33.933,0.61,-0.31,0.31,21.55,30.64,23.13
2026-07-27 12:37:33.935,0.57,-0.36,0.13,21.55,30.64,23.13
2026-07-27 12:37:34.122,0.74,-0.48,-0.06,-1.71,-18.68,35.22
2026-07-27 12:37:34.123,0.74,-0.48,-0.06,-1.71,-18.68,35.22
2026-07-27 12:37:34.123,0.92,-0.74,-0.02,-42.18,-37.48,57.37
2026-07-27 12:37:34.233,0.92,-0.74,-0.02,-42.18,-37.48,57.37
2026-07-27 12:37:34.234,0.74,-1.1,0.33,-111.76,-58.65,53.22
2026-07-27 12:37:34.306,0.32,-1.46,0.62,-165.34,-114.32,-3.36
2026-07-27 12:37:34.306,0.32,-1.46,0.62,-165.34,-114.32,-3.36
2026-07-27 12:37:34.307,-0.12,-1.7,0.74,-178.1,-124.27,-64.21
2026-07-27 12:37:34.417,-0.12,-1.7,0.74,-178.1,-124.27,-64.21
2026-07-27 12:37:34.418,-0.29,-1.57,0.79,-148.99,-118.9,-59.51
2026-07-27 12:37:34.419,-0.29,-1.57,0.79,-148.99,-118.9,-59.51
2026-07-27 12:37:34.419,-0.29,-1.57,0.79,-148.99,-118.9,-59.51
2026-07-27 12:37:34.419,-0.29,-1.57,0.79,-148.99,-118.9,-59.51
2026-07-27 12:37:34.420,0.26,-0.66,0.79,1.95,-275.57,51.94
2026-07-27 12:37:34.423,0.4,-0.48,0.74,23.86,-243.35,42.11
2026-07-27 12:37:34.424,0.4,-0.48,0.74,23.86,-243.35,42.11
2026-07-27 12:37:34.424,0.36,-0.53,0.66,18.68,-163.09,-7.93
2026-07-27 12:37:34.424,0.36,-0.53,0.66,18.68,-163.09,-7.93
2026-07-27 12:37:34.424,0.21,-0.65,0.6,33.26,-121.58,-45.17
2026-07-27 12:37:34.424,0.21,-0.65,0.6,86.18,-145.51,-17.82
2026-07-27 12:37:34.425,0.12,-0.69,0.66,86.18,-145.51,-17.82
2026-07-27 12:37:34.425,0.15,-0.6,0.89,102.17,-154.48,56.52
2026-07-27 12:37:34.425,0.15,-0.6,0.89,102.17,-154.48,56.52
2026-07-27 12:37:34.426,0.18,-0.5,1.17,23.38,-104.98,88.01
2026-07-27 12:37:34.426,0.18,-0.5,1.17,23.38,-104.98,88.01
2026-07-27 12:37:34.426,0.25,-0.53,1.35,-54.63,-81.91,56.09
2026-07-27 12:37:34.426,0.31,-0.67,1.46,-52.8,-96.13,14.16
2026-07-27 12:37:34.426,0.31,-0.67,1.46,-52.8,-96.13,14.16
2026-07-27 12:37:34.481,0.26,-0.77,1.57,-16.72,-54.93,-20.57
2026-07-27 12:37:34.482,0.26,-0.77,1.57,-16.72,-54.93,-20.57
2026-07-27 12:37:34.482,0.24,-0.82,1.59,18.62,46.2,-43.21
2026-07-27 12:37:34.595,0.36,-0.93,1.49,53.47,162.17,-55.24
2026-07-27 12:37:34.595,0.36,-0.93,1.49,53.47,162.17,-55.24
2026-07-27 12:37:34.599,0.49,-1.11,1.34,74.34,270.63,-68.91
2026-07-27 12:37:34.599,0.49,-1.11,1.34,74.34,270.63,-68.91
2026-07-27 12:37:34.599,0.58,-1.22,1.16,83.98,330.32,-71.9
2026-07-27 12:37:34.960,0.58,-1.22,1.16,83.98,330.32,-71.9
2026-07-27 12:37:34.961,0.62,-1.16,0.99,104.19,325.13,-55.18
2026-07-27 12:37:34.961,0.61,-1.01,0.82,126.16,290.04,-35.58
2026-07-27 12:37:34.963,0.61,-1.01,0.82,126.16,290.04,-35.58
2026-07-27 12:37:35.207,0.6,-0.84,0.7,121.4,265.2,-23.07
2026-07-27 12:37:35.208,0.6,-0.84,0.7,121.4,265.2,-23.07
2026-07-27 12:37:35.208,0.63,-0.66,0.62,99.49,244.51,-13.18
2026-07-27 12:37:35.208,0.69,-0.52,0.5,82.34,197.69,-5.92
2026-07-27 12:37:35.208,0.69,-0.52,0.5,82.34,197.69,-5.92
2026-07-27 12:37:35.314,0.7,-0.43,0.42,62.5,132.26,-8.0
2026-07-27 12:37:35.374,0.7,-0.43,0.42,62.5,132.26,-8.0
2026-07-27 12:37:35.375,0.66,-0.37,0.38,43.46,73.3,-23.62
2026-07-27 12:37:35.375,0.66,-0.37,0.38,35.83,28.26,-47.55
2026-07-27 12:37:35.375,0.68,-0.37,0.32,35.83,28.26,-47.55
2026-07-27 12:37:35.376,0.76,-0.42,0.28,20.63,-3.11,-67.14
2026-07-27 12:37:35.378,0.76,-0.42,0.28,20.63,-3.11,-67.14
2026-07-27 12:37:35.493,0.7,-0.54,0.36,-11.05,-43.76,-78.31
2026-07-27 12:37:35.494,0.7,-0.54,0.36,-11.05,-43.76,-78.31
2026-07-27 12:37:35.494,0.42,-0.86,0.53,-54.08,-88.99,-100.22
2026-07-27 12:37:35.494,0.16,-1.21,0.7,-88.26,-109.01,-122.99
2026-07-27 12:37:35.497,0.16,-1.21,0.7,-88.26,-109.01,-122.99
2026-07-27 12:37:35.497,0.15,-1.2,0.79,-76.29,-122.8,-97.72
2026-07-27 12:37:35.497,0.15,-1.2,0.79,-76.29,-122.8,-97.72
2026-07-27 12:37:35.498,0.29,-0.89,0.79,-35.34,-143.07,-32.71
2026-07-27 12:37:35.499,0.41,-0.64,0.78,-20.08,-159.73,8.18
2026-07-27 12:37:35.499,0.41,-0.64,0.78,-20.08,-159.73,8.18
2026-07-27 12:37:35.499,0.44,-0.64,0.81,-39.18,-167.6,-13.0
2026-07-27 12:37:35.500,0.44,-0.64,0.81,-39.18,-167.6,-13.0
2026-07-27 12:37:35.502,0.38,-0.86,0.85,-73.0,-154.05,-82.09
2026-07-27 12:37:35.502,0.21,-1.17,0.94,-106.45,-126.22,-153.75
2026-07-27 12:37:35.502,0.21,-1.17,0.94,-106.45,-126.22,-153.75
2026-07-27 12:37:35.503,-0.02,-1.34,1.08,-117.68,-116.82,-184.5
2026-07-27 12:37:35.503,-0.02,-1.34,1.08,-117.68,-116.82,-184.5
2026-07-27 12:37:35.507,-0.23,-1.32,1.24,-103.7,-119.93,-166.0
2026-07-27 12:37:35.507,-0.37,-1.26,1.36,-83.13,-91.19,-125.61
2026-07-27 12:37:35.507,-0.37,-1.26,1.36,-83.13,-91.19,-125.61
2026-07-27 12:37:35.507,-0.29,-1.29,1.37,-67.44,-13.37,-81.85
2026-07-27 12:37:35.508,-0.29,-1.29,1.37,-67.44,-13.37,-81.85
2026-07-27 12:37:35.508,-0.01,-1.36,1.24,-54.32,77.33,-32.04
2026-07-27 12:37:36.161,-0.01,-1.36,1.24,-42.42,136.96,22.71
2026-07-27 12:37:36.161,0.25,-1.32,1.1,-42.42,136.96,22.71
2026-07-27 12:37:36.274,0.49,-1.17,1.04,-38.51,167.24,71.78
2026-07-27 12:37:36.334,0.49,-1.17,1.04,-38.51,167.24,71.78
2026-07-27 12:37:36.335,0.68,-1.02,1.04,-42.79,185.18,101.2
2026-07-27 12:37:36.335,0.68,-1.02,1.04,-42.79,185.18,101.2
2026-07-27 12:37:36.336,0.78,-0.9,1.05,-47.49,189.45,110.53
2026-07-27 12:37:36.337,0.77,-0.82,1.05,-49.68,184.33,114.62
2026-07-27 12:37:36.337,0.77,-0.82,1.05,-49.68,184.33,114.62
2026-07-27 12:37:36.337,0.74,-0.78,1.01,-49.56,181.27,119.57
2026-07-27 12:37:36.338,0.74,-0.78,1.01,-49.56,181.27,119.57
2026-07-27 12:37:36.338,0.73,-0.73,0.97,-45.59,178.77,125.0
2026-07-27 12:37:36.346,0.73,-0.73,0.97,-39.25,176.09,126.83
2026-07-27 12:37:36.346,0.74,-0.65,0.93,-39.25,176.09,126.83
2026-07-27 12:37:36.346,0.69,-0.56,0.87,-33.51,177.12,119.63
2026-07-27 12:37:36.347,0.69,-0.56,0.87,-33.51,177.12,119.63
2026-07-27 12:37:36.469,0.65,-0.47,0.73,-21.3,176.45,107.24
2026-07-27 12:37:36.469,0.65,-0.47,0.73,-21.3,176.45,107.24
2026-07-27 12:37:37.414,0.67,-0.32,0.45,-4.03,172.24,90.33
2026-07-27 12:37:37.415,0.8,-0.13,-0.01,5.55,155.58,61.46
2026-07-27 12:37:37.415,0.8,-0.13,-0.01,5.55,155.58,61.46
2026-07-27 12:37:37.415,0.96,-0.1,-0.32,10.56,89.6,12.27
2026-07-27 12:37:37.416,0.96,-0.1,-0.32,10.56,89.6,12.27
2026-07-27 12:37:37.416,0.96,-0.47,-0.18,6.65,-25.94,-58.84
2026-07-27 12:37:37.416,0.96,-0.47,-0.18,6.65,-25.94,-58.84
2026-07-27 12:37:37.417,0.84,-0.99,0.12,-6.41,-145.02,-127.93
2026-07-27 12:37:37.418,0.77,-1.36,0.29,-16.36,-232.73,-165.71
2026-07-27 12:37:37.480,0.77,-1.36,0.29,-16.36,-232.73,-165.71
2026-07-27 12:37:37.480,0.66,-1.56,0.34,-9.09,-257.26,-157.04
2026-07-27 12:37:37.480,0.66,-1.56,0.34,-9.09,-257.26,-157.04
2026-07-27 12:37:37.480,0.5,-1.53,0.42,32.59,-236.39,-97.66
2026-07-27 12:37:37.480,0.5,-1.53,0.42,107.54,-241.03,-19.29
2026-07-27 12:37:37.480,0.41,-1.27,0.62,107.54,-241.03,-19.29
2026-07-27 12:37:37.480,0.48,-0.87,0.81,210.02,-289.79,32.04
2026-07-27 12:37:37.480,0.48,-0.87,0.81,210.02,-289.79,32.04
2026-07-27 12:37:37.480,0.68,-0.47,0.91,255.19,-317.99,49.01
2026-07-27 12:37:37.481,0.68,-0.47,0.91,255.19,-317.99,49.01
2026-07-27 12:37:37.481,0.79,-0.31,0.98,159.79,-262.45,39.31
2026-07-27 12:37:37.481,0.71,-0.44,1.12,1.53,-170.1,5.98
2026-07-27 12:37:37.481,0.71,-0.44,1.12,1.53,-170.1,5.98
2026-07-27 12:37:37.481,0.53,-0.61,1.24,-86.91,-129.33,-28.56
2026-07-27 12:37:37.494,0.53,-0.61,1.24,-86.91,-129.33,-28.56
2026-07-27 12:37:37.533,0.39,-0.6,1.29,-73.61,-140.2,-37.11
2026-07-27 12:37:37.534,0.35,-0.53,1.36,-34.61,-156.68,-31.98
2026-07-27 12:37:37.535,0.35,-0.53,1.36,-34.61,-156.68,-31.98
2026-07-27 12:37:37.535,0.24,-0.6,1.57,-36.5,-143.07,-48.16
2026-07-27 12:37:37.545,0.24,-0.6,1.57,-36.5,-143.07,-48.16
2026-07-27 12:37:37.546,-0.03,-0.86,1.72,-67.93,-75.68,-79.59
2026-07-27 12:37:37.546,-0.03,-0.86,1.72,-67.93,-75.68,-79.59
2026-07-27 12:37:37.546,-0.15,-1.22,1.58,-88.62,41.2,-78.43
2026-07-27 12:37:37.546,0.13,-1.44,1.22,-76.35,156.25,-1.95
2026-07-27 12:37:37.546,0.13,-1.44,1.22,-76.35,156.25,-1.95
2026-07-27 12:37:37.547,0.49,-1.53,0.92,-46.08,230.59,131.77
2026-07-27 12:37:37.547,0.49,-1.53,0.92,-46.08,230.59,131.77
2026-07-27 12:37:37.547,0.68,-1.53,0.85,-17.46,282.29,239.87
2026-07-27 12:37:37.547,0.68,-1.53,0.85,-17.46,282.29,239.87
2026-07-27 12:37:37.548,0.73,-1.44,0.88,11.11,327.88,245.48
2026-07-27 12:37:37.548,0.68,-1.33,0.86,27.59,355.41,168.03
2026-07-27 12:37:37.548,0.68,-1.33,0.86,27.59,355.41,168.03
2026-07-27 12:37:37.774,0.66,-1.18,0.8,35.71,348.27,95.28
2026-07-27 12:37:37.774,0.66,-1.18,0.8,35.71,348.27,95.28
2026-07-27 12:37:37.775,0.64,-0.97,0.68,45.72,310.0,64.7
2026-07-27 12:37:37.776,0.64,-0.97,0.68,45.72,310.0,64.7
2026-07-27 12:37:37.776,0.58,-0.74,0.52,45.29,258.42,57.8
2026-07-27 12:37:37.895,0.53,-0.52,0.36,29.42,208.68,54.63
2026-07-27 12:37:37.895,0.53,-0.52,0.36,29.42,208.68,54.63
2026-07-27 12:37:37.898,0.52,-0.35,0.22,17.58,158.45,48.83
2026-07-27 12:37:37.899,0.52,-0.35,0.22,17.58,158.45,48.83
2026-07-27 12:37:38.140,0.52,-0.28,0.15,18.68,92.53,38.94
2026-07-27 12:37:38.140,0.52,-0.28,0.15,18.68,92.53,38.94
2026-07-27 12:37:38.140,0.54,-0.29,0.19,16.66,9.34,23.74
2026-07-27 12:37:38.140,0.63,-0.42,0.33,-1.34,-72.02,-0.61
2026-07-27 12:37:38.141,0.63,-0.42,0.33,-1.34,-72.02,-0.61
2026-07-27 12:37:38.141,0.73,-0.68,0.5,-32.17,-142.76,-36.25
2026-07-27 12:37:38.141,0.73,-0.68,0.5,-32.17,-142.76,-36.25
2026-07-27 12:37:38.141,0.72,-1.04,0.69,-59.75,-206.54,-81.3
2026-07-27 12:37:38.141,0.61,-1.44,0.86,-68.54,-260.93,-122.68
2026-07-27 12:37:38.196,0.61,-1.44,0.86,-68.54,-260.93,-122.68
2026-07-27 12:37:38.196,0.5,-1.55,0.97,-45.9,-303.04,-130.55
2026-07-27 12:37:38.203,0.5,-1.55,0.97,-45.9,-303.04,-130.55
2026-07-27 12:37:38.319,0.32,-0.73,1.02,49.13,-342.71,-4.15
2026-07-27 12:37:38.914,0.32,-0.73,1.02,49.13,-342.71,-4.15
2026-07-27 12:37:38.914,0.38,-0.65,1.0,30.33,-279.11,-9.34
2026-07-27 12:37:38.914,0.38,-0.65,1.0,30.33,-279.11,-9.34
2026-07-27 12:37:38.915,0.45,-0.68,1.0,-1.04,-192.5,-33.33
2026-07-27 12:37:38.915,0.4,-0.72,1.06,-7.32,-129.64,-54.44
2026-07-27 12:37:38.916,0.4,-0.72,1.06,-7.32,-129.64,-54.44
2026-07-27 12:37:40.055,0.17,-0.7,1.13,41.02,-105.9,-54.32
2026-07-27 12:37:40.056,0.17,-0.7,1.13,41.02,-105.9,-54.32
2026-07-27 12:37:40.233,-0.05,-0.68,1.19,99.85,-99.67,-34.79
2026-07-27 12:37:40.234,-0.05,-0.68,1.19,93.08,-81.05,-23.5
2026-07-27 12:37:41.202,-0.1,-0.73,1.34,93.08,-81.05,-23.5
2026-07-27 12:37:41.203,-0.13,-0.81,1.52,25.94,-25.63,-36.56
2026-07-27 12:37:41.203,-0.13,-0.81,1.52,25.94,-25.63,-36.56
2026-07-27 12:37:41.203,-0.18,-0.9,1.56,-20.94,57.68,-48.4
2026-07-27 12:37:41.204,-0.18,-0.9,1.56,-20.94,57.68,-48.4
2026-07-27 12:37:41.204,-0.03,-1.0,1.43,-7.63,140.93,-26.92
2026-07-27 12:37:41.204,0.31,-1.08,1.29,22.03,213.56,15.69
2026-07-27 12:37:41.206,0.31,-1.08,1.29,22.03,213.56,15.69
2026-07-27 12:37:41.206,0.66,-1.12,1.25,23.99,271.91,46.57
2026-07-27 12:37:41.207,0.66,-1.12,1.25,23.99,271.91,46.57
2026-07-27 12:37:41.208,0.86,-1.11,1.22,9.34,302.86,58.04
2026-07-27 12:37:41.208,0.86,-1.11,1.22,9.34,302.86,58.04
2026-07-27 12:37:41.216,0.86,-1.03,1.1,-1.34,306.15,56.58
2026-07-27 12:37:41.216,0.73,-0.92,0.96,-10.56,294.92,49.99
2026-07-27 12:37:41.217,0.73,-0.92,0.96,-10.56,294.92,49.99
2026-07-27 12:37:41.217,0.59,-0.78,0.8,-15.2,272.34,49.87
2026-07-27 12:37:41.217,0.59,-0.78,0.8,-15.2,272.34,49.87
2026-07-27 12:37:41.218,0.53,-0.62,0.63,-8.67,243.47,56.4
2026-07-27 12:37:41.219,0.53,-0.62,0.63,-8.67,243.47,56.4
2026-07-27 12:37:41.219,0.55,-0.44,0.44,4.09,216.98,60.61
2026-07-27 12:37:41.219,0.59,-0.31,0.28,13.55,179.2,55.97
2026-07-27 12:37:41.219,0.59,-0.31,0.28,13.55,179.2,55.97
2026-07-27 12:37:41.219,0.55,-0.27,0.25,7.81,118.41,37.41
2026-07-27 12:37:41.220,0.55,-0.27,0.25,7.81,118.41,37.41
2026-07-27 12:37:41.220,0.52,-0.3,0.34,-4.76,47.12,11.6
2026-07-27 12:37:41.220,0.52,-0.3,0.34,-4.76,47.12,11.6
2026-07-27 12:37:41.220,0.62,-0.43,0.41,3.23,-33.39,2.32
2026-07-27 12:37:41.221,0.76,-0.56,0.46,34.18,-146.61,22.34
2026-07-27 12:37:41.221,0.76,-0.56,0.46,34.18,-146.61,22.34
2026-07-27 12:37:41.221,0.81,-0.77,0.71,27.34,-272.89,36.99
2026-07-27 12:37:41.221,0.81,-0.77,0.71,27.34,-272.89,36.99
2026-07-27 12:37:41.223,0.72,-1.15,1.15,-49.62,-340.58,-0.43
2026-07-27 12:37:41.223,0.72,-1.15,1.15,-49.62,-340.58,-0.43
2026-07-27 12:37:41.223,0.51,-1.42,1.44,-120.73,-330.99,-61.34
2026-07-27 12:37:41.223,0.51,-1.42,1.44,-113.53,-318.6,-61.83
2026-07-27 12:37:41.223,0.31,-1.27,1.51,-113.53,-318.6,-61.83
2026-07-27 12:37:41.224,0.21,-0.84,1.46,-48.34,-340.52,8.06
2026-07-27 12:37:41.224,0.21,-0.84,1.46,-48.34,-340.52,8.06
2026-07-27 12:37:41.554,0.19,-0.47,1.38,0.24,-324.34,63.23
2026-07-27 12:37:41.554,0.19,-0.47,1.38,0.24,-324.34,63.23
2026-07-27 12:37:41.616,0.21,-0.36,1.23,0.24,-224.49,45.59
2026-07-27 12:37:41.616,0.21,-0.36,1.23,-18.55,-98.63,-16.42
2026-07-27 12:37:41.973,0.21,-0.49,1.06,-18.55,-98.63,-16.42
2026-07-27 12:37:41.974,0.11,-0.66,0.9,-20.63,-28.81,-58.17
2026-07-27 12:37:41.974,0.11,-0.66,0.9,-20.63,-28.81,-58.17
2026-07-27 12:37:42.000,-0.01,-0.69,0.85,0.24,-44.98,-42.36
2026-07-27 12:37:42.007,-0.01,-0.69,0.85,0.24,-44.98,-42.36
2026-07-27 12:37:42.008,-0.04,-0.61,0.98,17.64,-107.79,7.02
2026-07-27 12:37:42.095,-0.04,-0.61,0.98,17.64,-107.79,7.02
2026-07-27 12:37:42.095,-0.04,-0.57,1.23,5.98,-149.66,42.05
2026-07-27 12:37:42.096,-0.07,-0.72,1.5,-43.15,-138.49,57.07
2026-07-27 12:37:42.096,-0.07,-0.72,1.5,-43.15,-138.49,57.07
2026-07-27 12:37:42.348,0.16,-1.36,1.26,36.32,148.38,100.77
2026-07-27 12:37:42.349,0.24,-1.55,0.96,71.04,249.45,95.28
2026-07-27 12:37:42.349,0.24,-1.55,0.96,71.04,249.45,95.28
2026-07-27 12:37:42.350,0.31,-1.61,0.74,50.66,297.61,95.15
2026-07-27 12:37:42.350,0.31,-1.61,0.74,50.66,297.61,95.15
2026-07-27 12:37:42.350,0.42,-1.5,0.43,38.64,285.34,91.98
2026-07-27 12:37:42.461,0.12,-0.21,0.96,0.12,-17.7,20.2
2026-07-27 12:37:42.753,-0.25,-0.18,0.42,88.5,107.3,257.39
2026-07-27 12:37:42.754,-0.35,-0.07,0.52,58.59,67.2,224.55
2026-07-27 12:37:42.754,0.23,-0.31,1.1,-135.44,89.05,-149.9
2026-07-27 12:37:42.755,0.37,-0.14,0.61,-170.41,183.41,-149.48
2026-07-27 12:37:42.755,0.37,-0.14,0.61,-170.41,183.41,-149.48
