Timestamp,AccX,AccY,AccZ,GyroX,GyroY,GyroZ
2026-07-27 13:55:24.378,0.03,-0.68,-0.27,-66.35,-58.04,-2.01
2026-07-27 13:55:24.391,-0.02,-0.56,-0.18,-72.39,-61.52,22.71
2026-07-27 13:55:24.419,-0.02,-0.56,-0.18,-72.39,-61.52,22.71
2026-07-27 13:55:24.446,-0.18,-0.48,-0.08,-69.58,-65.06,46.63
2026-07-27 13:55:24.460,-0.18,-0.48,-0.08,-69.58,-65.06,46.63
2026-07-27 13:55:24.489,-0.34,-0.44,0.06,-58.47,-74.95,57.13
2026-07-27 13:55:24.529,-0.41,-0.44,0.15,-14.95,-69.03,58.65
2026-07-27 13:55:24.529,-0.41,-0.44,0.15,-14.95,-69.03,58.65
2026-07-27 13:55:24.557,-0.39,-0.42,0.21,44.86,-45.59,66.65
2026-07-27 13:55:24.584,-0.34,-0.39,0.45,62.01,-35.1,78.37
2026-07-27 13:55:24.625,-0.34,-0.39,0.45,62.01,-35.1,78.37
2026-07-27 13:55:24.639,-0.3,-0.37,0.9,23.44,-44.68,91.37
2026-07-27 13:55:24.653,-0.3,-0.37,0.9,23.44,-44.68,91.37
2026-07-27 13:55:24.680,-0.32,-0.35,1.09,-27.1,-34.42,126.83
2026-07-27 13:55:24.710,-0.44,-0.17,0.5,-60.73,16.3,205.99
2026-07-27 13:55:24.736,-0.44,-0.17,0.5,-60.73,16.3,205.99
2026-07-27 13:55:24.763,-0.61,0.37,-0.65,-77.64,62.07,313.17
2026-07-27 13:55:24.807,-0.42,1.18,-1.65,-99.61,27.34,341.06
2026-07-27 13:55:24.807,-0.42,1.18,-1.65,-99.61,27.34,341.06
2026-07-27 13:55:24.847,0.89,1.7,-1.83,-116.15,-121.15,139.1
2026-07-27 13:55:24.847,0.89,1.7,-1.83,-116.15,-121.15,139.1
2026-07-27 13:55:24.872,2.93,1.54,-0.9,-34.48,-336.55,-240.48
2026-07-27 13:55:24.941,4.0,1.11,1.22,240.23,-585.82,-524.05
2026-07-27 13:55:24.942,4.0,1.11,1.22,240.23,-585.82,-524.05
2026-07-27 13:55:24.955,3.95,0.73,3.5,581.48,-870.85,-533.2
2026-07-27 13:55:24.983,1.88,0.13,4.0,596.68,-915.34,-289.06
2026-07-27 13:55:25.003,1.88,0.13,4.0,596.68,-915.34,-289.06
2026-07-27 13:55:25.039,0.28,-0.21,3.26,268.01,-455.08,-3.66
2026-07-27 13:55:25.065,0.52,-0.18,1.22,3.42,100.95,105.65
2026-07-27 13:55:25.078,0.52,-0.18,1.22,3.42,100.95,105.65
2026-07-27 13:55:25.106,0.95,-0.27,-0.07,-52.12,243.9,70.68
2026-07-27 13:55:25.136,0.95,-0.27,-0.07,12.45,33.87,21.36
2026-07-27 13:55:25.161,0.91,-0.32,0.16,12.45,33.87,21.36
2026-07-27 13:55:25.206,0.74,-0.09,1.18,90.45,-205.99,7.87
2026-07-27 13:55:25.206,0.74,-0.09,1.18,90.45,-205.99,7.87
2026-07-27 13:55:25.232,0.67,0.28,1.91,111.63,-282.53,20.63
2026-07-27 13:55:25.257,0.75,0.49,1.91,93.69,-196.23,34.79
2026-07-27 13:55:25.287,0.75,0.49,1.91,93.69,-196.23,34.79
2026-07-27 13:55:25.313,0.87,0.52,1.37,68.3,-30.15,23.62
2026-07-27 13:55:25.328,0.87,0.52,1.37,68.3,-30.15,23.62
2026-07-27 13:55:25.368,0.96,0.44,0.86,34.85,105.22,-17.03
2026-07-27 13:55:25.397,1.04,0.28,0.7,-3.36,157.84,-64.64
2026-07-27 13:55:25.397,1.04,0.28,0.7,-3.36,157.84,-64.64
2026-07-27 13:55:25.424,1.02,0.15,0.75,-36.44,170.17,-87.1
2026-07-27 13:55:25.450,0.93,0.16,0.85,-59.81,186.77,-69.64
2026-07-27 13:55:25.483,0.93,0.16,0.85,-59.81,186.77,-69.64
2026-07-27 13:55:25.505,0.78,0.28,0.92,-57.37,206.79,-33.94
2026-07-27 13:55:25.519,0.78,0.28,0.92,-57.37,206.79,-33.94
2026-07-27 13:55:25.559,0.57,0.47,0.98,-39.37,213.75,-8.06
2026-07-27 13:55:25.578,0.34,0.63,1.05,-49.44,197.94,-17.88
2026-07-27 13:55:25.634,0.34,0.63,1.05,-49.44,197.94,-17.88
2026-07-27 13:55:25.635,0.17,0.59,1.11,-73.97,171.45,-73.97
2026-07-27 13:55:25.722,0.08,0.37,1.13,-83.13,165.77,-141.3
2026-07-27 13:55:25.723,0.08,0.37,1.13,-83.13,165.77,-141.3
2026-07-27 13:55:25.723,-0.0,0.21,1.19,-77.88,179.32,-167.18
2026-07-27 13:55:25.724,-0.0,0.21,1.19,-77.88,179.32,-167.18
2026-07-27 13:55:25.768,-0.14,0.23,1.31,-83.74,172.49,-145.2
2026-07-27 13:55:25.768,-0.25,0.33,1.4,-106.57,141.6,-113.4
2026-07-27 13:55:25.809,-0.25,0.33,1.4,-106.57,141.6,-113.4
2026-07-27 13:55:25.853,-0.28,0.45,1.38,-113.1,116.15,-102.91
2026-07-27 13:55:25.854,-0.28,0.45,1.38,-104.74,103.03,-115.42
2026-07-27 13:55:25.897,-0.24,0.53,1.13,-104.74,103.03,-115.42
2026-07-27 13:55:25.897,-0.17,0.5,0.7,-80.93,95.4,-133.36
2026-07-27 13:55:25.941,-0.17,0.5,0.7,-80.93,95.4,-133.36
2026-07-27 13:55:25.941,-0.09,0.34,0.37,-31.07,76.6,-141.85
2026-07-27 13:55:25.985,-0.05,0.11,0.21,25.27,41.75,-129.39
2026-07-27 13:55:25.985,-0.05,0.11,0.21,25.27,41.75,-129.39
2026-07-27 13:55:26.028,-0.06,-0.09,0.17,27.95,13.92,-106.75
2026-07-27 13:55:26.028,-0.06,-0.09,0.17,27.95,13.92,-106.75
2026-07-27 13:55:26.079,-0.05,-0.24,0.2,-28.63,8.67,-90.09
2026-07-27 13:55:26.117,-0.05,-0.32,0.19,-73.36,25.33,-73.61
2026-07-27 13:55:26.117,-0.05,-0.32,0.19,-73.36,25.33,-73.61
2026-07-27 13:55:26.164,-0.09,-0.41,0.17,-80.26,45.23,-57.31
2026-07-27 13:55:26.164,-0.09,-0.41,0.17,-80.26,45.23,-57.31
2026-07-27 13:55:26.203,-0.14,-0.53,0.17,-73.91,44.31,-47.55
2026-07-27 13:55:26.203,-0.18,-0.68,0.21,-65.98,26.86,-41.75
2026-07-27 13:55:26.254,-0.18,-0.68,0.21,-65.98,26.86,-41.75
2026-07-27 13:55:26.254,-0.19,-0.81,0.27,-52.61,10.19,-33.39
2026-07-27 13:55:26.291,-0.19,-0.81,0.27,-34.42,-1.83,-24.05
2026-07-27 13:55:26.291,-0.22,-0.85,0.33,-34.42,-1.83,-24.05
2026-07-27 13:55:26.340,-0.25,-0.82,0.37,-16.11,-10.99,-18.43
2026-07-27 13:55:26.378,-0.25,-0.82,0.37,-16.11,-10.99,-18.43
2026-07-27 13:55:26.378,-0.26,-0.79,0.45,-7.75,-20.51,-16.66
2026-07-27 13:55:26.423,-0.26,-0.8,0.55,-10.74,-27.16,-14.16
2026-07-27 13:55:26.423,-0.26,-0.8,0.55,-10.74,-27.16,-14.16
2026-07-27 13:55:26.466,-0.28,-0.82,0.59,-13.18,-22.28,-6.53
2026-07-27 13:55:26.466,-0.28,-0.82,0.59,-13.18,-22.28,-6.53
2026-07-27 13:55:26.515,-0.28,-0.81,0.62,-15.38,-17.58,2.87
2026-07-27 13:55:26.553,-0.27,-0.75,0.63,-20.69,-17.15,12.33
2026-07-27 13:55:26.554,-0.27,-0.75,0.63,-20.69,-17.15,12.33
2026-07-27 13:55:26.597,-0.29,-0.7,0.56,-17.82,-1.53,19.41
2026-07-27 13:55:26.597,-0.29,-0.7,0.56,-17.82,-1.53,19.41
2026-07-27 13:55:26.641,-0.29,-0.65,0.42,-11.29,29.11,21.91
2026-07-27 13:55:26.641,-0.23,-0.6,0.32,-20.39,52.49,22.28
2026-07-27 13:55:26.686,-0.23,-0.6,0.32,-20.39,52.49,22.28
2026-07-27 13:55:26.686,-0.15,-0.53,0.25,-39.49,65.67,21.42
2026-07-27 13:55:26.735,-0.15,-0.53,0.25,-39.49,65.67,21.42
2026-07-27 13:55:26.735,-0.05,-0.46,0.15,-51.03,87.4,23.5
2026-07-27 13:55:26.773,0.09,-0.35,-0.07,-53.83,123.47,39.49
2026-07-27 13:55:26.773,0.09,-0.35,-0.07,-53.83,123.47,39.49
2026-07-27 13:55:26.816,0.19,-0.16,-0.37,-55.11,165.59,76.54
2026-07-27 13:55:26.817,0.19,-0.16,-0.37,-55.11,165.59,76.54
2026-07-27 13:55:26.859,0.2,0.09,-0.6,-66.65,190.19,127.26
2026-07-27 13:55:26.905,0.14,0.38,-0.56,-77.27,153.99,172.85
2026-07-27 13:55:26.905,0.14,0.38,-0.56,-77.27,153.99,172.85
2026-07-27 13:55:26.948,0.23,0.63,-0.35,-71.23,68.42,194.89
2026-07-27 13:55:26.948,0.92,0.74,-0.75,-61.28,25.88,187.93
2026-07-27 13:55:26.991,0.92,0.74,-0.75,-61.28,25.88,187.93
2026-07-27 13:55:26.991,2.42,0.89,-1.96,-67.63,-16.17,166.56
2026-07-27 13:55:27.035,2.42,0.89,-1.96,-67.63,-16.17,166.56
2026-07-27 13:55:27.085,3.84,1.93,-1.89,14.65,-369.2,152.47
2026-07-27 13:55:27.085,4.0,3.5,0.84,304.63,-1024.54,130.8
2026-07-27 13:55:27.122,4.0,3.5,0.84,304.63,-1024.54,130.8
2026-07-27 13:55:27.123,3.94,4.0,3.74,627.26,-1398.25,89.11
2026-07-27 13:55:27.166,2.68,3.4,4.0,682.01,-1073.43,51.94
2026-07-27 13:55:27.167,2.68,3.4,4.0,682.01,-1073.43,51.94
2026-07-27 13:55:27.209,1.43,1.82,2.5,435.3,-235.41,19.9
2026-07-27 13:55:27.253,0.83,0.53,0.12,149.9,437.56,-1.4
2026-07-27 13:55:27.254,0.83,0.53,0.12,149.9,437.56,-1.4
2026-07-27 13:55:27.297,0.69,0.04,-0.58,-4.03,465.7,8.79
2026-07-27 13:55:27.297,0.69,0.04,-0.58,-4.03,465.7,8.79
2026-07-27 13:55:27.341,0.81,0.33,0.28,-39.18,97.41,39.18
2026-07-27 13:55:27.341,0.96,0.98,1.5,-0.73,-180.73,65.31
2026-07-27 13:55:27.384,0.96,0.98,1.5,-0.73,-180.73,65.31
2026-07-27 13:55:27.428,1.02,1.44,1.9,43.03,-163.94,67.69
2026-07-27 13:55:27.428,1.02,1.44,1.9,43.03,-163.94,67.69
2026-07-27 13:55:27.480,1.06,1.4,1.42,51.76,36.07,31.68
2026-07-27 13:55:27.480,1.11,1.07,0.86,21.73,199.28,-30.58
2026-07-27 13:55:27.519,1.11,1.07,0.86,21.73,199.28,-30.58
2026-07-27 13:55:27.519,1.06,0.83,0.72,-21.36,233.03,-74.1
2026-07-27 13:55:27.603,1.06,0.83,0.72,-21.36,233.03,-74.1
2026-07-27 13:55:27.604,0.9,0.82,0.85,-37.54,198.3,-73.3
2026-07-27 13:55:27.604,0.7,1.0,0.95,-21.97,171.75,-52.31
2026-07-27 13:55:27.605,0.7,1.0,0.95,-21.97,171.75,-52.31
2026-07-27 13:55:27.647,0.52,1.25,0.97,-10.5,167.24,-54.2
2026-07-27 13:55:27.647,0.52,1.25,0.97,-10.5,167.24,-54.2
2026-07-27 13:55:27.691,0.4,1.4,0.95,-32.59,160.52,-95.34
2026-07-27 13:55:27.735,0.31,1.44,0.87,-73.79,144.53,-150.45
2026-07-27 13:55:27.735,0.31,1.44,0.87,-73.79,144.53,-150.45
2026-07-27 13:55:27.778,0.21,1.45,0.79,-101.62,128.54,-195.25
2026-07-27 13:55:27.779,0.14,1.43,0.75,-113.77,108.95,-228.52
2026-07-27 13:55:27.822,0.14,1.43,0.75,-113.77,108.95,-228.52
2026-07-27 13:55:27.822,0.14,1.31,0.68,-130.19,89.78,-251.4
2026-07-27 13:55:27.868,0.14,1.31,0.68,-130.19,89.78,-251.4
2026-07-27 13:55:27.868,0.15,1.06,0.48,-162.96,87.65,-262.15
2026-07-27 13:55:27.918,0.1,0.82,0.29,-187.26,86.91,-258.85
2026-07-27 13:55:27.953,0.1,0.82,0.29,-187.26,86.91,-258.85
2026-07-27 13:55:27.954,0.07,0.59,0.18,-188.29,54.14,-245.73
2026-07-27 13:55:28.004,0.21,0.13,0.07,-194.76,-5.98,-232.67
2026-07-27 13:55:28.004,0.21,0.13,0.07,-194.76,-5.98,-232.67
2026-07-27 13:55:28.084,0.3,-0.52,-0.02,-193.3,-48.4,-176.94
2026-07-27 13:55:28.085,0.3,-0.52,-0.02,-193.3,-48.4,-176.94
2026-07-27 13:55:28.086,0.1,-0.77,-0.09,-157.59,-19.71,-71.96
2026-07-27 13:55:28.087,-0.17,-0.62,-0.14,-95.95,54.26,-2.44
2026-07-27 13:55:28.128,-0.17,-0.62,-0.14,-95.95,54.26,-2.44
2026-07-27 13:55:28.172,-0.36,-0.48,-0.09,-26.67,91.06,9.46
2026-07-27 13:55:28.172,-0.36,-0.48,-0.09,-26.67,91.06,9.46
2026-07-27 13:55:28.216,-0.45,-0.46,0.09,-6.04,65.67,6.29
2026-07-27 13:55:28.216,-0.47,-0.5,0.28,-26.61,24.35,6.04
2026-07-27 13:55:28.260,-0.47,-0.5,0.28,-26.61,24.35,6.04
2026-07-27 13:55:28.260,-0.47,-0.55,0.36,-17.4,17.58,3.36
2026-07-27 13:55:28.303,-0.47,-0.55,0.36,-17.4,17.58,3.36
2026-07-27 13:55:28.303,-0.46,-0.58,0.4,12.51,32.71,-1.28
2026-07-27 13:55:28.348,-0.45,-0.57,0.46,13.79,35.71,-1.83
2026-07-27 13:55:28.348,-0.45,-0.57,0.46,13.79,35.71,-1.83
2026-07-27 13:55:28.391,-0.42,-0.53,0.52,-6.47,31.74,1.1
2026-07-27 13:55:28.391,-0.42,-0.53,0.52,-6.47,31.74,1.1
2026-07-27 13:55:28.436,-0.38,-0.5,0.51,-22.22,37.41,2.5
2026-07-27 13:55:28.522,-0.41,-0.46,0.44,-32.78,44.43,5.0
2026-07-27 13:55:28.522,-0.41,-0.46,0.44,-32.78,44.43,5.0
2026-07-27 13:55:28.524,-0.49,-0.46,0.33,-29.24,46.69,7.63
2026-07-27 13:55:28.524,-0.49,-0.46,0.33,-29.24,46.69,7.63
2026-07-27 13:55:28.566,-0.58,-0.51,0.21,-6.47,46.08,4.39
2026-07-27 13:55:28.566,-0.58,-0.51,0.21,8.0,32.78,-3.78
2026-07-27 13:55:28.610,-0.62,-0.59,0.17,8.0,32.78,-3.78
2026-07-27 13:55:28.610,-0.62,-0.67,0.26,1.16,2.01,-11.23
2026-07-27 13:55:28.653,-0.62,-0.67,0.26,1.16,2.01,-11.23
2026-07-27 13:55:28.653,-0.63,-0.73,0.4,-6.23,-28.38,-13.37
2026-07-27 13:55:28.699,-0.63,-0.73,0.4,-6.23,-28.38,-13.37
2026-07-27 13:55:28.699,-0.62,-0.77,0.48,1.04,-35.89,-11.54
2026-07-27 13:55:28.741,-0.59,-0.73,0.44,15.99,-21.79,-7.93
2026-07-27 13:55:28.741,-0.59,-0.73,0.44,15.99,-21.79,-7.93
2026-07-27 13:55:28.785,-0.56,-0.63,0.28,41.56,2.56,-3.85
2026-07-27 13:55:28.828,-0.56,-0.63,0.28,81.3,21.97,-2.87
2026-07-27 13:55:28.828,-0.51,-0.57,0.13,81.3,21.97,-2.87
2026-07-27 13:55:28.872,-0.41,-0.55,0.08,96.5,11.78,-4.88
2026-07-27 13:55:28.872,-0.41,-0.55,0.08,96.5,11.78,-4.88
2026-07-27 13:55:28.916,-0.28,-0.53,0.08,87.46,-14.04,-3.97
2026-07-27 13:55:28.917,-0.28,-0.53,0.08,87.46,-14.04,-3.97
2026-07-27 13:55:28.960,-0.28,-0.53,0.08,87.46,-14.04,-3.97
2026-07-27 13:55:28.960,-0.28,-0.53,0.08,87.46,-14.04,-3.97
2026-07-27 13:55:29.007,-0.01,-0.09,0.73,103.03,-45.9,6.84
2026-07-27 13:55:29.007,0.07,0.54,1.41,76.6,-15.44,12.02
2026-07-27 13:55:29.091,0.07,0.54,1.41,76.6,-15.44,12.02
2026-07-27 13:55:29.092,0.18,1.21,1.68,-14.4,99.43,26.12
2026-07-27 13:55:29.092,0.75,1.44,0.95,-174.87,289.73,42.66
2026-07-27 13:55:29.093,0.75,1.44,0.95,-174.87,289.73,42.66
2026-07-27 13:55:29.134,1.97,1.38,-0.79,-371.28,524.96,62.62
2026-07-27 13:55:29.180,1.97,1.38,-0.79,-371.28,524.96,62.62
2026-07-27 13:55:29.180,3.17,1.1,-2.87,-483.89,660.71,113.22
2026-07-27 13:55:29.222,3.88,1.45,-3.39,-333.56,191.53,139.89
2026-07-27 13:55:29.222,3.88,1.45,-3.39,-333.56,191.53,139.89
2026-07-27 13:55:29.266,4.0,2.92,-0.8,160.58,-909.97,146.61
2026-07-27 13:55:29.310,4.0,4.0,2.73,705.32,-1654.48,258.91
2026-07-27 13:55:29.310,4.0,4.0,2.73,705.32,-1654.48,258.91
2026-07-27 13:55:29.355,3.67,4.0,4.0,817.93,-1625.73,361.82
2026-07-27 13:55:29.355,3.67,4.0,4.0,817.93,-1625.73,361.82
2026-07-27 13:55:29.399,2.73,3.46,3.65,551.27,-970.52,271.06
2026-07-27 13:55:29.399,1.72,1.99,0.94,292.11,85.63,78.43
2026-07-27 13:55:29.441,1.72,1.99,0.94,292.11,85.63,78.43
2026-07-27 13:55:29.442,0.91,0.76,-0.95,121.77,677.0,-30.52
2026-07-27 13:55:29.486,0.91,0.76,-0.95,-0.73,457.09,-18.43
2026-07-27 13:55:29.486,0.48,0.33,-0.76,-0.73,457.09,-18.43
2026-07-27 13:55:29.528,0.52,0.7,0.61,-56.82,-31.31,35.4
2026-07-27 13:55:29.528,0.52,0.7,0.61,-56.82,-31.31,35.4
2026-07-27 13:55:29.573,0.76,1.2,1.53,-69.27,-281.86,49.01
2026-07-27 13:55:29.617,0.95,1.27,1.18,-52.86,-177.31,9.95
2026-07-27 13:55:29.617,0.95,1.27,1.18,-52.86,-177.31,9.95
2026-07-27 13:55:29.669,1.06,0.98,0.35,3.11,59.75,-41.63
2026-07-27 13:55:29.669,1.06,0.98,0.35,3.11,59.75,-41.63
2026-07-27 13:55:29.705,1.07,0.66,-0.11,69.95,187.5,-80.99
2026-07-27 13:55:29.705,1.0,0.62,-0.08,79.47,157.84,-90.94
2026-07-27 13:55:29.754,1.0,0.62,-0.08,79.47,157.84,-90.94
2026-07-27 13:55:29.754,0.9,0.8,0.21,13.55,64.15,-82.4
2026-07-27 13:55:29.791,0.9,0.8,0.21,13.55,64.15,-82.4
2026-07-27 13:55:29.878,0.82,0.96,0.47,-59.88,6.1,-78.25
2026-07-27 13:55:29.879,0.77,0.93,0.53,-83.44,10.01,-86.36
2026-07-27 13:55:29.879,0.77,0.93,0.53,-83.44,10.01,-86.36
2026-07-27 13:55:29.880,0.73,0.79,0.43,-74.71,42.36,-95.64
2026-07-27 13:55:29.922,0.73,0.79,0.43,-74.71,42.36,-95.64
2026-07-27 13:55:29.922,0.67,0.67,0.32,-63.96,61.16,-90.76
2026-07-27 13:55:29.965,0.57,0.61,0.28,-65.8,41.75,-70.07
2026-07-27 13:55:29.966,0.57,0.61,0.28,-65.8,41.75,-70.07
2026-07-27 13:55:30.010,0.43,0.64,0.33,-75.5,5.25,-42.18
2026-07-27 13:55:30.010,0.43,0.64,0.33,-75.5,5.25,-42.18
2026-07-27 13:55:30.053,0.31,0.77,0.47,-70.31,-3.91,-20.26
2026-07-27 13:55:30.097,0.22,0.9,0.63,-40.34,25.21,-16.24
2026-07-27 13:55:30.099,0.22,0.9,0.63,-40.34,25.21,-16.24
2026-07-27 13:55:30.140,0.15,0.97,0.76,-12.76,60.67,-30.76
2026-07-27 13:55:30.141,0.15,0.97,0.76,-12.76,60.67,-30.76
2026-07-27 13:55:30.236,0.11,0.99,0.89,-19.84,70.01,-57.07
2026-07-27 13:55:30.238,0.08,0.98,0.94,-45.23,63.54,-82.52
2026-07-27 13:55:30.238,0.08,0.98,0.94,-45.23,63.54,-82.52
2026-07-27 13:55:30.238,-0.03,1.01,0.88,-59.02,65.8,-95.4
2026-07-27 13:55:30.274,-0.03,1.01,0.88,-71.35,66.96,-105.29
2026-07-27 13:55:30.274,-0.16,1.05,0.83,-71.35,66.96,-105.29
2026-07-27 13:55:30.319,-0.23,1.09,0.88,-95.76,49.38,-120.18
2026-07-27 13:55:30.360,-0.23,1.09,0.88,-95.76,49.38,-120.18
2026-07-27 13:55:30.361,-0.23,1.18,0.98,-131.53,28.38,-131.29
2026-07-27 13:55:30.403,-0.18,1.25,1.01,-179.38,20.69,-140.08
2026-07-27 13:55:30.404,-0.18,1.25,1.01,-179.38,20.69,-140.08
2026-07-27 13:55:30.447,-0.13,1.18,0.86,-217.65,30.7,-148.56
2026-07-27 13:55:30.447,-0.13,1.18,0.86,-217.65,30.7,-148.56
2026-07-27 13:55:30.493,-0.14,0.94,0.59,-226.2,45.72,-156.56
2026-07-27 13:55:30.493,-0.18,0.62,0.41,-223.02,32.29,-165.53
2026-07-27 13:55:30.535,-0.18,0.62,0.41,-223.02,32.29,-165.53
2026-07-27 13:55:30.578,-0.14,0.29,0.39,-241.03,-26.0,-168.7
2026-07-27 13:55:30.579,-0.14,0.29,0.39,-299.32,-124.45,-164.79
2026-07-27 13:55:30.622,0.05,-0.12,0.52,-299.32,-124.45,-164.79
2026-07-27 13:55:30.622,0.21,-0.48,0.67,-330.99,-177.43,-137.76
2026-07-27 13:55:30.670,0.21,-0.48,0.67,-330.99,-177.43,-137.76
2026-07-27 13:55:30.670,0.27,-0.51,0.62,-243.41,-71.11,-70.98
2026-07-27 13:55:30.716,0.35,-0.28,0.3,-107.12,151.92,-4.76
2026-07-27 13:55:30.716,0.35,-0.28,0.3,-107.12,151.92,-4.76
2026-07-27 13:55:30.753,0.46,-0.2,-0.1,-39.98,336.0,2.69
2026-07-27 13:55:30.754,0.46,-0.2,-0.1,-39.98,336.0,2.69
2026-07-27 13:55:30.797,0.42,-0.39,-0.33,-50.48,360.6,-29.11
2026-07-27 13:55:30.841,0.16,-0.6,-0.39,-110.23,237.12,-15.99
2026-07-27 13:55:30.841,0.16,-0.6,-0.39,-110.23,237.12,-15.99
2026-07-27 13:55:30.887,-0.17,-0.6,-0.48,-174.01,101.44,58.04
2026-07-27 13:55:30.887,-0.17,-0.6,-0.48,-174.01,101.44,58.04
2026-07-27 13:55:30.928,-0.4,-0.61,-0.63,-159.61,42.79,100.52
2026-07-27 13:55:30.928,-0.47,-0.88,-0.62,-45.9,28.75,49.13
2026-07-27 13:55:30.974,-0.47,-0.88,-0.62,-45.9,28.75,49.13
2026-07-27 13:55:30.974,-0.45,-1.12,-0.36,57.01,-2.62,-20.75
2026-07-27 13:55:31.016,-0.45,-1.12,-0.36,57.01,-2.62,-20.75
2026-07-27 13:55:31.016,-0.42,-1.03,-0.02,53.22,-51.27,-26.49
2026-07-27 13:55:31.060,-0.46,-0.81,0.22,-13.73,-84.29,14.16
2026-07-27 13:55:31.103,-0.46,-0.81,0.22,-13.73,-84.29,14.16
2026-07-27 13:55:31.104,-0.48,-0.67,0.3,-79.16,-100.34,61.22
2026-07-27 13:55:31.147,-0.39,-0.56,0.27,-135.13,-102.54,88.44
2026-07-27 13:55:31.147,-0.39,-0.56,0.27,-135.13,-102.54,88.44
2026-07-27 13:55:31.191,-0.23,-0.54,0.14,-132.69,-66.16,74.65
2026-07-27 13:55:31.191,-0.23,-0.54,0.14,-132.69,-66.16,74.65
2026-07-27 13:55:31.234,-0.0,-0.51,-0.03,-61.28,7.57,39.25
2026-07-27 13:55:31.278,0.22,-0.31,-0.16,-0.92,64.39,28.93
2026-07-27 13:55:31.279,0.22,-0.31,-0.16,-0.92,64.39,28.93
2026-07-27 13:55:31.325,0.34,-0.0,-0.23,30.4,77.7,57.98
2026-07-27 13:55:31.325,0.34,-0.0,-0.23,30.4,77.7,57.98
2026-07-27 13:55:31.369,0.44,0.32,-0.27,41.08,67.81,96.5
2026-07-27 13:55:31.369,0.54,0.81,-0.03,-10.01,38.21,113.22
2026-07-27 13:55:31.410,0.54,0.81,-0.03,-10.01,38.21,113.22
2026-07-27 13:55:31.410,0.51,1.2,0.53,-106.08,-36.13,115.84
2026-07-27 13:55:31.454,0.51,1.2,0.53,-106.08,-36.13,115.84
2026-07-27 13:55:31.454,0.57,1.02,0.37,-43.64,-36.62,159.12
2026-07-27 13:55:31.497,1.33,0.71,-0.82,160.16,81.97,270.69
2026-07-27 13:55:31.497,1.33,0.71,-0.82,160.16,81.97,270.69
2026-07-27 13:55:31.541,2.85,1.14,-1.56,170.04,-78.74,352.05
2026-07-27 13:55:31.541,2.85,1.14,-1.56,170.04,-78.74,352.05
2026-07-27 13:55:31.584,4.0,2.52,0.02,129.39,-741.58,328.49
2026-07-27 13:55:31.672,4.0,3.86,2.89,383.24,-1396.97,330.57
2026-07-27 13:55:31.672,4.0,3.86,2.89,383.24,-1396.97,330.57
2026-07-27 13:55:31.673,3.6,4.0,4.0,611.76,-1552.98,418.4
2026-07-27 13:55:31.674,3.6,4.0,4.0,464.54,-928.34,373.17
2026-07-27 13:55:31.716,2.77,3.39,2.89,464.54,-928.34,373.17
2026-07-27 13:55:31.716,2.51,1.55,-0.34,223.63,185.67,79.35
2026-07-27 13:55:31.803,2.51,1.55,-0.34,223.63,185.67,79.35
2026-07-27 13:55:31.803,2.09,-0.09,-1.48,39.86,636.05,-221.8
2026-07-27 13:55:31.804,1.5,-0.55,-0.48,-72.02,250.98,-273.01
2026-07-27 13:55:31.847,1.5,-0.55,-0.48,-72.02,250.98,-273.01
2026-07-27 13:55:31.848,0.96,0.06,0.67,-5.74,-135.86,-93.44
2026-07-27 13:55:31.890,0.96,0.06,0.67,-5.74,-135.86,-93.44
2026-07-27 13:55:31.891,0.73,0.9,1.18,76.72,-232.54,91.13
2026-07-27 13:55:31.938,0.74,1.25,1.17,46.45,-171.94,120.42
2026-07-27 13:55:31.938,0.74,1.25,1.17,46.45,-171.94,120.42
2026-07-27 13:55:31.978,0.87,1.15,0.81,-12.33,-23.25,39.49
2026-07-27 13:55:31.978,0.87,1.15,0.81,-12.33,-23.25,39.49
2026-07-27 13:55:32.022,0.99,0.94,0.34,-24.23,150.27,-49.8
2026-07-27 13:55:32.066,1.02,0.85,0.21,-34.73,227.78,-104.86
2026-07-27 13:55:32.066,1.02,0.85,0.21,-34.73,227.78,-104.86
2026-07-27 13:55:32.109,0.98,0.87,0.45,-87.34,192.32,-128.85
2026-07-27 13:55:32.114,0.98,0.87,0.45,-87.34,192.32,-128.85
2026-07-27 13:55:32.197,0.87,0.92,0.71,-141.11,132.02,-119.69
2026-07-27 13:55:32.197,0.75,0.99,0.79,-155.21,112.49,-93.08
2026-07-27 13:55:32.200,0.75,0.99,0.79,-155.21,112.49,-93.08
2026-07-27 13:55:32.201,0.65,1.09,0.84,-149.84,125.55,-82.03
2026-07-27 13:55:32.241,0.65,1.09,0.84,-149.84,125.55,-82.03
2026-07-27 13:55:32.241,0.53,1.18,0.92,-139.34,135.07,-88.07
2026-07-27 13:55:32.284,0.37,1.29,0.92,-114.75,136.11,-95.28
2026-07-27 13:55:32.285,0.37,1.29,0.92,-114.75,136.11,-95.28
2026-07-27 13:55:32.372,0.27,1.39,0.84,-102.72,135.13,-116.21
2026-07-27 13:55:32.372,0.27,1.39,0.84,-114.26,130.98,-158.63
2026-07-27 13:55:32.373,0.3,1.29,0.72,-114.26,130.98,-158.63
2026-07-27 13:55:32.415,0.32,1.04,0.55,-118.41,123.11,-186.95
2026-07-27 13:55:32.416,0.32,1.04,0.55,-118.41,123.11,-186.95
2026-07-27 13:55:32.460,0.19,0.86,0.38,-119.87,110.29,-180.97
2026-07-27 13:55:32.460,0.0,0.71,0.34,-134.64,89.11,-164.31
2026-07-27 13:55:32.503,0.0,0.71,0.34,-134.64,89.11,-164.31
2026-07-27 13:55:32.548,-0.15,0.51,0.46,-169.92,60.3,-154.85
2026-07-27 13:55:32.548,-0.15,0.51,0.46,-169.92,60.3,-154.85
2026-07-27 13:55:32.590,-0.24,0.27,0.63,-212.22,29.6,-144.71
2026-07-27 13:55:32.591,-0.27,0.04,0.65,-221.5,12.57,-126.53
2026-07-27 13:55:32.638,-0.27,0.04,0.65,-221.5,12.57,-126.53
2026-07-27 13:55:32.638,-0.25,-0.16,0.54,-190.55,19.53,-105.35
2026-07-27 13:55:32.685,-0.25,-0.16,0.54,-190.55,19.53,-105.35
2026-07-27 13:55:32.685,-0.22,-0.29,0.47,-155.09,32.04,-90.09
2026-07-27 13:55:32.724,-0.14,-0.36,0.48,-141.78,33.02,-80.32
2026-07-27 13:55:32.724,-0.14,-0.36,0.48,-141.78,33.02,-80.32
2026-07-27 13:55:32.810,-0.05,-0.39,0.58,-152.28,22.77,-65.98
2026-07-27 13:55:32.810,-0.05,-0.39,0.58,-152.28,22.77,-65.98
2026-07-27 13:55:32.810,0.03,-0.41,0.67,-185.67,9.16,-39.12
2026-07-27 13:55:32.853,0.04,-0.38,0.65,-208.98,15.14,2.32
2026-07-27 13:55:32.854,0.04,-0.38,0.65,-208.98,15.14,2.32
2026-07-27 13:55:32.941,-0.04,-0.26,0.47,-157.23,70.31,42.54
2026-07-27 13:55:32.941,-0.04,-0.26,0.47,-42.05,160.77,54.02
2026-07-27 13:55:32.942,-0.13,-0.17,0.11,-42.05,160.77,54.02
2026-07-27 13:55:32.943,-0.22,-0.26,-0.28,-2.01,206.85,38.94
2026-07-27 13:55:32.984,-0.22,-0.26,-0.28,-2.01,206.85,38.94
2026-07-27 13:55:32.984,-0.26,-0.54,-0.6,-99.73,168.7,23.44
2026-07-27 13:55:33.028,-0.24,-0.79,-0.82,-189.7,105.9,15.81
2026-07-27 13:55:33.028,-0.24,-0.79,-0.82,-189.7,105.9,15.81
2026-07-27 13:55:33.073,-0.19,-0.85,-0.87,-163.76,64.76,6.1
2026-07-27 13:55:33.116,-0.19,-0.85,-0.87,-163.76,64.76,6.1
2026-07-27 13:55:33.116,-0.14,-0.78,-0.82,-86.67,38.09,-0.85
2026-07-27 13:55:33.159,-0.11,-0.7,-0.87,-28.44,28.69,6.96
2026-07-27 13:55:33.160,-0.11,-0.7,-0.87,-28.44,28.69,6.96
2026-07-27 13:55:33.203,-0.09,-0.62,-0.95,12.45,29.97,21.85
2026-07-27 13:55:33.204,-0.09,-0.62,-0.95,12.45,29.97,21.85
2026-07-27 13:55:33.247,0.01,-0.52,-0.88,51.39,10.86,27.83
2026-07-27 13:55:33.291,0.22,-0.35,-0.6,85.27,-32.23,21.73
2026-07-27 13:55:33.291,0.22,-0.35,-0.6,85.27,-32.23,21.73
2026-07-27 13:55:33.341,0.52,0.11,-0.13,120.36,-64.64,21.61
2026-07-27 13:55:33.341,0.52,0.11,-0.13,120.36,-64.64,21.61
2026-07-27 13:55:33.466,0.69,0.78,0.47,153.32,-60.42,60.12
2026-07-27 13:55:33.466,0.7,0.93,0.72,141.11,-12.15,133.3
2026-07-27 13:55:33.467,0.7,0.93,0.72,141.11,-12.15,133.3
2026-07-27 13:55:33.467,0.87,0.61,0.23,88.99,115.23,238.34
2026-07-27 13:55:33.468,0.87,0.61,0.23,88.99,115.23,238.34
2026-07-27 13:55:33.469,1.82,0.75,-0.96,-36.68,290.71,371.52
2026-07-27 13:55:33.510,3.23,1.36,-2.48,-255.31,234.37,420.23
2026-07-27 13:55:33.511,3.23,1.36,-2.48,-255.31,234.37,420.23
2026-07-27 13:55:33.553,4.0,2.45,-1.88,-292.85,-457.09,197.81
2026-07-27 13:55:33.599,4.0,2.45,-1.88,184.63,-1357.54,-106.81
2026-07-27 13:55:33.600,4.0,3.73,1.45,184.63,-1357.54,-106.81
2026-07-27 13:55:33.641,3.87,3.69,4.0,669.37,-1665.83,-48.22
2026-07-27 13:55:33.641,3.87,3.69,4.0,669.37,-1665.83,-48.22
2026-07-27 13:55:33.685,3.32,2.56,3.64,633.97,-1166.14,163.21
2026-07-27 13:55:33.685,2.59,1.28,0.59,474.0,-69.09,99.43
2026-07-27 13:55:33.728,2.59,1.28,0.59,474.0,-69.09,99.43
2026-07-27 13:55:33.728,1.6,0.19,-1.2,297.0,605.65,-74.58
2026-07-27 13:55:33.773,1.6,0.19,-1.2,297.0,605.65,-74.58
2026-07-27 13:55:33.816,0.95,-0.27,-0.72,59.69,382.32,-125.18
2026-07-27 13:55:33.816,0.82,0.05,0.09,-28.14,-16.85,-50.17
2026-07-27 13:55:33.860,0.82,0.05,0.09,-28.14,-16.85,-50.17
2026-07-27 13:55:33.860,1.05,0.83,0.6,-22.28,-208.01,57.68
2026-07-27 13:55:33.948,1.23,1.32,0.96,-49.13,-276.43,82.52
2026-07-27 13:55:33.949,1.23,1.32,0.96,-49.13,-276.43,82.52
2026-07-27 13:55:33.949,1.16,1.3,0.87,-74.34,-226.14,35.83
2026-07-27 13:55:33.949,1.16,1.3,0.87,-74.34,-226.14,35.83
2026-07-27 13:55:33.991,1.03,1.06,0.37,-69.82,-55.48,-15.81
2026-07-27 13:55:34.035,0.96,0.8,-0.04,-62.74,106.38,-57.01
2026-07-27 13:55:34.035,0.96,0.8,-0.04,-62.74,106.38,-57.01
2026-07-27 13:55:34.078,0.94,0.65,-0.07,-44.74,164.55,-82.21
2026-07-27 13:55:34.078,0.94,0.65,-0.07,-44.74,164.55,-82.21
2026-07-27 13:55:34.166,0.89,0.78,0.23,-19.41,147.28,-77.64
2026-07-27 13:55:34.166,0.83,1.05,0.6,-35.89,142.21,-61.95
2026-07-27 13:55:34.166,0.83,1.05,0.6,-35.89,142.21,-61.95
2026-07-27 13:55:34.168,0.84,1.22,0.83,-80.38,182.86,-61.16
2026-07-27 13:55:34.209,0.84,1.22,0.83,-80.38,182.86,-61.16
2026-07-27 13:55:34.212,0.86,1.24,0.88,-96.13,232.36,-71.47
2026-07-27 13:55:34.253,0.83,1.2,0.87,-94.06,258.61,-78.12
2026-07-27 13:55:34.254,0.83,1.2,0.87,-94.06,258.61,-78.12
2026-07-27 13:55:34.297,0.71,1.14,0.8,-88.99,261.41,-75.07
2026-07-27 13:55:34.297,0.71,1.14,0.8,-88.99,261.41,-75.07
2026-07-27 13:55:34.341,0.48,1.12,0.68,-82.21,246.83,-68.91
2026-07-27 13:55:34.384,0.25,1.19,0.73,-84.47,225.71,-78.12
2026-07-27 13:55:34.385,0.25,1.19,0.73,-84.47,225.71,-78.12
2026-07-27 13:55:34.429,0.09,1.4,1.08,-95.76,209.96,-106.75
2026-07-27 13:55:34.429,0.09,1.4,1.08,-95.76,209.96,-106.75
2026-07-27 13:55:34.472,0.06,1.58,1.49,-110.84,202.82,-146.12
2026-07-27 13:55:34.473,0.14,1.59,1.65,-127.26,206.3,-186.28
2026-07-27 13:55:34.516,0.14,1.59,1.65,-127.26,206.3,-186.28
2026-07-27 13:55:34.516,0.21,1.46,1.41,-137.7,227.91,-206.36
2026-07-27 13:55:34.603,0.21,1.46,1.41,-134.03,257.39,-208.37
2026-07-27 13:55:34.604,0.22,1.3,1.01,-134.03,257.39,-208.37
2026-07-27 13:55:34.604,0.29,1.1,0.81,-125.73,256.71,-215.33
2026-07-27 13:55:34.648,0.29,1.1,0.81,-125.73,256.71,-215.33
2026-07-27 13:55:34.648,0.38,0.86,0.74,-129.33,226.93,-218.75
2026-07-27 13:55:34.735,0.41,0.61,0.51,-131.59,211.3,-199.4
2026-07-27 13:55:34.735,0.41,0.61,0.51,-131.59,211.3,-199.4
2026-07-27 13:55:34.735,0.41,0.39,0.15,-121.64,211.73,-171.63
2026-07-27 13:55:34.737,0.41,0.39,0.15,-121.64,211.73,-171.63
2026-07-27 13:55:34.822,0.39,0.22,-0.13,-110.29,201.9,-152.28
2026-07-27 13:55:34.823,0.4,0.04,-0.34,-91.55,182.13,-136.29
2026-07-27 13:55:34.823,0.4,0.04,-0.34,-91.55,182.13,-136.29
2026-07-27 13:55:34.874,0.38,-0.19,-0.55,-50.35,163.82,-113.71
2026-07-27 13:55:34.874,0.38,-0.19,-0.55,-50.35,163.82,-113.71
2026-07-27 13:55:34.914,0.32,-0.41,-0.74,30.4,153.38,-89.72
2026-07-27 13:55:34.915,0.21,-0.65,-0.8,86.43,120.0,-84.41
2026-07-27 13:55:35.044,0.21,-0.65,-0.8,86.43,120.0,-84.41
2026-07-27 13:55:35.044,0.1,-0.98,-0.85,35.52,59.63,-99.43
2026-07-27 13:55:35.045,0.1,-0.98,-0.85,35.52,59.63,-99.43
2026-07-27 13:55:35.045,0.04,-1.4,-1.04,-40.53,25.51,-104.86
2026-07-27 13:55:35.045,0.01,-1.6,-1.18,-62.74,9.7,-75.32
2026-07-27 13:55:35.045,0.01,-1.6,-1.18,-62.74,9.7,-75.32
2026-07-27 13:55:35.085,0.06,-1.36,-1.07,-53.04,-21.55,-21.67
2026-07-27 13:55:35.129,0.08,-0.84,-0.84,-14.95,-47.12,33.87
2026-07-27 13:55:35.129,0.08,-0.84,-0.84,-14.95,-47.12,33.87
2026-07-27 13:55:35.172,0.02,-0.41,-0.64,43.95,-45.59,71.17
2026-07-27 13:55:35.172,0.02,-0.41,-0.64,43.95,-45.59,71.17
2026-07-27 13:55:35.219,-0.07,-0.33,-0.5,80.2,-31.92,74.52
2026-07-27 13:55:35.219,-0.19,-0.46,-0.42,76.6,-26.31,61.89
2026-07-27 13:55:35.259,-0.19,-0.46,-0.42,76.6,-26.31,61.89
2026-07-27 13:55:35.303,-0.36,-0.58,-0.35,55.73,-39.12,57.37
2026-07-27 13:55:35.303,-0.36,-0.58,-0.35,55.73,-39.12,57.37
2026-07-27 13:55:35.347,-0.48,-0.6,-0.25,40.65,-68.24,57.8
2026-07-27 13:55:35.347,-0.46,-0.59,-0.13,46.94,-92.53,52.86
2026-07-27 13:55:35.392,-0.46,-0.59,-0.13,46.94,-92.53,52.86
2026-07-27 13:55:35.392,-0.3,-0.55,-0.08,80.38,-93.99,51.7
2026-07-27 13:55:35.434,-0.3,-0.55,-0.08,80.38,-93.99,51.7
2026-07-27 13:55:35.435,-0.07,-0.39,-0.09,122.8,-76.48,68.73
2026-07-27 13:55:35.478,0.19,-0.2,-0.02,122.13,-77.39,79.28
2026-07-27 13:55:35.478,0.19,-0.2,-0.02,122.13,-77.39,79.28
2026-07-27 13:55:35.522,0.44,0.01,0.38,59.45,-119.08,73.43
2026-07-27 13:55:35.522,0.44,0.01,0.38,59.45,-119.08,73.43
2026-07-27 13:55:35.566,0.5,0.59,1.3,-46.26,-159.24,99.43
2026-07-27 13:55:35.609,0.51,1.11,2.3,-211.24,-131.9,156.37
2026-07-27 13:55:35.610,0.51,1.11,2.3,-211.24,-131.9,156.37
2026-07-27 13:55:35.656,1.4,0.88,1.56,-295.04,119.63,203.31
2026-07-27 13:55:35.656,1.4,0.88,1.56,-295.04,119.63,203.31
2026-07-27 13:55:35.700,2.94,1.03,-1.32,-242.98,525.27,317.26
2026-07-27 13:55:35.700,3.93,2.21,-2.46,-247.01,325.74,341.98
2026-07-27 13:55:35.741,3.93,2.21,-2.46,-247.01,325.74,341.98
2026-07-27 13:55:35.741,4.0,3.27,0.39,-123.17,-717.71,0.79
2026-07-27 13:55:35.785,4.0,3.79,3.72,337.04,-1498.78,-222.6
2026-07-27 13:55:35.828,4.0,3.79,3.72,337.04,-1498.78,-222.6
2026-07-27 13:55:35.829,3.74,2.24,4.0,526.43,-1568.66,-100.77
2026-07-27 13:55:35.873,3.74,2.24,4.0,526.43,-1568.66,-100.77
2026-07-27 13:55:35.873,2.8,-0.09,3.87,311.46,-1088.75,-0.12
2026-07-27 13:55:35.916,1.77,-0.33,1.58,313.17,-116.03,96.98
2026-07-27 13:55:35.916,1.77,-0.33,1.58,313.17,-116.03,96.98
2026-07-27 13:55:35.959,1.19,0.24,-0.04,409.73,527.83,169.07
2026-07-27 13:55:35.960,1.19,0.24,-0.04,307.68,448.06,145.45
2026-07-27 13:55:36.003,0.9,0.59,-0.3,307.68,448.06,145.45
2026-07-27 13:55:36.047,0.69,0.91,0.06,138.31,116.82,115.11
2026-07-27 13:55:36.047,0.69,0.91,0.06,138.31,116.82,115.11
2026-07-27 13:55:36.090,0.66,1.12,0.63,5.86,-146.3,68.18
2026-07-27 13:55:36.091,0.79,0.95,0.91,-70.98,-252.2,-44.86
2026-07-27 13:55:36.180,0.79,0.95,0.91,-70.98,-252.2,-44.86
2026-07-27 13:55:36.181,0.97,0.63,0.65,-84.78,-176.51,-140.44
2026-07-27 13:55:36.181,0.97,0.63,0.65,-84.78,-176.51,-140.44
2026-07-27 13:55:36.181,1.08,0.52,0.23,-51.39,-10.74,-134.89
2026-07-27 13:55:36.266,1.08,0.61,-0.05,-7.32,123.17,-69.89
2026-07-27 13:55:36.266,1.08,0.61,-0.05,-7.32,123.17,-69.89
2026-07-27 13:55:36.268,1.0,0.75,-0.19,-10.68,164.18,-25.09
2026-07-27 13:55:36.268,1.0,0.75,-0.19,-10.68,164.18,-25.09
2026-07-27 13:55:36.309,0.87,0.83,-0.18,-84.35,118.59,-37.17
2026-07-27 13:55:36.354,0.79,0.77,-0.08,-148.19,51.03,-85.69
2026-07-27 13:55:36.354,0.79,0.77,-0.08,-148.19,51.03,-85.69
2026-07-27 13:55:36.396,0.75,0.63,0.03,-135.19,22.22,-119.57
2026-07-27 13:55:36.397,0.75,0.63,0.03,-135.19,22.22,-119.57
2026-07-27 13:55:36.441,0.64,0.55,0.08,-86.55,19.23,-113.16
2026-07-27 13:55:36.441,0.51,0.58,0.04,-83.62,0.0,-95.21
2026-07-27 13:55:36.484,0.51,0.58,0.04,-83.62,0.0,-95.21
2026-07-27 13:55:36.485,0.39,0.69,-0.0,-142.46,-43.52,-93.99
2026-07-27 13:55:36.528,0.39,0.69,-0.0,-142.46,-43.52,-93.99
2026-07-27 13:55:36.615,0.23,0.9,-0.01,-181.15,-74.4,-92.65
2026-07-27 13:55:36.616,0.07,1.06,0.06,-153.08,-68.6,-87.95
2026-07-27 13:55:36.616,0.07,1.06,0.06,-153.08,-68.6,-87.95
2026-07-27 13:55:36.618,-0.02,1.0,0.26,-107.85,-60.18,-104.31
2026-07-27 13:55:36.659,-0.02,1.0,0.26,-107.85,-60.18,-104.31
2026-07-27 13:55:36.660,-0.02,0.85,0.48,-82.15,-62.68,-138.31
2026-07-27 13:55:36.703,0.04,0.69,0.59,-64.76,-51.33,-167.6
2026-07-27 13:55:36.703,0.04,0.69,0.59,-64.76,-51.33,-167.6
2026-07-27 13:55:36.747,0.15,0.57,0.62,-35.52,-20.75,-179.26
2026-07-27 13:55:36.747,0.15,0.57,0.62,-35.52,-20.75,-179.26
2026-07-27 13:55:36.791,0.24,0.46,0.69,-14.71,11.84,-164.06
2026-07-27 13:55:36.834,0.31,0.4,0.81,-33.63,17.46,-111.08
2026-07-27 13:55:36.835,0.31,0.4,0.81,-33.63,17.46,-111.08
2026-07-27 13:55:36.878,0.42,0.46,0.95,-65.06,-9.09,-20.32
2026-07-27 13:55:36.879,0.42,0.46,0.95,-65.06,-9.09,-20.32
2026-07-27 13:55:36.930,0.47,0.53,1.04,-72.63,-29.05,56.7
2026-07-27 13:55:36.930,0.45,0.55,0.95,-52.67,-3.97,89.36
2026-07-27 13:55:36.965,0.45,0.55,0.95,-52.67,-3.97,89.36
2026-07-27 13:55:36.966,0.36,0.57,0.76,-21.12,50.72,103.21
2026-07-27 13:55:37.010,0.36,0.57,0.76,-21.12,50.72,103.21
2026-07-27 13:55:37.012,0.23,0.59,0.64,-0.31,82.95,106.14
2026-07-27 13:55:37.053,0.11,0.57,0.62,-0.49,72.08,90.7
2026-07-27 13:55:37.053,0.11,0.57,0.62,-0.49,72.08,90.7
2026-07-27 13:55:37.101,0.05,0.55,0.65,-14.4,39.61,65.8
2026-07-27 13:55:37.141,0.01,0.57,0.71,-34.0,8.85,44.49
2026-07-27 13:55:37.141,0.01,0.57,0.71,-34.0,8.85,44.49
2026-07-27 13:55:37.186,0.02,0.61,0.79,-55.79,-13.85,27.95
2026-07-27 13:55:37.187,0.02,0.61,0.79,-55.79,-13.85,27.95
2026-07-27 13:55:37.228,0.05,0.62,0.86,-72.27,-28.87,18.19
2026-07-27 13:55:37.228,0.07,0.6,0.86,-73.18,-33.69,18.25
2026-07-27 13:55:37.272,0.07,0.6,0.86,-73.18,-33.69,18.25
2026-07-27 13:55:37.272,0.07,0.59,0.78,-57.5,-22.58,20.51
2026-07-27 13:55:37.316,0.07,0.59,0.78,-57.5,-22.58,20.51
2026-07-27 13:55:37.316,0.09,0.59,0.7,-36.19,-1.34,13.31
2026-07-27 13:55:37.361,0.13,0.55,0.71,-26.31,10.38,-8.91
2026-07-27 13:55:37.361,0.13,0.55,0.71,-26.31,10.38,-8.91
2026-07-27 13:55:37.448,0.17,0.49,0.79,-31.92,8.0,-38.82
2026-07-27 13:55:37.448,0.17,0.49,0.79,-31.92,8.0,-38.82
2026-07-27 13:55:37.448,0.22,0.42,0.89,-41.81,2.69,-66.59
2026-07-27 13:55:37.499,0.26,0.32,0.99,-46.45,0.12,-86.61
2026-07-27 13:55:37.499,0.26,0.32,0.99,-46.45,0.12,-86.61
2026-07-27 13:55:37.536,0.29,0.26,0.97,-43.27,0.31,-91.86
2026-07-27 13:55:37.537,0.29,0.26,0.97,-43.27,0.31,-91.86
2026-07-27 13:55:37.582,0.3,0.24,0.86,-37.11,-2.56,-86.91
2026-07-27 13:55:37.582,0.3,0.24,0.86,-34.67,-12.27,-84.05
2026-07-27 13:55:37.622,0.32,0.2,0.75,-34.67,-12.27,-84.05
2026-07-27 13:55:37.622,0.34,0.16,0.7,-33.87,-20.81,-79.28
2026-07-27 13:55:37.666,0.34,0.16,0.7,-33.87,-20.81,-79.28
2026-07-27 13:55:37.709,0.34,0.15,0.69,-21.79,-21.06,-61.1
2026-07-27 13:55:37.710,0.34,0.15,0.69,8.06,-17.82,-32.96
2026-07-27 13:55:37.797,0.31,0.17,0.72,8.06,-17.82,-32.96
2026-07-27 13:55:37.797,0.26,0.23,0.79,35.16,-17.03,-10.13
2026-07-27 13:55:37.798,0.26,0.23,0.79,35.16,-17.03,-10.13
2026-07-27 13:55:37.798,0.26,0.27,0.86,36.13,-18.07,-3.23
2026-07-27 13:55:37.841,0.26,0.27,0.86,36.13,-18.07,-3.23
2026-07-27 13:55:37.842,0.28,0.24,0.99,1.46,-20.2,-8.85
2026-07-27 13:55:37.884,0.26,0.16,1.13,-50.72,-17.27,-10.31
2026-07-27 13:55:37.885,0.26,0.16,1.13,-50.72,-17.27,-10.31
2026-07-27 13:55:37.929,0.2,0.13,1.12,-57.31,-0.18,6.59
2026-07-27 13:55:37.929,0.2,0.13,1.12,-57.31,-0.18,6.59
2026-07-27 13:55:37.972,0.16,0.14,1.01,-16.36,21.61,22.09
2026-07-27 13:55:38.015,0.14,0.15,0.91,2.01,29.79,6.47
2026-07-27 13:55:38.016,0.14,0.15,0.91,2.01,29.79,6.47
2026-07-27 13:55:38.059,0.1,0.15,0.86,-11.96,38.7,-16.24
2026-07-27 13:55:38.068,0.1,0.15,0.86,-11.96,38.7,-16.24
2026-07-27 13:55:38.152,0.04,0.14,0.85,-35.03,42.66,-27.83
2026-07-27 13:55:38.152,0.02,0.16,0.84,-72.81,14.95,-52.61
2026-07-27 13:55:38.153,0.02,0.16,0.84,-72.81,14.95,-52.61
2026-07-27 13:55:38.153,0.01,0.16,0.91,-98.08,-12.45,-80.69
2026-07-27 13:55:38.191,0.01,0.16,0.91,-98.08,-12.45,-80.69
2026-07-27 13:55:38.235,-0.0,0.12,1.01,-98.33,-8.24,-98.45
2026-07-27 13:55:38.235,0.0,0.1,1.1,-109.13,9.7,-118.65
2026-07-27 13:55:38.235,0.0,0.1,1.1,-109.13,9.7,-118.65
2026-07-27 13:55:38.278,0.04,0.09,1.17,-118.41,21.73,-131.04
2026-07-27 13:55:38.278,0.04,0.09,1.17,-118.41,21.73,-131.04
2026-07-27 13:55:38.326,0.09,-0.03,1.2,-100.83,25.88,-115.78
2026-07-27 13:55:38.365,0.1,-0.18,1.17,-74.77,26.12,-82.89
2026-07-27 13:55:38.366,0.1,-0.18,1.17,-74.77,26.12,-82.89
2026-07-27 13:55:38.413,0.03,-0.21,1.09,-60.91,29.3,-48.83
2026-07-27 13:55:38.413,0.03,-0.21,1.09,-60.91,29.3,-48.83
2026-07-27 13:55:38.453,-0.05,-0.14,1.0,-43.27,29.3,-11.47
2026-07-27 13:55:38.453,-0.05,-0.14,1.0,12.63,23.38,46.75
2026-07-27 13:55:38.497,-0.07,-0.19,0.92,12.63,23.38,46.75
2026-07-27 13:55:38.497,-0.0,-0.27,0.93,58.11,15.62,74.89
2026-07-27 13:55:38.584,-0.0,-0.27,0.93,58.11,15.62,74.89
2026-07-27 13:55:38.585,0.05,-0.21,0.96,49.62,5.43,39.37
2026-07-27 13:55:38.585,0.05,-0.21,0.96,39.0,-2.56,8.54
2026-07-27 13:55:38.586,0.06,-0.18,0.96,39.0,-2.56,8.54
2026-07-27 13:55:38.628,0.06,-0.12,0.93,69.7,-4.94,2.81
2026-07-27 13:55:38.628,0.06,-0.12,0.93,69.7,-4.94,2.81
2026-07-27 13:55:38.715,0.03,-0.04,0.94,103.21,-2.93,0.79
2026-07-27 13:55:38.716,0.03,-0.04,0.94,103.21,-2.93,0.79
2026-07-27 13:55:38.716,0.0,-0.0,0.98,73.06,-0.49,-0.73
2026-07-27 13:55:38.760,-0.01,-0.01,1.0,15.08,0.49,2.38
2026-07-27 13:55:38.760,-0.01,-0.01,1.0,15.08,0.49,2.38
2026-07-27 13:55:38.803,-0.01,-0.02,1.0,-11.6,0.24,14.04
2026-07-27 13:55:38.803,-0.01,-0.02,1.0,-11.6,0.24,14.04
2026-07-27 13:55:38.848,0.01,-0.01,1.0,-10.74,-0.18,19.41
2026-07-27 13:55:38.848,0.01,-0.02,0.99,-2.93,-0.18,10.01
2026-07-27 13:55:38.891,0.01,-0.02,0.99,-2.93,-0.18,10.01
2026-07-27 13:55:38.891,0.01,-0.02,0.99,1.28,0.0,0.49
2026-07-27 13:55:38.936,0.01,-0.02,0.99,1.28,0.0,0.49
2026-07-27 13:55:38.936,0.0,-0.02,0.99,1.46,0.12,-2.38
2026-07-27 13:55:38.978,0.0,-0.02,0.99,1.46,0.12,-2.38
2026-07-27 13:55:38.979,-0.0,-0.02,0.99,0.43,0.12,-1.4
2026-07-27 13:55:39.022,0.0,-0.02,0.99,-0.24,0.06,0.0
2026-07-27 13:55:39.022,0.0,-0.02,0.99,-0.24,0.06,0.0
2026-07-27 13:55:39.066,0.0,-0.02,0.99,-0.37,0.06,0.55
2026-07-27 13:55:39.066,0.0,-0.02,0.99,-0.37,0.06,0.55
2026-07-27 13:55:39.111,0.0,-0.02,0.99,-0.18,0.06,0.43
2026-07-27 13:55:39.154,0.01,-0.02,0.99,-0.12,0.12,0.18
2026-07-27 13:55:39.154,0.01,-0.02,0.99,-0.12,0.12,0.18
2026-07-27 13:55:39.198,0.01,-0.02,0.99,-0.12,0.18,-0.06
2026-07-27 13:55:39.198,0.01,-0.02,0.99,-0.12,0.18,-0.06
2026-07-27 13:55:39.241,-0.01,-0.02,0.99,-0.12,0.24,-0.24
2026-07-27 13:55:39.241,-0.01,-0.02,0.99,-0.12,0.18,-0.06
2026-07-27 13:55:39.291,-0.01,-0.02,0.99,-0.12,0.18,-0.06
2026-07-27 13:55:39.291,-0.0,-0.02,0.99,-0.12,0.06,0.18
2026-07-27 13:55:39.329,-0.0,-0.02,0.99,-0.12,0.06,0.18
2026-07-27 13:55:39.329,0.0,-0.02,0.99,-0.06,0.0,0.31
2026-07-27 13:55:39.384,0.0,-0.02,0.99,-0.06,0.0,0.31
2026-07-27 13:55:39.386,0.0,-0.02,0.99,0.0,0.0,0.31
2026-07-27 13:55:39.461,0.0,-0.02,0.99,0.0,0.0,0.18
2026-07-27 13:55:39.461,0.0,-0.02,0.99,0.0,0.0,0.18
2026-07-27 13:55:39.461,0.0,-0.02,0.99,0.0,0.0,0.12
2026-07-27 13:55:39.461,0.0,-0.02,0.99,0.0,0.0,0.12
2026-07-27 13:55:39.513,-0.0,-0.02,0.99,0.06,0.0,0.12
2026-07-27 13:55:39.513,-0.0,-0.02,0.99,0.06,0.0,0.12
2026-07-27 13:55:39.550,0.0,-0.02,0.99,0.06,-0.06,0.18
2026-07-27 13:55:39.550,0.0,-0.02,0.99,0.0,-0.06,0.18
2026-07-27 13:55:39.591,0.0,-0.02,0.99,0.0,-0.06,0.18
2026-07-27 13:55:39.636,0.0,-0.02,0.99,0.0,-0.06,0.18
2026-07-27 13:55:39.636,0.0,-0.02,0.99,0.0,-0.06,0.18
2026-07-27 13:55:39.680,0.0,-0.02,0.99,0.0,-0.06,0.18
2026-07-27 13:55:39.680,0.0,-0.02,0.99,0.0,-0.06,0.18
2026-07-27 13:55:39.724,-0.0,-0.02,0.99,0.0,-0.06,0.18
2026-07-27 13:55:39.724,-0.0,-0.02,0.99,0.0,0.0,0.18
2026-07-27 13:55:39.810,-0.0,-0.02,0.99,0.0,0.0,0.18
2026-07-27 13:55:39.810,-0.0,-0.02,0.99,0.0,0.0,0.12
2026-07-27 13:55:39.811,-0.0,-0.02,0.99,0.0,0.0,0.12
2026-07-27 13:55:39.811,0.0,-0.02,0.99,0.0,0.0,0.18
2026-07-27 13:55:39.855,0.0,-0.02,0.99,0.0,0.0,0.18
2026-07-27 13:55:39.856,-0.0,-0.02,0.99,0.0,0.0,0.18
