Sample,Timestamp,Elapsed_s,AccX,AccY,AccZ,GyroX,GyroY,GyroZ
0,2026-08-03 13:23:11.086,0.0,-0.11,-0.11,0.79,42.79,71.47,-122.44
1,2026-08-03 13:23:11.116,0.03,-0.27,-0.02,0.88,136.6,131.71,-76.42
2,2026-08-03 13:23:11.145,0.059,-0.4,0.06,1.08,175.54,132.93,-41.08
3,2026-08-03 13:23:11.160,0.074,-0.4,0.06,1.08,175.54,132.93,-41.08
4,2026-08-03 13:23:11.189,0.103,-0.46,0.13,1.11,96.68,62.56,-29.97
5,2026-08-03 13:23:11.212,0.126,-0.46,0.13,1.11,96.68,62.56,-29.97
6,2026-08-03 13:23:11.235,0.149,-0.44,0.13,0.93,-10.13,9.4,-37.84
7,2026-08-03 13:23:11.268,0.182,-0.44,0.13,0.93,-44.74,5.25,-40.28
8,2026-08-03 13:23:11.281,0.195,-0.38,0.04,0.74,-44.74,5.25,-40.28
9,2026-08-03 13:23:11.310,0.224,-0.32,-0.08,0.68,-28.32,11.35,-33.2
10,2026-08-03 13:23:11.325,0.239,-0.32,-0.08,0.68,-28.32,11.35,-33.2
11,2026-08-03 13:23:11.355,0.269,-0.23,-0.17,0.7,-8.79,3.72,-20.26
12,2026-08-03 13:23:11.375,0.289,-0.23,-0.17,0.7,-8.79,3.72,-20.26
13,2026-08-03 13:23:11.420,0.334,-0.1,-0.21,0.77,-5.8,-24.17,1.28
14,2026-08-03 13:23:11.447,0.361,0.07,-0.21,0.89,-23.32,-64.33,24.84
15,2026-08-03 13:23:11.476,0.39,0.18,-0.14,0.98,-44.8,-99.06,41.26
16,2026-08-03 13:23:11.493,0.407,0.18,-0.14,0.98,-44.8,-99.06,41.26
17,2026-08-03 13:23:11.532,0.446,0.24,-0.12,0.99,-48.89,-118.16,43.33
18,2026-08-03 13:23:11.550,0.464,0.24,-0.12,0.99,-48.89,-118.16,43.33
19,2026-08-03 13:23:11.568,0.482,0.28,-0.19,0.94,-51.45,-113.65,41.75
20,2026-08-03 13:23:11.595,0.509,0.28,-0.19,0.94,-72.45,-106.87,88.87
21,2026-08-03 13:23:11.612,0.526,0.37,-0.25,0.95,-72.45,-106.87,88.87
22,2026-08-03 13:23:11.640,0.554,0.43,-0.26,1.05,-38.02,-102.42,149.66
23,2026-08-03 13:23:11.655,0.569,0.43,-0.26,1.05,-38.02,-102.42,149.66
24,2026-08-03 13:23:11.702,0.616,0.29,-0.26,1.13,45.84,-65.06,149.6
25,2026-08-03 13:23:11.730,0.644,0.06,-0.2,1.24,94.73,5.74,108.15
26,2026-08-03 13:23:11.748,0.662,-0.07,-0.06,1.46,92.22,79.22,58.04
27,2026-08-03 13:23:11.776,0.69,-0.07,-0.06,1.46,92.22,79.22,58.04
28,2026-08-03 13:23:11.805,0.719,-0.06,0.04,1.56,45.17,100.22,26.0
29,2026-08-03 13:23:11.820,0.734,-0.06,0.04,1.56,45.17,100.22,26.0
30,2026-08-03 13:23:11.851,0.765,-0.06,0.08,1.37,-11.84,52.19,24.54
31,2026-08-03 13:23:11.865,0.779,-0.06,0.08,1.37,-73.18,-4.7,38.21
32,2026-08-03 13:23:11.895,0.809,-0.08,0.07,1.09,-73.18,-4.7,38.21
33,2026-08-03 13:23:11.911,0.825,-0.02,-0.06,0.94,-173.77,-25.33,53.41
34,2026-08-03 13:23:11.940,0.854,-0.02,-0.06,0.94,-173.77,-25.33,53.41
35,2026-08-03 13:23:11.955,0.869,0.04,-0.19,0.85,-233.89,-18.07,51.39
36,2026-08-03 13:23:11.985,0.899,0.04,-0.19,0.85,-233.89,-18.07,51.39
37,2026-08-03 13:23:12.009,0.923,0.02,-0.18,0.69,-175.72,-11.47,26.31
38,2026-08-03 13:23:12.031,0.945,-0.02,-0.16,0.55,-94.06,-14.1,4.88
39,2026-08-03 13:23:12.045,0.959,-0.02,-0.16,0.55,-94.06,-14.1,4.88
40,2026-08-03 13:23:12.075,0.989,-0.04,-0.18,0.55,-53.34,-10.19,-8.18
41,2026-08-03 13:23:12.090,1.004,-0.04,-0.18,0.55,-53.34,-10.19,-8.18
42,2026-08-03 13:23:12.121,1.035,-0.05,-0.18,0.6,-32.17,0.12,-20.32
43,2026-08-03 13:23:12.158,1.072,-0.07,-0.2,0.68,-34.85,11.9,-25.51
44,2026-08-03 13:23:12.181,1.095,-0.07,-0.2,0.68,-34.85,11.9,-25.51
45,2026-08-03 13:23:12.196,1.11,-0.07,-0.36,0.78,-71.59,29.97,-38.51
46,2026-08-03 13:23:12.227,1.141,-0.07,-0.36,0.78,-71.59,29.97,-38.51
47,2026-08-03 13:23:12.241,1.155,-0.04,-0.57,0.87,-75.99,57.86,-62.44
48,2026-08-03 13:23:12.270,1.184,-0.09,-0.71,1.06,7.63,95.64,-65.73
49,2026-08-03 13:23:12.310,1.224,-0.09,-0.71,1.06,7.63,95.64,-65.73
50,2026-08-03 13:23:12.315,1.229,-0.13,-0.82,1.28,101.99,128.48,-51.7
51,2026-08-03 13:23:12.346,1.26,-0.13,-0.82,1.28,101.99,128.48,-51.7
52,2026-08-03 13:23:12.390,1.304,-0.13,-0.8,1.3,155.27,128.36,-51.7
53,2026-08-03 13:23:12.392,1.306,-0.13,-0.8,1.3,155.27,128.36,-51.7
54,2026-08-03 13:23:12.456,1.37,-0.17,-0.59,1.13,217.35,95.09,-58.72
55,2026-08-03 13:23:12.456,1.37,-0.27,-0.3,0.93,293.21,57.92,-48.4
56,2026-08-03 13:23:12.457,1.371,-0.27,-0.3,0.93,293.21,57.92,-48.4
57,2026-08-03 13:23:12.510,1.424,-0.31,-0.03,0.83,341.13,23.74,-35.83
58,2026-08-03 13:23:12.511,1.425,-0.31,-0.03,0.83,341.13,23.74,-35.83
59,2026-08-03 13:23:12.570,1.484,-0.22,0.18,0.71,338.56,-19.84,-41.44
60,2026-08-03 13:23:12.571,1.485,-0.22,0.18,0.71,338.56,-19.84,-41.44
61,2026-08-03 13:23:12.571,1.485,-0.04,0.31,0.59,269.78,-56.52,-63.84
62,2026-08-03 13:23:12.690,1.604,0.09,0.35,0.54,162.05,-60.67,-77.09
63,2026-08-03 13:23:12.691,1.605,0.09,0.35,0.54,162.05,-60.67,-77.09
64,2026-08-03 13:23:12.691,1.605,0.13,0.36,0.58,82.64,-43.09,-63.35
65,2026-08-03 13:23:12.692,1.606,0.13,0.36,0.58,82.64,-43.09,-63.35
66,2026-08-03 13:23:12.692,1.606,0.13,0.42,0.65,51.7,-28.08,-40.53
67,2026-08-03 13:23:12.752,1.666,0.13,0.42,0.65,51.7,-28.08,-40.53
68,2026-08-03 13:23:12.753,1.667,0.15,0.55,0.74,43.46,-22.52,-26.67
69,2026-08-03 13:23:12.753,1.667,0.16,0.77,0.84,33.39,-19.78,-21.06
70,2026-08-03 13:23:12.811,1.725,0.16,0.77,0.84,33.39,-19.78,-21.06
71,2026-08-03 13:23:12.811,1.725,0.15,0.97,0.94,16.85,-9.64,-9.89
72,2026-08-03 13:23:12.879,1.793,0.15,0.97,0.94,16.85,-9.64,-9.89
73,2026-08-03 13:23:12.879,1.793,0.08,1.01,1.01,-3.11,13.37,17.52
74,2026-08-03 13:23:12.930,1.844,-0.05,0.92,1.06,-20.45,39.55,57.19
75,2026-08-03 13:23:12.931,1.845,-0.05,0.92,1.06,-20.45,39.55,57.19
76,2026-08-03 13:23:12.932,1.846,-0.2,0.86,1.12,-37.11,46.39,94.48
77,2026-08-03 13:23:12.991,1.905,-0.27,0.84,1.12,-48.52,27.34,115.05
78,2026-08-03 13:23:13.056,1.97,-0.29,0.81,1.04,-66.77,8.42,104.0
79,2026-08-03 13:23:13.057,1.971,-0.29,0.81,1.04,-66.77,8.42,104.0
80,2026-08-03 13:23:13.057,1.971,-0.39,0.73,1.02,-119.51,4.39,59.08
81,2026-08-03 13:23:13.111,2.025,-0.39,0.73,1.02,-119.51,4.39,59.08
82,2026-08-03 13:23:13.112,2.026,-0.53,0.63,1.02,-178.22,-7.69,-0.24
83,2026-08-03 13:23:13.112,2.026,-0.53,0.63,1.02,-194.27,-43.33,-50.29
84,2026-08-03 13:23:13.186,2.1,-0.52,0.53,0.86,-194.27,-43.33,-50.29
85,2026-08-03 13:23:13.186,2.1,-0.36,0.42,0.57,-165.1,-84.23,-77.09
86,2026-08-03 13:23:13.232,2.146,-0.36,0.42,0.57,-165.1,-84.23,-77.09
87,2026-08-03 13:23:13.233,2.147,-0.16,0.3,0.34,-114.62,-100.95,-82.95
88,2026-08-03 13:23:13.291,2.205,-0.01,0.2,0.29,-72.63,-81.97,-80.99
89,2026-08-03 13:23:13.352,2.266,0.04,0.12,0.4,-51.94,-42.42,-75.87
90,2026-08-03 13:23:13.353,2.267,-0.01,0.0,0.57,-40.1,-2.38,-65.25
91,2026-08-03 13:23:13.354,2.268,-0.01,0.0,0.57,-40.1,-2.38,-65.25
92,2026-08-03 13:23:13.483,2.397,-0.13,-0.11,0.73,-24.84,34.79,-60.42
93,2026-08-03 13:23:13.483,2.397,-0.26,-0.1,0.94,-6.65,70.98,-77.58
94,2026-08-03 13:23:13.484,2.398,-0.26,-0.1,0.94,-6.65,70.98,-77.58
95,2026-08-03 13:23:13.531,2.445,-0.31,0.03,1.2,8.61,96.25,-112.18
96,2026-08-03 13:23:13.531,2.445,-0.3,0.19,1.46,15.93,105.71,-143.8
97,2026-08-03 13:23:13.532,2.446,-0.3,0.19,1.46,15.93,105.71,-143.8
98,2026-08-03 13:23:13.532,2.446,-0.33,0.25,1.68,6.96,101.56,-159.73
99,2026-08-03 13:23:13.593,2.507,-0.33,0.25,1.68,6.96,101.56,-159.73
100,2026-08-03 13:23:13.593,2.507,-0.33,0.22,1.63,-8.79,73.55,-163.27
101,2026-08-03 13:23:13.594,2.508,-0.33,0.22,1.63,-8.79,73.55,-163.27
102,2026-08-03 13:23:13.655,2.569,-0.22,0.14,1.19,-15.99,23.01,-157.9
103,2026-08-03 13:23:13.655,2.569,-0.12,0.02,0.75,-23.19,-18.86,-148.32
104,2026-08-03 13:23:13.711,2.625,-0.12,0.02,0.75,-23.19,-18.86,-148.32
105,2026-08-03 13:23:13.711,2.625,-0.08,-0.04,0.63,-30.76,-30.33,-146.91
106,2026-08-03 13:23:13.770,2.684,-0.01,0.01,0.74,-16.6,-27.83,-151.92
107,2026-08-03 13:23:13.771,2.685,0.06,0.04,0.82,9.34,-30.58,-145.14
108,2026-08-03 13:23:13.837,2.751,0.12,-0.02,0.79,12.57,-32.71,-120.36
109,2026-08-03 13:23:13.838,2.752,0.12,-0.02,0.79,12.57,-32.71,-120.36
110,2026-08-03 13:23:13.891,2.805,0.14,-0.15,0.73,-4.52,-25.88,-88.56
111,2026-08-03 13:23:13.892,2.806,0.14,-0.15,0.73,-4.52,-25.88,-88.56
112,2026-08-03 13:23:13.893,2.807,0.15,-0.28,0.77,-16.48,-15.5,-60.97
113,2026-08-03 13:23:13.952,2.866,0.15,-0.28,0.77,-16.48,-15.5,-60.97
114,2026-08-03 13:23:13.952,2.866,0.18,-0.39,0.9,-14.71,-12.88,-43.03
115,2026-08-03 13:23:13.953,2.867,0.18,-0.39,0.9,-14.71,-12.88,-43.03
116,2026-08-03 13:23:14.010,2.924,0.28,-0.41,1.01,-8.36,-17.52,-34.67
117,2026-08-03 13:23:14.011,2.925,0.36,-0.34,1.19,-9.77,-15.93,-27.59
118,2026-08-03 13:23:14.077,2.991,0.36,-0.34,1.19,-9.77,-15.93,-27.59
119,2026-08-03 13:23:14.077,2.991,0.29,-0.21,1.51,-17.27,2.01,-19.78
120,2026-08-03 13:23:14.078,2.992,0.29,-0.21,1.51,-17.27,2.01,-19.78
121,2026-08-03 13:23:14.131,3.045,0.1,-0.06,1.6,-6.77,19.53,-15.62
122,2026-08-03 13:23:14.132,3.046,0.1,-0.06,1.6,-6.77,19.53,-15.62
123,2026-08-03 13:23:14.197,3.111,0.03,0.01,1.22,18.86,5.98,-0.31
124,2026-08-03 13:23:14.197,3.111,0.09,0.01,0.82,20.94,-22.83,27.34
125,2026-08-03 13:23:14.198,3.112,0.09,0.01,0.82,20.94,-22.83,27.34
126,2026-08-03 13:23:14.250,3.164,0.1,-0.02,0.77,-7.63,-28.87,46.08
127,2026-08-03 13:23:14.254,3.168,0.1,-0.02,0.77,-7.63,-28.87,46.08
128,2026-08-03 13:23:14.370,3.284,0.06,-0.04,0.92,-36.19,-15.38,50.29
129,2026-08-03 13:23:14.371,3.285,0.06,-0.04,0.92,-39.43,-7.87,46.39
130,2026-08-03 13:23:14.371,3.285,0.03,-0.06,0.94,-39.43,-7.87,46.39
131,2026-08-03 13:23:14.372,3.286,0.06,-0.09,0.77,-23.8,-12.63,44.74
132,2026-08-03 13:23:14.373,3.287,0.06,-0.09,0.77,-23.8,-12.63,44.74
133,2026-08-03 13:23:14.374,3.288,0.09,-0.16,0.57,-10.5,-16.48,53.16
134,2026-08-03 13:23:14.497,3.411,0.09,-0.16,0.57,-10.5,-16.48,53.16
135,2026-08-03 13:23:14.498,3.412,0.11,-0.25,0.51,-3.23,-10.19,68.42
136,2026-08-03 13:23:14.499,3.413,0.08,-0.27,0.72,3.42,10.56,76.9
137,2026-08-03 13:23:14.501,3.415,0.03,-0.21,1.09,7.02,38.76,70.98
138,2026-08-03 13:23:14.554,3.468,0.03,-0.21,1.09,7.02,38.76,70.98
139,2026-08-03 13:23:14.554,3.468,0.01,-0.15,1.3,16.3,51.76,58.96
140,2026-08-03 13:23:14.555,3.469,0.01,-0.15,1.3,16.3,51.76,58.96
141,2026-08-03 13:23:14.670,3.584,0.01,-0.13,1.29,30.52,43.76,50.72
142,2026-08-03 13:23:14.671,3.585,0.01,-0.13,1.29,30.52,43.76,50.72
143,2026-08-03 13:23:14.671,3.585,-0.04,-0.1,1.32,33.63,32.23,43.4
144,2026-08-03 13:23:14.730,3.644,-0.04,-0.1,1.32,33.63,32.23,43.4
145,2026-08-03 13:23:14.731,3.645,-0.04,-0.1,1.32,33.63,32.23,43.4
146,2026-08-03 13:23:14.731,3.645,-0.16,0.03,1.13,10.25,0.55,24.11
147,2026-08-03 13:23:14.732,3.646,-0.16,0.03,1.13,10.25,0.55,24.11
148,2026-08-03 13:23:14.857,3.771,-0.11,-0.0,0.74,-3.3,-28.87,42.05
149,2026-08-03 13:23:14.857,3.771,-0.06,-0.09,0.54,-13.12,-37.35,68.24
150,2026-08-03 13:23:14.858,3.772,-0.06,-0.09,0.54,-13.12,-37.35,68.24
151,2026-08-03 13:23:14.859,3.773,-0.03,-0.12,0.65,-9.16,-20.14,78.12
152,2026-08-03 13:23:14.910,3.824,-0.0,-0.02,0.87,15.32,-1.59,71.11
153,2026-08-03 13:23:14.911,3.825,-0.0,-0.02,0.87,15.32,-1.59,71.11
154,2026-08-03 13:23:14.911,3.825,0.03,0.09,0.98,41.69,1.89,66.89
155,2026-08-03 13:23:14.971,3.885,0.03,0.09,0.98,50.05,-2.56,78.0
156,2026-08-03 13:23:14.971,3.885,0.01,0.1,0.94,50.05,-2.56,78.0
157,2026-08-03 13:23:14.971,3.885,-0.04,0.03,0.87,49.01,-4.82,95.03
158,2026-08-03 13:23:15.031,3.945,-0.04,0.03,0.87,49.01,-4.82,95.03
159,2026-08-03 13:23:15.031,3.945,-0.06,0.01,0.83,51.15,-3.54,103.64
160,2026-08-03 13:23:15.032,3.946,-0.06,0.01,0.83,51.15,-3.54,103.64
161,2026-08-03 13:23:15.091,4.005,-0.09,0.05,0.89,49.93,4.33,103.21
162,2026-08-03 13:23:15.092,4.006,-0.09,0.05,0.89,49.93,4.33,103.21
163,2026-08-03 13:23:15.152,4.066,-0.16,0.11,1.01,34.3,16.85,100.16
164,2026-08-03 13:23:15.153,4.067,-0.28,0.12,1.09,8.61,21.97,98.33
165,2026-08-03 13:23:15.210,4.124,-0.36,0.05,1.06,-10.99,13.12,94.42
166,2026-08-03 13:23:15.211,4.125,-0.36,0.05,1.06,-10.99,13.12,94.42
167,2026-08-03 13:23:15.270,4.184,-0.36,-0.02,0.95,-14.59,-6.35,82.09
168,2026-08-03 13:23:15.272,4.186,-0.36,-0.02,0.95,-14.59,-6.35,82.09
169,2026-08-03 13:23:15.272,4.186,-0.28,-0.06,0.85,-2.32,-28.08,63.05
170,2026-08-03 13:23:15.331,4.245,-0.19,-0.03,0.82,23.86,-42.05,44.13
171,2026-08-03 13:23:15.332,4.246,-0.19,-0.03,0.82,23.86,-42.05,44.13
172,2026-08-03 13:23:15.332,4.246,-0.1,0.16,0.94,60.85,-39.55,29.66
173,2026-08-03 13:23:15.396,4.31,-0.1,0.16,0.94,60.85,-39.55,29.66
174,2026-08-03 13:23:15.451,4.365,-0.03,0.51,1.13,95.76,-23.07,31.07
175,2026-08-03 13:23:15.453,4.367,-0.03,0.78,1.21,110.84,-2.5,63.78
176,2026-08-03 13:23:15.691,4.605,-0.2,0.78,1.23,90.09,24.96,113.22
177,2026-08-03 13:23:15.694,4.608,-0.4,0.52,1.28,37.29,54.2,132.57
178,2026-08-03 13:23:15.695,4.609,-0.42,0.29,1.2,-9.83,54.69,90.03
179,2026-08-03 13:23:15.695,4.609,-0.31,0.27,1.0,-34.3,19.17,1.77
180,2026-08-03 13:23:15.696,4.61,-0.24,0.36,0.8,-51.7,-23.13,-87.04
181,2026-08-03 13:23:15.696,4.61,-0.24,0.36,0.8,-59.88,-51.57,-151.06
182,2026-08-03 13:23:15.696,4.61,-0.22,0.45,0.66,-59.88,-51.57,-151.06
183,2026-08-03 13:23:15.696,4.61,-0.17,0.52,0.59,-52.86,-63.6,-190.73
184,2026-08-03 13:23:15.751,4.665,-0.17,0.52,0.59,-52.86,-63.6,-190.73
185,2026-08-03 13:23:15.752,4.666,-0.12,0.55,0.63,-40.89,-58.96,-211.12
186,2026-08-03 13:23:15.813,4.727,-0.12,0.55,0.63,-40.89,-58.96,-211.12
187,2026-08-03 13:23:15.813,4.727,-0.06,0.57,0.74,-28.93,-46.26,-220.28
188,2026-08-03 13:23:15.814,4.728,-0.06,0.57,0.74,-16.6,-36.68,-221.25
189,2026-08-03 13:23:15.876,4.79,0.01,0.59,0.86,-16.6,-36.68,-221.25
190,2026-08-03 13:23:15.877,4.791,0.06,0.56,0.96,-8.67,-32.29,-211.06
191,2026-08-03 13:23:15.931,4.845,0.06,0.56,0.96,-8.67,-32.29,-211.06
192,2026-08-03 13:23:15.943,4.857,0.07,0.49,0.99,-6.04,-33.02,-192.2
193,2026-08-03 13:23:16.111,5.025,0.07,0.4,0.95,-6.96,-36.93,-173.4
194,2026-08-03 13:23:16.112,5.026,0.07,0.4,0.95,-8.73,-38.39,-159.67
195,2026-08-03 13:23:16.113,5.027,0.08,0.33,0.9,-8.73,-38.39,-159.67
196,2026-08-03 13:23:16.113,5.027,0.1,0.28,0.85,-6.23,-35.28,-149.23
197,2026-08-03 13:23:16.114,5.028,0.13,0.24,0.81,1.46,-29.17,-138.43
198,2026-08-03 13:23:16.115,5.029,0.17,0.22,0.81,6.84,-20.81,-126.83
199,2026-08-03 13:23:16.172,5.086,0.17,0.22,0.81,6.84,-20.81,-126.83
200,2026-08-03 13:23:16.172,5.086,0.19,0.21,0.86,-1.59,-6.35,-115.36
201,2026-08-03 13:23:16.239,5.153,0.14,0.19,0.99,-15.81,16.05,-105.65
202,2026-08-03 13:23:16.241,5.155,0.14,0.19,0.99,-15.81,16.05,-105.65
203,2026-08-03 13:23:16.242,5.156,0.01,0.22,1.29,-16.54,38.88,-104.43
204,2026-08-03 13:23:16.291,5.205,0.01,0.22,1.29,-16.54,38.88,-104.43
205,2026-08-03 13:23:16.292,5.206,-0.17,0.34,1.6,-14.1,45.41,-117.68
206,2026-08-03 13:23:16.351,5.265,-0.24,0.44,1.56,-9.64,17.76,-129.94
207,2026-08-03 13:23:16.353,5.267,-0.24,0.44,1.56,-9.64,17.76,-129.94
208,2026-08-03 13:23:16.353,5.267,-0.16,0.37,1.1,-0.79,-31.13,-118.65
209,2026-08-03 13:23:16.412,5.326,-0.16,0.37,1.1,-0.79,-31.13,-118.65
210,2026-08-03 13:23:16.414,5.328,-0.08,0.14,0.65,-10.68,-56.7,-91.25
211,2026-08-03 13:23:16.471,5.385,-0.07,-0.07,0.54,-29.3,-45.96,-76.66
212,2026-08-03 13:23:16.474,5.388,-0.01,-0.09,0.66,-22.34,-32.17,-84.96
213,2026-08-03 13:23:16.531,5.445,0.18,0.01,0.73,8.06,-35.77,-92.83
214,2026-08-03 13:23:16.533,5.447,0.18,0.01,0.73,8.06,-35.77,-92.83
215,2026-08-03 13:23:16.591,5.505,0.35,0.04,0.73,29.48,-41.32,-74.89
216,2026-08-03 13:23:16.592,5.506,0.43,-0.0,0.74,30.21,-35.46,-36.38
217,2026-08-03 13:23:16.651,5.565,0.43,-0.0,0.74,30.21,-35.46,-36.38
218,2026-08-03 13:23:16.653,5.567,0.43,0.01,0.83,23.86,-22.64,1.59
219,2026-08-03 13:23:16.771,5.685,0.43,0.01,0.83,23.86,-22.64,1.59
220,2026-08-03 13:23:16.772,5.686,0.43,0.01,0.83,23.86,-22.64,1.59
221,2026-08-03 13:23:16.773,5.687,0.37,0.23,1.13,19.84,-7.32,60.55
222,2026-08-03 13:23:16.773,5.687,0.31,0.32,1.29,16.66,-5.98,89.84
223,2026-08-03 13:23:16.891,5.805,0.22,0.36,1.47,11.47,-5.37,113.59
224,2026-08-03 13:23:16.892,5.806,0.22,0.36,1.47,11.47,-5.37,113.59
225,2026-08-03 13:23:16.893,5.807,0.12,0.41,1.49,7.87,-5.25,125.79
226,2026-08-03 13:23:16.893,5.807,0.06,0.38,1.26,-5.07,0.12,128.54
227,2026-08-03 13:23:16.894,5.808,0.06,0.38,1.26,-5.07,0.12,128.54
228,2026-08-03 13:23:16.951,5.865,0.05,0.25,0.91,-24.6,8.12,128.6
229,2026-08-03 13:23:16.951,5.865,0.04,0.13,0.76,-44.68,18.01,122.19
230,2026-08-03 13:23:17.014,5.928,0.04,0.13,0.76,-44.68,18.01,122.19
231,2026-08-03 13:23:17.014,5.928,0.01,0.06,0.86,-66.41,29.72,102.54
232,2026-08-03 13:23:17.131,6.045,-0.03,0.05,1.02,-79.83,31.74,72.45
233,2026-08-03 13:23:17.132,6.046,-0.03,0.05,1.02,-79.83,31.74,72.45
234,2026-08-03 13:23:17.133,6.047,-0.04,0.09,1.1,-78.0,15.75,40.65
235,2026-08-03 13:23:17.133,6.047,-0.04,0.09,1.1,-59.27,-16.78,19.17
236,2026-08-03 13:23:17.133,6.047,-0.01,0.1,1.02,-59.27,-16.78,19.17
237,2026-08-03 13:23:17.190,6.104,0.03,0.05,0.86,-30.82,-49.93,11.72
238,2026-08-03 13:23:17.372,6.286,0.03,0.05,0.86,-30.82,-49.93,11.72
239,2026-08-03 13:23:17.372,6.286,0.06,-0.05,0.73,-18.37,-55.91,5.0
240,2026-08-03 13:23:17.373,6.287,0.06,-0.05,0.73,-18.37,-55.91,5.0
241,2026-08-03 13:23:17.373,6.287,0.08,-0.16,0.69,-28.2,-30.03,-11.23
242,2026-08-03 13:23:17.374,6.288,0.06,-0.25,0.74,-42.48,7.63,-33.51
243,2026-08-03 13:23:17.374,6.288,0.02,-0.3,0.83,-49.26,40.34,-55.42
244,2026-08-03 13:23:17.375,6.289,0.02,-0.3,0.83,-49.26,40.34,-55.42
245,2026-08-03 13:23:17.376,6.29,-0.02,-0.35,0.86,-43.4,60.18,-73.18
246,2026-08-03 13:23:17.434,6.348,-0.07,-0.33,0.9,-23.32,69.89,-89.23
247,2026-08-03 13:23:17.440,6.354,-0.07,-0.33,0.9,-23.32,69.89,-89.23
248,2026-08-03 13:23:17.491,6.405,-0.15,-0.22,1.08,-1.95,80.93,-107.97
249,2026-08-03 13:23:17.492,6.406,-0.19,-0.13,1.22,7.45,90.33,-123.47
250,2026-08-03 13:23:17.551,6.465,-0.19,-0.13,1.13,9.64,84.96,-125.73
251,2026-08-03 13:23:17.552,6.466,-0.17,-0.21,0.94,5.37,69.76,-119.63
252,2026-08-03 13:23:17.611,6.525,-0.17,-0.21,0.94,5.37,69.76,-119.63
253,2026-08-03 13:23:17.611,6.525,-0.15,-0.28,0.85,-4.15,57.8,-118.59
254,2026-08-03 13:23:17.672,6.586,-0.15,-0.28,0.85,-4.15,57.8,-118.59
255,2026-08-03 13:23:17.672,6.586,-0.12,-0.27,0.88,-6.29,49.68,-127.32
256,2026-08-03 13:23:17.672,6.586,-0.05,-0.2,0.94,5.92,37.78,-138.0
257,2026-08-03 13:23:17.737,6.651,-0.05,-0.2,0.94,5.92,37.78,-138.0
258,2026-08-03 13:23:17.738,6.652,0.05,-0.15,0.93,24.6,21.48,-137.21
259,2026-08-03 13:23:17.791,6.705,0.13,-0.14,0.89,32.29,10.13,-119.08
260,2026-08-03 13:23:17.792,6.706,0.13,-0.14,0.89,32.29,10.13,-119.08
261,2026-08-03 13:23:17.918,6.832,0.11,-0.2,0.87,20.69,8.36,-87.65
262,2026-08-03 13:23:17.919,6.833,0.03,-0.31,0.85,2.38,10.56,-54.81
263,2026-08-03 13:23:17.971,6.885,0.03,-0.31,0.85,2.38,10.56,-54.81
264,2026-08-03 13:23:17.979,6.893,-0.03,-0.39,0.83,-4.27,8.3,-34.24
265,2026-08-03 13:23:17.979,6.893,-0.0,-0.4,0.82,6.47,-1.59,-28.02
266,2026-08-03 13:23:17.979,6.893,0.08,-0.36,0.86,24.11,-13.43,-27.16
267,2026-08-03 13:23:18.034,6.948,0.08,-0.36,0.86,24.11,-13.43,-27.16
268,2026-08-03 13:23:18.047,6.961,0.13,-0.25,1.03,34.79,-14.65,-26.73
269,2026-08-03 13:23:18.047,6.961,0.09,-0.11,1.3,32.84,1.59,-27.28
270,2026-08-03 13:23:18.151,7.065,0.09,-0.11,1.3,32.84,1.59,-27.28
271,2026-08-03 13:23:18.151,7.065,0.02,0.0,1.44,29.17,15.44,-24.54
272,2026-08-03 13:23:18.152,7.066,0.02,0.0,1.44,29.17,15.44,-24.54
273,2026-08-03 13:23:18.211,7.125,0.04,0.05,1.28,33.08,3.54,-12.88
274,2026-08-03 13:23:18.212,7.126,0.11,0.05,1.02,27.04,-17.33,4.94
275,2026-08-03 13:23:18.212,7.126,0.14,0.01,0.87,4.27,-20.94,20.39
276,2026-08-03 13:23:18.215,7.129,0.14,0.01,0.87,4.27,-20.94,20.39
277,2026-08-03 13:23:18.271,7.185,0.14,0.01,0.87,-16.72,-9.03,26.92
278,2026-08-03 13:23:18.337,7.251,0.09,0.03,0.99,-29.17,7.51,25.15
279,2026-08-03 13:23:18.337,7.251,0.04,0.02,1.06,-34.91,17.09,21.67
280,2026-08-03 13:23:18.391,7.305,0.01,-0.07,0.99,-31.74,13.24,20.87
281,2026-08-03 13:23:18.452,7.366,-0.0,-0.18,0.88,-26.25,8.36,18.55
282,2026-08-03 13:23:18.453,7.367,-0.02,-0.26,0.87,-27.89,15.14,9.77
283,2026-08-03 13:23:18.510,7.424,-0.02,-0.26,0.87,-27.89,15.14,9.77
284,2026-08-03 13:23:18.512,7.426,-0.02,-0.3,0.93,-31.43,26.98,-3.54
285,2026-08-03 13:23:18.512,7.426,-0.02,-0.3,0.93,-30.15,35.1,-16.78
286,2026-08-03 13:23:18.631,7.545,-0.01,-0.28,0.99,-30.15,35.1,-16.78
287,2026-08-03 13:23:18.633,7.547,0.0,-0.25,1.03,-29.24,41.14,-26.0
288,2026-08-03 13:23:18.633,7.547,0.01,-0.25,1.0,-29.66,45.9,-28.44
289,2026-08-03 13:23:18.692,7.606,-0.02,-0.26,1.0,-24.23,48.77,-25.7
290,2026-08-03 13:23:18.693,7.607,-0.02,-0.26,1.0,-24.23,48.77,-25.7
291,2026-08-03 13:23:18.693,7.607,-0.09,-0.23,1.07,-17.58,50.72,-22.77
292,2026-08-03 13:23:18.872,7.786,-0.13,-0.2,1.03,-14.83,42.11,-16.78
293,2026-08-03 13:23:18.873,7.787,-0.13,-0.2,1.03,-14.83,42.11,-16.78
294,2026-08-03 13:23:18.873,7.787,-0.12,-0.21,0.84,-14.59,20.39,-0.37
295,2026-08-03 13:23:18.874,7.788,-0.12,-0.27,0.7,-20.32,4.52,20.39
296,2026-08-03 13:23:18.878,7.792,-0.12,-0.27,0.7,-20.32,4.52,20.39
297,2026-08-03 13:23:18.878,7.792,-0.15,-0.3,0.73,-24.29,3.42,34.06
298,2026-08-03 13:23:18.878,7.792,-0.15,-0.3,0.73,-14.04,6.47,37.84
299,2026-08-03 13:23:18.938,7.852,-0.17,-0.29,0.84,-14.04,6.47,37.84
300,2026-08-03 13:23:18.939,7.853,-0.15,-0.26,0.93,1.53,4.82,38.15
301,2026-08-03 13:23:19.053,7.967,-0.15,-0.26,0.93,1.53,4.82,38.15
302,2026-08-03 13:23:19.053,7.967,-0.11,-0.28,0.96,8.91,-2.99,43.82
303,2026-08-03 13:23:19.054,7.968,-0.08,-0.33,0.92,9.03,-16.24,54.69
304,2026-08-03 13:23:19.055,7.969,-0.08,-0.33,0.92,9.03,-16.24,54.69
305,2026-08-03 13:23:19.055,7.969,-0.04,-0.36,0.89,8.67,-30.58,62.32
306,2026-08-03 13:23:19.114,8.028,-0.04,-0.36,0.89,8.67,-30.58,62.32
307,2026-08-03 13:23:19.116,8.03,-0.04,-0.36,0.89,8.67,-30.58,62.32
308,2026-08-03 13:23:19.170,8.084,-0.05,-0.23,0.93,10.5,-46.39,64.76
309,2026-08-03 13:23:19.185,8.099,-0.05,-0.23,0.93,7.81,-48.03,68.73
310,2026-08-03 13:23:19.187,8.101,-0.08,-0.17,0.95,7.81,-48.03,68.73
311,2026-08-03 13:23:19.234,8.148,-0.13,-0.15,0.95,1.77,-46.69,75.56
312,2026-08-03 13:23:19.290,8.204,-0.2,-0.21,0.93,-5.55,-44.13,81.85
313,2026-08-03 13:23:19.291,8.205,-0.2,-0.21,0.93,-5.55,-44.13,81.85
314,2026-08-03 13:23:19.291,8.205,-0.23,-0.3,0.9,-8.91,-43.33,81.12
315,2026-08-03 13:23:19.356,8.27,-0.23,-0.3,0.9,-8.91,-43.33,81.12
316,2026-08-03 13:23:19.357,8.271,-0.21,-0.34,0.88,-0.67,-48.58,71.41
317,2026-08-03 13:23:19.411,8.325,-0.13,-0.32,0.89,16.42,-56.15,58.17
318,2026-08-03 13:23:19.412,8.326,-0.13,-0.32,0.89,16.42,-56.15,58.17
319,2026-08-03 13:23:19.413,8.327,-0.03,-0.25,0.99,30.46,-56.95,48.71
320,2026-08-03 13:23:19.532,8.446,-0.03,-0.25,0.99,30.46,-56.95,48.71
321,2026-08-03 13:23:19.537,8.451,0.03,-0.15,1.15,36.74,-48.71,47.85
322,2026-08-03 13:23:19.537,8.451,0.01,-0.07,1.34,39.37,-36.19,54.87
323,2026-08-03 13:23:19.538,8.452,0.01,-0.07,1.34,43.46,-32.04,62.38
324,2026-08-03 13:23:19.538,8.452,-0.01,-0.01,1.42,43.46,-32.04,62.38
325,2026-08-03 13:23:19.657,8.571,0.04,0.08,1.36,46.08,-41.2,65.12
326,2026-08-03 13:23:19.657,8.571,0.09,0.15,1.25,37.05,-49.62,66.28
327,2026-08-03 13:23:19.658,8.572,0.15,0.15,1.1,22.64,-49.74,68.91
328,2026-08-03 13:23:19.774,8.688,0.15,0.15,1.1,22.64,-49.74,68.91
329,2026-08-03 13:23:19.776,8.69,0.19,0.11,0.96,12.94,-41.69,71.41
330,2026-08-03 13:23:19.777,8.691,0.18,0.06,0.92,2.81,-26.06,69.89
331,2026-08-03 13:23:19.778,8.692,0.2,0.02,0.89,-1.46,-16.05,64.58
332,2026-08-03 13:23:19.835,8.749,0.2,0.02,0.89,-1.46,-16.05,64.58
333,2026-08-03 13:23:19.836,8.75,0.25,0.01,0.88,6.04,-15.08,58.78
334,2026-08-03 13:23:19.890,8.804,0.27,0.01,0.91,9.95,-11.35,54.02
335,2026-08-03 13:23:19.891,8.805,0.27,0.01,0.91,9.95,-11.35,54.02
336,2026-08-03 13:23:19.965,8.879,0.26,0.01,0.93,4.94,-7.39,52.0
337,2026-08-03 13:23:19.966,8.88,0.24,-0.0,0.91,-1.28,-8.18,53.53
338,2026-08-03 13:23:20.011,8.925,0.22,-0.02,0.9,-8.24,-8.54,54.87
339,2026-08-03 13:23:20.131,9.045,0.22,-0.02,0.9,-8.24,-8.54,54.87
340,2026-08-03 13:23:20.198,9.112,0.19,-0.02,0.9,-17.21,-8.36,53.89
341,2026-08-03 13:23:20.199,9.113,0.19,-0.02,0.9,-17.21,-8.36,53.89
342,2026-08-03 13:23:20.200,9.114,0.16,-0.02,0.88,-31.68,-10.86,54.81
343,2026-08-03 13:23:20.201,9.115,0.16,-0.02,0.88,-31.68,-10.86,54.81
344,2026-08-03 13:23:20.201,9.115,0.13,-0.07,0.84,-43.64,-13.67,57.86
345,2026-08-03 13:23:20.201,9.115,0.1,-0.15,0.8,-38.02,-12.08,56.58
346,2026-08-03 13:23:20.202,9.116,0.1,-0.15,0.8,-38.02,-12.08,56.58
347,2026-08-03 13:23:20.203,9.117,0.1,-0.23,0.83,-20.14,-3.97,49.19
348,2026-08-03 13:23:20.251,9.165,0.1,-0.23,0.83,-20.14,-3.97,49.19
349,2026-08-03 13:23:20.252,9.166,0.09,-0.3,0.91,-7.2,7.14,38.21
350,2026-08-03 13:23:20.252,9.166,0.06,-0.4,0.95,-6.35,15.08,25.21
351,2026-08-03 13:23:20.311,9.225,0.06,-0.4,0.95,-6.35,15.08,25.21
352,2026-08-03 13:23:20.311,9.225,0.06,-0.45,0.98,-10.31,19.65,10.01
353,2026-08-03 13:23:20.313,9.227,0.06,-0.45,0.98,-10.31,19.65,10.01
354,2026-08-03 13:23:20.370,9.284,0.07,-0.43,1.06,-15.32,28.56,-5.74
355,2026-08-03 13:23:20.371,9.285,0.07,-0.43,1.06,-15.32,28.56,-5.74
356,2026-08-03 13:23:20.433,9.347,0.03,-0.36,1.21,-18.43,44.86,-17.27
357,2026-08-03 13:23:20.434,9.348,0.03,-0.36,1.21,-18.43,44.86,-17.27
358,2026-08-03 13:23:20.490,9.404,-0.09,-0.19,1.22,14.47,55.24,-27.22
359,2026-08-03 13:23:20.496,9.41,-0.09,-0.19,1.22,14.47,55.24,-27.22
360,2026-08-03 13:23:20.567,9.481,-0.09,-0.13,1.08,35.4,45.04,-30.94
361,2026-08-03 13:23:20.567,9.481,-0.14,-0.06,1.06,32.53,45.78,-37.54
362,2026-08-03 13:23:20.568,9.482,-0.14,-0.06,1.06,32.53,45.78,-37.54
363,2026-08-03 13:23:20.670,9.584,-0.21,-0.03,1.06,12.21,48.22,-41.08
364,2026-08-03 13:23:20.671,9.585,-0.21,-0.03,1.06,12.21,48.22,-41.08
365,2026-08-03 13:23:20.671,9.585,-0.23,-0.11,0.94,-5.43,38.21,-35.16
366,2026-08-03 13:23:20.672,9.586,-0.21,-0.2,0.81,-13.61,23.62,-26.98
367,2026-08-03 13:23:20.791,9.705,-0.15,-0.24,0.79,-15.87,14.47,-26.86
368,2026-08-03 13:23:20.866,9.78,-0.15,-0.24,0.79,-15.87,14.47,-26.86
369,2026-08-03 13:23:20.869,9.783,-0.13,-0.24,0.82,-16.48,9.03,-32.65
370,2026-08-03 13:23:20.870,9.784,-0.13,-0.24,0.82,-16.48,9.03,-32.65
371,2026-08-03 13:23:20.871,9.785,-0.14,-0.26,0.77,-16.66,1.77,-38.64
372,2026-08-03 13:23:20.873,9.787,-0.15,-0.27,0.67,-16.24,-6.71,-46.63
373,2026-08-03 13:23:20.873,9.787,-0.15,-0.27,0.67,-14.1,-11.05,-56.88
374,2026-08-03 13:23:20.911,9.825,-0.14,-0.25,0.6,-14.1,-11.05,-56.88
375,2026-08-03 13:23:20.912,9.826,-0.12,-0.24,0.57,-8.91,-8.79,-64.39
376,2026-08-03 13:23:20.916,9.83,-0.12,-0.24,0.57,-8.91,-8.79,-64.39
377,2026-08-03 13:23:20.971,9.885,-0.09,-0.26,0.58,2.14,-5.49,-66.22
378,2026-08-03 13:23:21.038,9.952,-0.04,-0.3,0.63,19.9,-5.8,-64.58
379,2026-08-03 13:23:21.040,9.954,0.05,-0.33,0.74,37.29,-7.2,-61.46
380,2026-08-03 13:23:21.091,10.005,0.13,-0.32,0.9,46.75,-6.1,-54.99
381,2026-08-03 13:23:21.093,10.007,0.13,-0.32,0.9,46.75,-6.1,-54.99
382,2026-08-03 13:23:21.093,10.007,0.18,-0.31,1.07,49.5,-3.3,-42.18
383,2026-08-03 13:23:21.151,10.065,0.18,-0.31,1.07,49.5,-3.3,-42.18
384,2026-08-03 13:23:21.152,10.066,0.22,-0.28,1.17,49.32,-5.31,-22.95
385,2026-08-03 13:23:21.216,10.13,0.22,-0.28,1.17,49.32,-5.31,-22.95
386,2026-08-03 13:23:21.219,10.133,0.26,-0.24,1.19,49.5,-13.31,-0.98
387,2026-08-03 13:23:21.281,10.195,0.24,-0.12,1.25,53.65,-18.07,18.37
388,2026-08-03 13:23:21.282,10.196,0.17,0.1,1.34,59.69,-13.43,32.04
389,2026-08-03 13:23:21.331,10.245,0.12,0.3,1.35,55.54,-1.77,44.25
390,2026-08-03 13:23:21.452,10.366,0.09,0.35,1.2,35.95,6.9,59.27
391,2026-08-03 13:23:21.453,10.367,0.04,0.29,1.03,13.0,8.54,70.07
392,2026-08-03 13:23:21.453,10.367,0.04,0.29,1.03,0.55,12.02,66.22
393,2026-08-03 13:23:21.453,10.367,-0.03,0.21,0.97,0.55,12.02,66.22
394,2026-08-03 13:23:21.453,10.367,-0.06,0.17,0.97,2.2,17.76,47.18
395,2026-08-03 13:23:21.511,10.425,-0.06,0.17,0.97,2.2,17.76,47.18
396,2026-08-03 13:23:21.511,10.425,-0.02,0.18,0.94,12.7,14.28,22.89
397,2026-08-03 13:23:21.573,10.487,-0.02,0.18,0.94,12.7,14.28,22.89
398,2026-08-03 13:23:21.574,10.488,0.08,0.21,0.82,23.99,0.12,8.79
399,2026-08-03 13:23:21.632,10.546,0.16,0.18,0.67,31.25,-12.27,12.02
400,2026-08-03 13:23:21.632,10.546,0.2,0.14,0.59,36.8,-12.82,23.74
401,2026-08-03 13:23:21.633,10.547,0.2,0.14,0.59,36.8,-12.82,23.74
402,2026-08-03 13:23:21.694,10.608,0.23,0.14,0.65,41.32,-0.85,33.57
403,2026-08-03 13:23:21.750,10.664,0.24,0.17,0.81,39.43,18.37,40.89
404,2026-08-03 13:23:21.751,10.665,0.24,0.17,0.81,39.43,18.37,40.89
405,2026-08-03 13:23:21.752,10.666,0.22,0.19,1.03,29.17,34.73,48.95
406,2026-08-03 13:23:21.871,10.785,0.22,0.19,1.03,29.17,34.73,48.95
407,2026-08-03 13:23:21.872,10.786,0.18,0.2,1.18,13.18,38.7,57.68
408,2026-08-03 13:23:21.872,10.786,0.14,0.17,1.22,-5.37,31.56,65.73
409,2026-08-03 13:23:21.873,10.787,0.11,0.12,1.18,-22.52,22.83,71.9
410,2026-08-03 13:23:21.932,10.846,0.11,0.12,1.18,-22.52,22.83,71.9
411,2026-08-03 13:23:21.933,10.847,0.07,0.08,1.16,-36.07,19.78,73.91
412,2026-08-03 13:23:21.937,10.851,0.07,0.08,1.16,-36.07,19.78,73.91
413,2026-08-03 13:23:22.056,10.97,0.01,0.08,1.19,-49.19,21.97,68.6
414,2026-08-03 13:23:22.060,10.974,0.01,0.08,1.19,-58.59,18.19,57.62
415,2026-08-03 13:23:22.060,10.974,-0.03,0.08,1.16,-58.59,18.19,57.62
416,2026-08-03 13:23:22.180,11.094,-0.01,0.07,1.0,-56.46,2.93,48.03
417,2026-08-03 13:23:22.183,11.097,-0.01,0.07,1.0,-56.46,2.93,48.03
418,2026-08-03 13:23:22.185,11.099,0.03,0.04,0.82,-46.02,-10.25,42.36
419,2026-08-03 13:23:22.186,11.1,0.07,0.01,0.7,-33.75,-11.54,40.04
420,2026-08-03 13:23:22.186,11.1,0.08,-0.04,0.68,-22.58,-0.61,40.71
421,2026-08-03 13:23:22.186,11.1,0.06,-0.07,0.77,-15.93,21.06,39.86
422,2026-08-03 13:23:22.231,11.145,0.06,-0.07,0.77,-15.93,21.06,39.86
423,2026-08-03 13:23:22.232,11.146,0.04,-0.08,0.93,-10.13,41.02,34.48
424,2026-08-03 13:23:22.290,11.204,0.04,-0.08,0.93,-10.13,41.02,34.48
425,2026-08-03 13:23:22.291,11.205,0.05,-0.08,1.02,0.12,45.65,29.11
426,2026-08-03 13:23:22.291,11.205,0.05,-0.08,1.02,10.8,39.37,27.22
427,2026-08-03 13:23:22.354,11.268,0.07,-0.1,1.0,10.8,39.37,27.22
428,2026-08-03 13:23:22.355,11.269,0.08,-0.12,0.95,15.69,35.03,26.86
429,2026-08-03 13:23:22.411,11.325,0.08,-0.12,0.95,15.69,35.03,26.86
430,2026-08-03 13:23:22.530,11.444,0.05,-0.08,0.99,18.01,36.13,26.67
431,2026-08-03 13:23:22.531,11.445,0.05,-0.08,0.99,18.01,36.13,26.67
432,2026-08-03 13:23:22.531,11.445,-0.02,-0.0,1.11,20.26,42.11,28.08
433,2026-08-03 13:23:22.533,11.447,-0.02,-0.0,1.11,20.26,42.11,28.08
434,2026-08-03 13:23:22.534,11.448,-0.1,0.03,1.17,27.34,42.36,34.42
435,2026-08-03 13:23:22.534,11.448,-0.13,0.03,1.1,48.58,21.0,44.92
436,2026-08-03 13:23:22.591,11.505,-0.05,0.17,1.03,70.31,-10.93,52.73
437,2026-08-03 13:23:22.650,11.564,-0.05,0.17,1.03,70.31,-10.93,52.73
438,2026-08-03 13:23:22.651,11.565,0.02,0.44,1.1,60.06,-20.69,64.09
439,2026-08-03 13:23:22.651,11.565,-0.03,0.59,1.23,6.59,2.62,92.96
440,2026-08-03 13:23:22.652,11.566,-0.03,0.59,1.23,-57.19,25.27,132.32
441,2026-08-03 13:23:22.712,11.626,-0.15,0.6,1.2,-57.19,25.27,132.32
442,2026-08-03 13:23:22.712,11.626,-0.24,0.6,1.09,-100.28,26.0,163.02
443,2026-08-03 13:23:22.776,11.69,-0.24,0.6,1.09,-100.28,26.0,163.02
444,2026-08-03 13:23:22.776,11.69,-0.28,0.56,1.01,-120.54,18.68,179.93
445,2026-08-03 13:23:22.777,11.691,-0.28,0.56,1.01,-120.54,18.68,179.93
446,2026-08-03 13:23:22.833,11.747,-0.21,0.43,0.93,-114.2,4.03,186.83
447,2026-08-03 13:23:22.833,11.747,-0.07,0.27,0.9,-88.68,-16.3,187.19
448,2026-08-03 13:23:22.891,11.805,-0.07,0.27,0.9,-88.68,-16.3,187.19
449,2026-08-03 13:23:22.893,11.807,0.03,0.23,1.0,-76.78,-21.73,177.98
450,2026-08-03 13:23:22.896,11.81,0.03,0.23,1.0,-76.78,-21.73,177.98
451,2026-08-03 13:23:22.952,11.866,0.03,0.32,1.18,-92.29,-8.42,160.1
452,2026-08-03 13:23:22.953,11.867,0.03,0.32,1.18,-92.29,-8.42,160.1
453,2026-08-03 13:23:23.010,11.924,-0.1,0.43,1.32,-110.96,-2.56,145.2
454,2026-08-03 13:23:23.011,11.925,-0.26,0.49,1.24,-114.14,-20.87,136.17
455,2026-08-03 13:23:23.013,11.927,-0.26,0.49,1.24,-114.14,-20.87,136.17
456,2026-08-03 13:23:23.070,11.984,-0.32,0.45,0.92,-98.33,-51.39,130.55
457,2026-08-03 13:23:23.071,11.985,-0.32,0.45,0.92,-98.33,-51.39,130.55
458,2026-08-03 13:23:23.071,11.985,-0.32,0.35,0.62,-71.17,-61.83,126.1
459,2026-08-03 13:23:23.131,12.045,-0.32,0.35,0.62,-71.17,-61.83,126.1
460,2026-08-03 13:23:23.132,12.046,-0.35,0.35,0.59,-49.44,-32.53,116.94
461,2026-08-03 13:23:23.190,12.104,-0.47,0.42,0.73,-39.86,14.4,107.3
462,2026-08-03 13:23:23.191,12.105,-0.47,0.42,0.73,-39.86,14.4,107.3
463,2026-08-03 13:23:23.191,12.105,-0.61,0.37,0.74,-38.09,41.69,108.76
464,2026-08-03 13:23:23.255,12.169,-0.61,0.37,0.74,-38.09,41.69,108.76
465,2026-08-03 13:23:23.255,12.169,-0.66,0.09,0.56,-31.25,32.65,117.37
466,2026-08-03 13:23:23.256,12.17,-0.66,0.09,0.56,-31.25,32.65,117.37
467,2026-08-03 13:23:23.310,12.224,-0.55,-0.37,0.4,1.28,-1.22,117.68
468,2026-08-03 13:23:23.311,12.225,-0.55,-0.37,0.4,54.93,-31.31,96.13
469,2026-08-03 13:23:23.371,12.285,-0.35,-0.69,0.5,54.93,-31.31,96.13
470,2026-08-03 13:23:23.371,12.285,-0.15,-0.6,0.87,81.73,-37.78,53.28
471,2026-08-03 13:23:23.372,12.286,-0.15,-0.6,0.87,81.73,-37.78,53.28
472,2026-08-03 13:23:23.431,12.345,-0.07,-0.28,1.18,54.63,-29.3,21.0
473,2026-08-03 13:23:23.490,12.404,-0.15,-0.07,1.19,8.06,-23.5,25.76
474,2026-08-03 13:23:23.491,12.405,-0.15,-0.07,1.19,8.06,-23.5,25.76
475,2026-08-03 13:23:23.491,12.405,-0.25,0.01,0.97,-18.98,-26.31,50.29
476,2026-08-03 13:23:23.553,12.467,-0.3,0.06,0.81,-19.23,-29.79,69.89
477,2026-08-03 13:23:23.682,12.596,-0.33,0.11,0.81,-7.08,-21.91,78.49
478,2026-08-03 13:23:23.682,12.596,-0.36,0.13,0.9,-0.73,-0.43,78.55
479,2026-08-03 13:23:23.683,12.597,-0.36,0.13,0.9,-0.73,-0.43,78.55
480,2026-08-03 13:23:23.790,12.704,-0.39,0.12,1.0,-2.2,22.09,75.81
481,2026-08-03 13:23:23.792,12.706,-0.39,0.12,1.0,-2.2,22.09,75.81
482,2026-08-03 13:23:23.793,12.707,-0.39,0.08,1.03,-1.04,28.99,72.02
483,2026-08-03 13:23:23.793,12.707,-0.36,0.04,1.0,6.53,17.46,66.28
484,2026-08-03 13:23:23.795,12.709,-0.3,0.02,0.94,14.77,-2.2,60.73
485,2026-08-03 13:23:23.796,12.71,-0.3,0.02,0.94,14.77,-2.2,60.73
486,2026-08-03 13:23:23.797,12.711,-0.25,0.02,0.91,18.98,-19.1,57.07
487,2026-08-03 13:23:23.850,12.764,-0.25,0.02,0.91,18.98,-19.1,57.07
488,2026-08-03 13:23:23.851,12.765,-0.22,0.03,0.91,14.71,-24.35,55.18
489,2026-08-03 13:23:23.911,12.825,-0.22,0.03,0.91,14.71,-24.35,55.18
490,2026-08-03 13:23:23.912,12.826,-0.22,0.03,0.91,14.71,-24.35,55.18
491,2026-08-03 13:23:23.913,12.827,-0.22,0.03,0.91,14.71,-24.35,55.18
492,2026-08-03 13:23:23.976,12.89,-0.23,0.05,0.95,-0.98,-14.1,52.73
493,2026-08-03 13:23:23.976,12.89,-0.23,0.05,0.95,-4.64,-7.51,49.01
494,2026-08-03 13:23:23.977,12.891,-0.28,0.09,0.98,-4.64,-7.51,49.01
495,2026-08-03 13:23:24.031,12.945,-0.33,0.14,1.01,-11.72,1.89,41.02
496,2026-08-03 13:23:24.033,12.947,-0.37,0.16,0.99,-16.36,9.89,30.88
497,2026-08-03 13:23:24.091,13.005,-0.37,0.16,0.99,-16.36,9.89,30.88
498,2026-08-03 13:23:24.092,13.006,-0.42,0.15,0.99,-18.07,17.15,20.32
499,2026-08-03 13:23:24.153,13.067,-0.42,0.15,0.99,-18.07,17.15,20.32
500,2026-08-03 13:23:24.153,13.067,-0.46,0.13,0.99,-22.09,21.18,8.79
501,2026-08-03 13:23:24.153,13.067,-0.46,0.13,0.99,-23.38,13.37,-0.98
502,2026-08-03 13:23:24.211,13.125,-0.46,0.1,0.95,-23.38,13.37,-0.98
503,2026-08-03 13:23:24.211,13.125,-0.43,0.07,0.9,-20.2,-0.61,-7.69
504,2026-08-03 13:23:24.271,13.185,-0.43,0.07,0.9,-20.2,-0.61,-7.69
505,2026-08-03 13:23:24.271,13.185,-0.39,0.02,0.9,-19.96,-7.2,-12.88
506,2026-08-03 13:23:24.272,13.186,-0.39,0.02,0.9,-19.96,-7.2,-12.88
507,2026-08-03 13:23:24.334,13.248,-0.36,-0.04,0.95,-25.09,-4.76,-18.31
508,2026-08-03 13:23:24.335,13.249,-0.35,-0.1,1.0,-31.07,-1.04,-26.73
509,2026-08-03 13:23:24.391,13.305,-0.33,-0.12,1.03,-33.57,0.37,-39.18
510,2026-08-03 13:23:24.392,13.306,-0.33,-0.12,1.03,-33.57,0.37,-39.18
511,2026-08-03 13:23:24.510,13.424,-0.32,-0.13,1.04,-32.29,3.36,-52.49
512,2026-08-03 13:23:24.511,13.425,-0.33,-0.14,1.08,-24.54,8.0,-63.96
513,2026-08-03 13:23:24.511,13.425,-0.33,-0.14,1.08,-3.91,4.27,-71.96
514,2026-08-03 13:23:24.511,13.425,-0.3,-0.11,1.11,-3.91,4.27,-71.96
515,2026-08-03 13:23:24.512,13.426,-0.22,-0.09,1.04,21.97,-12.02,-70.31
516,2026-08-03 13:23:24.574,13.488,-0.22,-0.09,1.04,21.97,-12.02,-70.31
517,2026-08-03 13:23:24.574,13.488,-0.16,-0.15,0.9,32.17,-29.36,-54.57
518,2026-08-03 13:23:24.630,13.544,-0.16,-0.15,0.9,32.17,-29.36,-54.57
519,2026-08-03 13:23:24.631,13.545,-0.14,-0.28,0.8,24.05,-38.09,-35.58
520,2026-08-03 13:23:24.632,13.546,-0.14,-0.28,0.8,24.05,-38.09,-35.58
521,2026-08-03 13:23:24.697,13.611,-0.12,-0.36,0.83,12.7,-41.08,-31.86
522,2026-08-03 13:23:24.697,13.611,-0.03,-0.33,0.93,11.66,-44.68,-46.08
523,2026-08-03 13:23:24.751,13.665,0.09,-0.19,1.04,20.69,-49.01,-64.27
524,2026-08-03 13:23:24.752,13.666,0.09,-0.19,1.04,20.69,-49.01,-64.27
525,2026-08-03 13:23:24.813,13.727,0.19,-0.06,1.09,22.89,-47.49,-69.89
526,2026-08-03 13:23:24.813,13.727,0.24,-0.05,1.03,13.49,-41.38,-52.92
527,2026-08-03 13:23:24.870,13.784,0.23,-0.17,0.95,0.31,-31.37,-20.32
528,2026-08-03 13:23:24.871,13.785,0.23,-0.17,0.95,0.31,-31.37,-20.32
529,2026-08-03 13:23:24.931,13.845,0.17,-0.27,0.93,-15.93,-13.37,6.35
530,2026-08-03 13:23:24.932,13.846,0.17,-0.27,0.93,-15.93,-13.37,6.35
531,2026-08-03 13:23:24.933,13.847,0.11,-0.24,0.96,-28.26,3.78,13.43
532,2026-08-03 13:23:24.990,13.904,0.11,-0.24,0.96,-28.26,3.78,13.43
533,2026-08-03 13:23:24.991,13.905,0.11,-0.14,0.95,-30.21,10.56,8.67
534,2026-08-03 13:23:24.997,13.911,0.11,-0.14,0.95,-30.21,10.56,8.67
535,2026-08-03 13:23:25.050,13.964,0.1,-0.08,0.88,-26.0,9.28,7.39
536,2026-08-03 13:23:25.051,13.965,0.1,-0.08,0.83,-18.68,4.33,10.56
537,2026-08-03 13:23:25.112,14.026,0.1,-0.07,0.82,-9.83,-1.04,12.94
538,2026-08-03 13:23:25.171,14.085,0.12,-0.05,0.84,-1.22,-4.33,15.62
539,2026-08-03 13:23:25.172,14.086,0.1,-0.03,0.89,6.16,-4.94,20.81
540,2026-08-03 13:23:25.232,14.146,0.1,-0.03,0.89,6.16,-4.94,20.81
541,2026-08-03 13:23:25.232,14.146,0.05,-0.03,0.95,10.56,-3.54,28.26
542,2026-08-03 13:23:25.290,14.204,0.05,-0.03,0.95,10.56,-3.54,28.26
543,2026-08-03 13:23:25.291,14.205,0.05,-0.03,0.95,10.56,-3.54,28.26
544,2026-08-03 13:23:25.291,14.205,-0.07,-0.13,0.99,13.31,-4.52,36.8
545,2026-08-03 13:23:25.358,14.272,-0.1,-0.18,0.96,17.03,-7.93,34.18
546,2026-08-03 13:23:25.419,14.333,-0.09,-0.21,0.93,23.25,-9.46,27.34
547,2026-08-03 13:23:25.419,14.333,-0.07,-0.22,0.94,29.85,-7.63,18.92
548,2026-08-03 13:23:25.531,14.445,-0.07,-0.22,0.94,29.85,-7.63,18.92
549,2026-08-03 13:23:25.533,14.447,-0.05,-0.2,0.96,33.26,-2.69,10.56
550,2026-08-03 13:23:25.534,14.448,-0.05,-0.2,0.96,33.26,-2.69,10.56
551,2026-08-03 13:23:25.536,14.45,-0.01,-0.16,0.97,33.63,2.56,2.08
552,2026-08-03 13:23:25.536,14.45,0.01,-0.09,0.99,33.75,6.71,-5.07
553,2026-08-03 13:23:25.590,14.504,0.01,-0.09,0.99,33.75,6.71,-5.07
554,2026-08-03 13:23:25.591,14.505,0.02,-0.02,1.0,33.51,9.28,-8.12
555,2026-08-03 13:23:25.594,14.508,0.02,-0.02,1.0,33.51,9.28,-8.12
556,2026-08-03 13:23:25.654,14.568,0.03,0.01,0.97,33.14,8.61,-6.35
557,2026-08-03 13:23:25.655,14.569,0.03,0.01,0.97,33.14,8.61,-6.35
558,2026-08-03 13:23:25.656,14.57,0.05,0.01,0.92,33.51,6.29,-1.65
559,2026-08-03 13:23:25.772,14.686,0.05,0.01,0.92,33.51,6.29,-1.65
560,2026-08-03 13:23:25.773,14.687,0.07,0.02,0.9,35.22,5.07,4.21
561,2026-08-03 13:23:25.774,14.688,0.07,0.04,0.95,37.48,6.53,10.62
562,2026-08-03 13:23:25.774,14.688,0.04,0.06,1.05,36.07,11.66,16.3
563,2026-08-03 13:23:25.837,14.751,0.04,0.06,1.05,36.07,11.66,16.3
564,2026-08-03 13:23:25.837,14.751,-0.02,0.08,1.15,29.72,16.66,19.78
565,2026-08-03 13:23:25.890,14.804,-0.08,0.09,1.18,22.46,15.44,20.57
566,2026-08-03 13:23:25.891,14.805,-0.08,0.09,1.18,22.46,15.44,20.57
567,2026-08-03 13:23:25.953,14.867,-0.11,0.1,1.13,17.7,9.09,18.37
568,2026-08-03 13:23:25.954,14.868,-0.15,0.12,1.08,15.32,3.85,13.92
569,2026-08-03 13:23:26.018,14.932,-0.21,0.14,1.06,13.43,2.87,8.61
570,2026-08-03 13:23:26.018,14.932,-0.27,0.16,1.02,13.0,3.23,0.0
571,2026-08-03 13:23:26.071,14.985,-0.27,0.16,1.02,13.0,3.23,0.0
572,2026-08-03 13:23:26.071,14.985,-0.31,0.19,0.99,16.42,2.14,-14.28
573,2026-08-03 13:23:26.072,14.986,-0.31,0.19,0.99,16.42,2.14,-14.28
574,2026-08-03 13:23:26.132,15.046,-0.32,0.25,1.03,19.41,2.14,-31.62
575,2026-08-03 13:23:26.132,15.046,-0.34,0.3,1.13,17.21,2.5,-46.45
576,2026-08-03 13:23:26.190,15.104,-0.34,0.3,1.13,17.21,2.5,-46.45
577,2026-08-03 13:23:26.191,15.105,-0.38,0.33,1.26,14.1,-3.23,-54.02
578,2026-08-03 13:23:26.262,15.176,-0.42,0.3,1.3,12.94,-14.47,-53.96
579,2026-08-03 13:23:26.263,15.177,-0.42,0.3,1.3,12.94,-14.47,-53.96
580,2026-08-03 13:23:26.311,15.225,-0.46,0.22,1.21,7.26,-23.25,-51.76
581,2026-08-03 13:23:26.313,15.227,-0.5,0.11,1.09,-4.52,-27.34,-55.91
582,2026-08-03 13:23:26.432,15.346,-0.52,0.05,0.96,-15.75,-32.65,-71.17
583,2026-08-03 13:23:26.433,15.347,-0.52,0.05,0.96,-15.75,-32.65,-71.17
584,2026-08-03 13:23:26.433,15.347,-0.48,0.05,0.78,-20.2,-44.8,-95.09
585,2026-08-03 13:23:26.434,15.348,-0.48,0.05,0.78,-20.2,-44.8,-95.09
586,2026-08-03 13:23:26.434,15.348,-0.38,0.12,0.57,-17.76,-57.92,-122.13
587,2026-08-03 13:23:26.491,15.405,-0.26,0.25,0.49,-16.6,-53.83,-148.74
588,2026-08-03 13:23:26.492,15.406,-0.14,0.42,0.61,-21.91,-25.39,-170.41
589,2026-08-03 13:23:26.551,15.465,-0.14,0.42,0.61,-21.91,-25.39,-170.41
590,2026-08-03 13:23:26.553,15.467,-0.05,0.54,0.88,-29.42,11.47,-180.11
591,2026-08-03 13:23:26.671,15.585,-0.02,0.56,1.14,-33.94,36.01,-175.29
592,2026-08-03 13:23:26.671,15.585,-0.01,0.49,1.2,-30.33,35.89,-160.22
593,2026-08-03 13:23:26.672,15.586,-0.01,0.49,1.2,-30.33,35.89,-160.22
594,2026-08-03 13:23:26.674,15.588,0.01,0.38,1.09,-19.1,17.21,-143.13
595,2026-08-03 13:23:26.677,15.591,0.01,0.38,1.09,-19.1,17.21,-143.13
596,2026-08-03 13:23:26.733,15.647,0.02,0.28,0.93,-8.36,-1.53,-130.92
597,2026-08-03 13:23:26.792,15.706,0.02,0.21,0.8,-2.14,-9.46,-124.63
598,2026-08-03 13:23:26.792,15.706,0.02,0.21,0.8,1.04,-5.92,-121.4
599,2026-08-03 13:23:26.793,15.707,0.03,0.16,0.76,1.04,-5.92,-121.4
600,2026-08-03 13:23:26.851,15.765,0.05,0.16,0.82,4.21,2.26,-117.25
601,2026-08-03 13:23:26.852,15.766,0.05,0.16,0.82,4.21,2.26,-117.25
602,2026-08-03 13:23:26.852,15.766,0.08,0.17,0.93,5.62,8.97,-107.24
603,2026-08-03 13:23:26.912,15.826,0.08,0.17,0.93,5.62,8.97,-107.24
604,2026-08-03 13:23:26.912,15.826,0.06,0.15,1.07,-0.85,15.62,-90.15
605,2026-08-03 13:23:26.971,15.885,0.06,0.15,1.07,-0.85,15.62,-90.15
606,2026-08-03 13:23:26.971,15.885,0.02,0.09,1.15,-11.11,19.78,-71.78
607,2026-08-03 13:23:26.972,15.886,0.02,0.09,1.15,-14.1,15.44,-57.74
608,2026-08-03 13:23:27.032,15.946,0.02,0.03,1.09,-14.1,15.44,-57.74
609,2026-08-03 13:23:27.033,15.947,0.05,-0.02,0.97,-9.28,9.4,-49.5
610,2026-08-03 13:23:27.091,16.005,0.05,-0.04,0.88,-3.36,11.35,-45.84
611,2026-08-03 13:23:27.092,16.006,0.05,-0.04,0.88,-3.36,11.35,-45.84
612,2026-08-03 13:23:27.153,16.067,0.01,-0.05,0.88,1.34,23.07,-43.95
613,2026-08-03 13:23:27.154,16.068,0.01,-0.05,0.88,1.34,23.07,-43.95
614,2026-08-03 13:23:27.154,16.068,-0.11,-0.05,1.05,2.2,45.72,-42.91
615,2026-08-03 13:23:27.271,16.185,-0.24,-0.04,1.26,-3.11,68.6,-44.25
616,2026-08-03 13:23:27.272,16.186,-0.24,-0.04,1.26,-3.11,68.6,-44.25
617,2026-08-03 13:23:27.273,16.187,-0.3,-0.03,1.26,-5.43,61.83,-39.98
618,2026-08-03 13:23:27.273,16.187,-0.32,-0.06,0.99,-7.87,23.38,-18.49
619,2026-08-03 13:23:27.275,16.189,-0.32,-0.06,0.99,-7.87,23.38,-18.49
620,2026-08-03 13:23:27.330,16.244,-0.41,-0.2,0.7,-27.34,-8.54,10.07
621,2026-08-03 13:23:27.333,16.247,-0.41,-0.2,0.7,-27.34,-8.54,10.07
622,2026-08-03 13:23:27.390,16.304,-0.54,-0.38,0.64,-35.22,-22.95,18.74
623,2026-08-03 13:23:27.451,16.365,-0.52,-0.38,0.76,13.18,-49.13,-5.98
624,2026-08-03 13:23:27.451,16.365,-0.26,-0.18,0.78,82.21,-80.44,-46.2
625,2026-08-03 13:23:27.511,16.425,-0.26,-0.18,0.78,82.21,-80.44,-46.2
626,2026-08-03 13:23:27.511,16.425,0.05,-0.02,0.72,101.07,-76.72,-70.37
627,2026-08-03 13:23:27.512,16.426,0.05,-0.02,0.72,101.07,-76.72,-70.37
628,2026-08-03 13:23:27.570,16.484,0.2,-0.01,0.72,68.18,-39.98,-66.65
629,2026-08-03 13:23:27.570,16.484,0.22,-0.05,0.79,29.72,-4.33,-48.58
630,2026-08-03 13:23:27.571,16.485,0.22,-0.05,0.79,29.72,-4.33,-48.58
631,2026-08-03 13:23:27.631,16.545,0.21,-0.03,0.91,13.85,12.88,-29.85
632,2026-08-03 13:23:27.632,16.546,0.21,-0.03,0.91,13.85,12.88,-29.85
633,2026-08-03 13:23:27.633,16.547,0.2,0.03,1.04,14.65,15.81,-10.93
634,2026-08-03 13:23:27.698,16.612,0.2,0.03,1.04,14.65,15.81,-10.93
635,2026-08-03 13:23:27.750,16.664,0.16,0.08,1.13,14.47,12.27,12.51
636,2026-08-03 13:23:27.751,16.665,0.16,0.08,1.13,14.47,12.27,12.51
637,2026-08-03 13:23:27.752,16.666,0.08,0.09,1.17,6.04,7.14,39.67
638,2026-08-03 13:23:27.752,16.666,-0.03,0.07,1.21,-7.51,5.8,62.32
639,2026-08-03 13:23:27.753,16.667,-0.03,0.07,1.21,-7.51,5.8,62.32
640,2026-08-03 13:23:27.810,16.724,-0.14,0.05,1.29,-19.47,10.01,72.69
641,2026-08-03 13:23:27.811,16.725,-0.14,0.05,1.29,-19.47,10.01,72.69
642,2026-08-03 13:23:27.870,16.784,-0.24,0.06,1.37,-26.86,16.24,70.74
643,2026-08-03 13:23:27.870,16.784,-0.25,0.08,1.27,-27.89,11.9,63.42
644,2026-08-03 13:23:27.930,16.844,-0.25,0.08,1.27,-27.89,11.9,63.42
645,2026-08-03 13:23:27.931,16.845,-0.16,0.11,0.98,-20.02,-11.78,62.01
646,2026-08-03 13:23:28.051,16.965,-0.12,0.1,0.74,-18.19,-30.94,67.57
647,2026-08-03 13:23:28.110,17.024,-0.12,0.1,0.74,-18.19,-30.94,67.57
648,2026-08-03 13:23:28.111,17.025,-0.19,0.09,0.8,-36.01,-19.65,66.83
649,2026-08-03 13:23:28.112,17.026,-0.3,0.09,1.05,-56.82,4.64,50.48
650,2026-08-03 13:23:28.112,17.026,-0.3,0.12,1.15,-56.76,5.8,26.37
651,2026-08-03 13:23:28.113,17.027,-0.21,0.13,1.0,-37.66,-19.65,8.48
652,2026-08-03 13:23:28.170,17.084,-0.13,0.12,0.83,-22.52,-41.02,-0.67
653,2026-08-03 13:23:28.171,17.085,-0.13,0.12,0.83,-22.52,-41.02,-0.67
654,2026-08-03 13:23:28.291,17.205,-0.1,0.1,0.78,-19.47,-41.2,-6.65
655,2026-08-03 13:23:28.292,17.206,-0.1,0.1,0.78,-19.47,-41.2,-6.65
656,2026-08-03 13:23:28.292,17.206,-0.09,0.07,0.79,-17.15,-29.79,-12.15
657,2026-08-03 13:23:28.292,17.206,-0.06,0.02,0.75,-7.08,-18.98,-15.75
658,2026-08-03 13:23:28.293,17.207,-0.06,0.02,0.75,-7.08,-18.98,-15.75
659,2026-08-03 13:23:28.364,17.278,-0.03,-0.02,0.71,9.58,-10.5,-17.46
660,2026-08-03 13:23:28.365,17.279,-0.03,-0.02,0.71,9.58,-10.5,-17.46
661,2026-08-03 13:23:28.365,17.279,-0.01,-0.05,0.7,24.48,1.04,-19.23
662,2026-08-03 13:23:28.474,17.388,-0.01,-0.05,0.7,24.48,1.04,-19.23
663,2026-08-03 13:23:28.474,17.388,-0.01,-0.08,0.75,33.87,17.94,-22.64
664,2026-08-03 13:23:28.474,17.388,-0.01,-0.08,0.75,39.73,37.17,-29.36
665,2026-08-03 13:23:28.474,17.388,-0.04,-0.07,0.88,39.73,37.17,-29.36
666,2026-08-03 13:23:28.475,17.389,-0.07,-0.05,1.06,42.6,53.1,-38.27
667,2026-08-03 13:23:28.535,17.449,-0.07,-0.05,1.06,42.6,53.1,-38.27
668,2026-08-03 13:23:28.536,17.45,-0.09,-0.05,1.16,43.88,60.49,-45.78
669,2026-08-03 13:23:28.719,17.633,-0.11,-0.06,1.22,46.69,60.55,-51.27
670,2026-08-03 13:23:28.719,17.633,-0.17,-0.05,1.35,51.09,57.92,-57.56
671,2026-08-03 13:23:28.719,17.633,-0.2,0.01,1.44,57.62,43.64,-65.92
672,2026-08-03 13:23:28.720,17.634,-0.2,0.01,1.44,57.62,43.64,-65.92
673,2026-08-03 13:23:28.720,17.634,-0.14,0.1,1.33,60.85,11.41,-70.56
674,2026-08-03 13:23:28.720,17.634,-0.07,0.16,1.08,47.24,-21.42,-62.32
675,2026-08-03 13:23:28.770,17.684,-0.07,0.16,1.08,47.24,-21.42,-62.32
676,2026-08-03 13:23:28.771,17.685,-0.05,0.17,0.87,13.06,-32.41,-42.97
677,2026-08-03 13:23:28.833,17.747,-0.05,0.17,0.87,-24.6,-19.59,-22.22
678,2026-08-03 13:23:28.833,17.747,-0.09,0.13,0.78,-24.6,-19.59,-22.22
679,2026-08-03 13:23:28.833,17.747,-0.11,0.11,0.82,-41.69,-0.43,-5.74
680,2026-08-03 13:23:28.890,17.804,-0.11,0.11,0.82,-41.69,-0.43,-5.74
681,2026-08-03 13:23:28.891,17.805,-0.1,0.12,0.91,-35.4,11.35,6.16
682,2026-08-03 13:23:28.892,17.806,-0.1,0.12,0.91,-35.4,11.35,6.16
683,2026-08-03 13:23:28.951,17.865,-0.05,0.14,0.95,-21.42,14.4,18.13
684,2026-08-03 13:23:28.952,17.866,-0.05,0.14,0.95,-21.42,14.4,18.13
685,2026-08-03 13:23:29.071,17.985,-0.01,0.13,0.93,-11.72,13.24,34.06
686,2026-08-03 13:23:29.071,17.985,-0.01,0.11,0.89,-9.58,12.45,52.06
687,2026-08-03 13:23:29.072,17.986,-0.01,0.11,0.89,-9.58,12.45,52.06
688,2026-08-03 13:23:29.072,17.986,-0.05,0.09,0.87,-12.39,12.33,67.08
689,2026-08-03 13:23:29.072,17.986,-0.11,0.08,0.87,-15.69,10.86,76.78
690,2026-08-03 13:23:29.131,18.045,-0.11,0.08,0.87,-15.69,10.86,76.78
691,2026-08-03 13:23:29.132,18.046,-0.18,0.05,0.91,-18.07,6.84,82.21
692,2026-08-03 13:23:29.198,18.112,-0.23,0.02,0.94,-17.64,-1.4,83.37
693,2026-08-03 13:23:29.198,18.112,-0.27,0.02,1.0,-13.79,-10.01,79.16
694,2026-08-03 13:23:29.252,18.166,-0.27,0.02,1.0,-13.79,-10.01,79.16
695,2026-08-03 13:23:29.252,18.166,-0.28,0.01,1.06,-7.51,-14.04,71.9
696,2026-08-03 13:23:29.317,18.231,-0.26,0.02,1.13,3.85,-14.22,66.1
697,2026-08-03 13:23:29.318,18.232,-0.26,0.02,1.13,3.85,-14.22,66.1
698,2026-08-03 13:23:29.371,18.285,-0.27,0.11,1.27,12.02,-7.93,61.22
699,2026-08-03 13:23:29.371,18.285,-0.26,0.22,1.26,4.27,-1.46,58.53
700,2026-08-03 13:23:29.430,18.344,-0.23,0.23,1.03,-16.54,-3.23,64.88
701,2026-08-03 13:23:29.431,18.345,-0.23,0.23,1.03,-16.54,-3.23,64.88
702,2026-08-03 13:23:29.431,18.345,-0.28,0.17,0.85,-42.79,-2.01,73.61
703,2026-08-03 13:23:29.498,18.412,-0.28,0.17,0.85,-42.79,-2.01,73.61
704,2026-08-03 13:23:29.498,18.412,-0.37,0.15,0.91,-66.41,10.44,67.32
705,2026-08-03 13:23:29.552,18.466,-0.45,0.16,1.05,-79.9,24.41,45.04
706,2026-08-03 13:23:29.552,18.466,-0.45,0.16,1.05,-75.32,21.0,20.26
707,2026-08-03 13:23:29.612,18.526,-0.44,0.14,1.02,-75.32,21.0,20.26
708,2026-08-03 13:23:29.613,18.527,-0.36,0.09,0.81,-51.09,-3.3,2.44
709,2026-08-03 13:23:29.672,18.586,-0.28,0.05,0.61,-23.68,-25.09,-8.85
710,2026-08-03 13:23:29.730,18.644,-0.24,0.03,0.54,-6.16,-26.73,-18.07
711,2026-08-03 13:23:29.791,18.705,-0.24,0.03,0.54,-6.16,-26.73,-18.07
712,2026-08-03 13:23:29.792,18.706,-0.26,0.03,0.61,6.23,-12.33,-26.49
713,2026-08-03 13:23:29.792,18.706,-0.28,0.03,0.73,19.96,5.74,-34.48
714,2026-08-03 13:23:29.792,18.706,-0.27,0.03,0.81,34.55,18.49,-41.99
715,2026-08-03 13:23:29.852,18.766,-0.27,0.03,0.81,34.55,18.49,-41.99
716,2026-08-03 13:23:29.853,18.767,-0.24,0.03,0.86,45.72,27.53,-47.42
717,2026-08-03 13:23:29.916,18.83,-0.23,0.02,0.94,48.95,39.98,-51.27
718,2026-08-03 13:23:29.916,18.83,-0.23,0.02,0.94,44.13,56.64,-55.3
719,2026-08-03 13:23:29.971,18.885,-0.26,-0.01,1.08,44.13,56.64,-55.3
720,2026-08-03 13:23:29.971,18.885,-0.33,-0.05,1.26,42.91,67.63,-60.85
721,2026-08-03 13:23:29.972,18.886,-0.33,-0.05,1.26,42.91,67.63,-60.85
722,2026-08-03 13:23:30.031,18.945,-0.35,-0.03,1.43,56.7,61.58,-71.84
723,2026-08-03 13:23:30.161,19.075,-0.22,0.06,1.46,75.38,31.98,-83.8
724,2026-08-03 13:23:30.163,19.077,-0.22,0.06,1.46,75.38,31.98,-83.8
725,2026-08-03 13:23:30.163,19.077,0.0,0.15,1.21,78.86,-16.85,-77.27
726,2026-08-03 13:23:30.163,19.077,0.16,0.2,0.86,52.86,-52.25,-41.2
727,2026-08-03 13:23:30.165,19.079,0.16,0.2,0.86,52.86,-52.25,-41.2
728,2026-08-03 13:23:30.165,19.079,0.08,0.21,0.73,-3.42,-35.4,11.05
729,2026-08-03 13:23:30.212,19.126,0.08,0.21,0.73,-3.42,-35.4,11.05
730,2026-08-03 13:23:30.212,19.126,-0.19,0.2,0.87,-63.66,23.44,58.53
731,2026-08-03 13:23:30.270,19.184,-0.19,0.2,0.87,-63.66,23.44,58.53
732,2026-08-03 13:23:30.271,19.185,-0.39,0.16,1.0,-92.71,68.36,89.23
733,2026-08-03 13:23:30.331,19.245,-0.39,0.13,0.9,-77.03,59.2,105.53
734,2026-08-03 13:23:30.332,19.246,-0.3,0.13,0.71,-41.93,20.2,115.66
735,2026-08-03 13:23:30.390,19.304,-0.3,0.13,0.71,-41.93,20.2,115.66
736,2026-08-03 13:23:30.391,19.305,-0.26,0.13,0.66,-23.99,0.31,121.89
737,2026-08-03 13:23:30.391,19.305,-0.28,0.15,0.74,-23.32,3.72,123.54
738,2026-08-03 13:23:30.452,19.366,-0.28,0.15,0.74,-23.32,3.72,123.54
739,2026-08-03 13:23:30.453,19.367,-0.3,0.2,0.83,-21.97,5.07,122.99
740,2026-08-03 13:23:30.510,19.424,-0.3,0.2,0.83,-21.97,5.07,122.99
741,2026-08-03 13:23:30.511,19.425,-0.31,0.27,0.84,-16.6,-3.42,125.37
742,2026-08-03 13:23:30.512,19.426,-0.31,0.27,0.84,-16.6,-3.42,125.37
743,2026-08-03 13:23:30.634,19.548,-0.33,0.33,0.86,-12.27,-8.48,131.65
744,2026-08-03 13:23:30.634,19.548,-0.33,0.33,0.86,-9.52,-3.97,137.15
745,2026-08-03 13:23:30.634,19.548,-0.35,0.38,0.89,-9.52,-3.97,137.15
746,2026-08-03 13:23:30.635,19.549,-0.31,0.43,0.86,-5.8,-1.46,139.65
747,2026-08-03 13:23:30.691,19.605,-0.27,0.49,0.76,-4.52,-3.17,142.09
748,2026-08-03 13:23:30.694,19.608,-0.27,0.49,0.76,-4.52,-3.17,142.09
749,2026-08-03 13:23:30.694,19.608,-0.32,0.5,0.75,-15.26,6.84,141.97
750,2026-08-03 13:23:30.752,19.666,-0.32,0.5,0.75,-15.26,6.84,141.97
751,2026-08-03 13:23:30.753,19.667,-0.44,0.48,0.94,-33.08,29.54,125.37
752,2026-08-03 13:23:30.810,19.724,-0.52,0.44,1.18,-45.23,43.7,86.49
753,2026-08-03 13:23:30.812,19.726,-0.52,0.44,1.18,-45.23,43.7,86.49
754,2026-08-03 13:23:30.812,19.726,-0.5,0.39,1.16,-38.09,27.59,42.24
755,2026-08-03 13:23:30.933,19.847,-0.5,0.39,1.16,-38.09,27.59,42.24
756,2026-08-03 13:23:30.933,19.847,-0.36,0.34,0.92,-8.36,-11.17,10.93
757,2026-08-03 13:23:30.933,19.847,-0.19,0.33,0.69,22.16,-37.11,-3.36
758,2026-08-03 13:23:30.934,19.848,-0.19,0.33,0.69,22.16,-37.11,-3.36
759,2026-08-03 13:23:30.935,19.849,-0.05,0.35,0.63,35.71,-31.56,-1.89
760,2026-08-03 13:23:30.991,19.905,-0.01,0.36,0.72,29.85,-4.64,13.67
761,2026-08-03 13:23:31.053,19.967,-0.06,0.32,0.82,10.5,25.51,36.5
762,2026-08-03 13:23:31.054,19.968,-0.15,0.3,0.9,-9.77,44.86,54.44
763,2026-08-03 13:23:31.118,20.032,-0.15,0.3,0.9,-9.77,44.86,54.44
764,2026-08-03 13:23:31.119,20.033,-0.19,0.33,0.97,-21.12,48.22,60.97
765,2026-08-03 13:23:31.171,20.085,-0.21,0.38,1.01,-26.18,39.67,60.85
766,2026-08-03 13:23:31.231,20.145,-0.21,0.38,1.01,-26.18,39.67,60.85
767,2026-08-03 13:23:31.231,20.145,-0.27,0.41,1.02,-34.18,28.2,61.89
768,2026-08-03 13:23:31.232,20.146,-0.27,0.41,1.02,-34.18,28.2,61.89
769,2026-08-03 13:23:31.232,20.146,-0.38,0.38,1.0,-47.36,19.41,64.7
770,2026-08-03 13:23:31.233,20.147,-0.38,0.38,1.0,-47.36,19.41,64.7
771,2026-08-03 13:23:31.290,20.204,-0.45,0.3,0.95,-57.01,9.52,64.82
772,2026-08-03 13:23:31.291,20.205,-0.45,0.3,0.95,-57.01,9.52,64.82
773,2026-08-03 13:23:31.291,20.205,-0.46,0.23,0.91,-57.13,-1.89,59.45
774,2026-08-03 13:23:31.595,20.509,-0.43,0.18,0.92,-53.34,-7.93,48.1
775,2026-08-03 13:23:31.596,20.51,-0.43,0.18,0.92,-53.34,-7.93,48.1
776,2026-08-03 13:23:31.596,20.51,-0.37,0.18,0.93,-49.74,-12.27,35.22
777,2026-08-03 13:23:31.596,20.51,-0.32,0.2,0.91,-46.87,-19.29,28.81
778,2026-08-03 13:23:31.597,20.511,-0.32,0.2,0.91,-46.87,-19.29,28.81
779,2026-08-03 13:23:31.597,20.511,-0.3,0.19,0.9,-49.13,-20.39,29.66
780,2026-08-03 13:23:31.598,20.512,-0.3,0.15,0.91,-54.26,-14.95,31.68
781,2026-08-03 13:23:31.598,20.512,-0.29,0.09,0.88,-57.19,-9.16,32.29
782,2026-08-03 13:23:31.598,20.512,-0.34,0.01,0.93,-55.36,1.65,30.52
783,2026-08-03 13:23:31.653,20.567,-0.42,-0.03,1.12,-42.97,18.01,21.97
784,2026-08-03 13:23:31.654,20.568,-0.42,-0.03,1.12,-42.97,18.01,21.97
785,2026-08-03 13:23:31.711,20.625,-0.42,-0.01,1.24,-16.17,20.08,8.73
786,2026-08-03 13:23:31.711,20.625,-0.29,0.03,1.09,13.79,-2.38,1.46
787,2026-08-03 13:23:31.712,20.626,-0.29,0.03,1.09,13.79,-2.38,1.46
788,2026-08-03 13:23:31.772,20.686,-0.13,0.03,0.79,30.94,-31.56,6.47
789,2026-08-03 13:23:31.772,20.686,-0.06,-0.01,0.63,31.07,-44.49,18.49
790,2026-08-03 13:23:31.831,20.745,-0.06,-0.01,0.63,31.07,-44.49,18.49
791,2026-08-03 13:23:31.832,20.746,-0.1,-0.05,0.7,16.78,-31.19,26.73
792,2026-08-03 13:23:31.896,20.81,-0.1,-0.05,0.7,-2.69,-2.69,24.05
793,2026-08-03 13:23:31.897,20.811,-0.21,-0.06,0.95,-2.69,-2.69,24.05
794,2026-08-03 13:23:31.898,20.812,-0.29,-0.05,1.18,-12.63,15.14,12.94
795,2026-08-03 13:23:31.952,20.866,-0.29,-0.05,1.18,-12.63,15.14,12.94
796,2026-08-03 13:23:31.953,20.867,-0.29,-0.03,1.23,-8.61,10.07,1.1
797,2026-08-03 13:23:31.954,20.868,-0.29,-0.03,1.23,-8.61,10.07,1.1
798,2026-08-03 13:23:32.011,20.925,-0.25,-0.01,1.16,-2.5,-4.03,-7.45
799,2026-08-03 13:23:32.012,20.926,-0.25,-0.01,1.16,-2.5,-4.03,-7.45
800,2026-08-03 13:23:32.012,20.926,-0.21,-0.0,1.05,-3.36,-13.73,-12.63
801,2026-08-03 13:23:32.131,21.045,-0.21,-0.0,1.05,-3.36,-13.73,-12.63
802,2026-08-03 13:23:32.131,21.045,-0.18,0.01,0.95,-6.9,-18.92,-15.14
803,2026-08-03 13:23:32.252,21.166,-0.15,0.02,0.89,-8.61,-20.45,-15.5
804,2026-08-03 13:23:32.253,21.167,-0.13,0.03,0.89,-7.57,-18.31,-13.73
805,2026-08-03 13:23:32.253,21.167,-0.13,0.05,0.95,-5.25,-14.47,-10.44
806,2026-08-03 13:23:32.256,21.17,-0.13,0.05,0.95,-5.25,-14.47,-10.44
807,2026-08-03 13:23:32.256,21.17,-0.12,0.05,1.01,-3.48,-12.02,-6.71
808,2026-08-03 13:23:32.257,21.171,-0.12,0.05,1.01,-3.48,-12.02,-6.71
809,2026-08-03 13:23:32.313,21.227,-0.09,0.04,1.01,-1.95,-14.16,-3.05
810,2026-08-03 13:23:32.313,21.227,-0.05,0.03,0.97,1.22,-19.96,0.55
811,2026-08-03 13:23:32.314,21.228,-0.05,0.03,0.97,1.22,-19.96,0.55
812,2026-08-03 13:23:32.371,21.285,-0.0,0.02,0.93,6.84,-24.54,4.09
813,2026-08-03 13:23:32.431,21.345,0.03,0.02,0.93,13.0,-23.5,8.42
814,2026-08-03 13:23:32.432,21.346,0.03,0.03,0.97,14.4,-16.48,13.85
815,2026-08-03 13:23:32.504,21.418,0.01,0.04,1.03,8.24,-8.61,18.8
816,2026-08-03 13:23:32.505,21.419,0.01,0.04,1.03,8.24,-8.61,18.8
817,2026-08-03 13:23:32.505,21.419,0.0,0.05,1.05,-0.61,-5.74,23.38
818,2026-08-03 13:23:32.550,21.464,0.0,0.05,1.05,-0.61,-5.74,23.38
819,2026-08-03 13:23:32.552,21.466,-0.02,0.04,1.02,-7.51,-6.71,28.87
820,2026-08-03 13:23:32.553,21.467,-0.02,0.04,1.02,-7.51,-6.71,28.87
821,2026-08-03 13:23:32.611,21.525,-0.05,-0.01,0.97,-12.08,-6.71,33.81
822,2026-08-03 13:23:32.670,21.584,-0.08,-0.08,0.94,-11.66,-5.25,34.61
823,2026-08-03 13:23:32.671,21.585,-0.08,-0.13,0.93,-4.88,-4.21,28.93
824,2026-08-03 13:23:32.731,21.645,-0.07,-0.14,0.97,2.01,-2.87,18.37
825,2026-08-03 13:23:32.732,21.646,-0.07,-0.14,0.97,2.01,-2.87,18.37
826,2026-08-03 13:23:32.791,21.705,-0.05,-0.11,1.01,2.44,-1.4,6.29
827,2026-08-03 13:23:32.793,21.707,-0.05,-0.11,1.01,2.44,-1.4,6.29
828,2026-08-03 13:23:32.795,21.709,-0.03,-0.06,1.03,-1.77,-1.46,-3.3
829,2026-08-03 13:23:32.851,21.765,-0.03,-0.06,1.03,-1.77,-1.46,-3.3
830,2026-08-03 13:23:32.852,21.766,-0.02,-0.02,1.03,-5.92,-2.14,-8.0
831,2026-08-03 13:23:32.852,21.766,-0.02,0.01,0.99,-7.02,-2.44,-9.09
832,2026-08-03 13:23:32.910,21.824,-0.02,0.01,0.99,-7.02,-2.44,-9.09
833,2026-08-03 13:23:32.911,21.825,-0.0,0.02,0.93,-4.33,-2.2,-8.73
834,2026-08-03 13:23:32.912,21.826,-0.0,0.02,0.93,-4.33,-2.2,-8.73
835,2026-08-03 13:23:32.970,21.884,0.02,0.02,0.87,0.49,0.0,-7.26
836,2026-08-03 13:23:32.971,21.885,0.02,0.02,0.87,0.49,0.0,-7.26
837,2026-08-03 13:23:33.030,21.944,0.03,0.02,0.86,6.41,4.52,-4.88
838,2026-08-03 13:23:33.032,21.946,0.03,0.02,0.86,6.41,4.52,-4.88
839,2026-08-03 13:23:33.032,21.946,0.01,0.03,0.89,12.08,9.89,-1.77
840,2026-08-03 13:23:33.090,22.004,0.01,0.03,0.89,12.08,9.89,-1.77
841,2026-08-03 13:23:33.091,22.005,-0.02,0.02,0.94,16.3,13.43,1.22
842,2026-08-03 13:23:33.092,22.006,-0.04,0.01,0.96,20.87,12.76,2.5
843,2026-08-03 13:23:33.152,22.066,-0.04,0.01,0.96,20.87,12.76,2.5
844,2026-08-03 13:23:33.153,22.067,-0.04,0.0,0.96,27.47,9.16,1.89
845,2026-08-03 13:23:33.210,22.124,-0.03,0.01,0.94,33.45,7.2,0.37
846,2026-08-03 13:23:33.272,22.186,-0.01,0.05,0.94,36.62,8.79,-0.49
847,2026-08-03 13:23:33.274,22.188,-0.01,0.05,0.94,36.62,8.79,-0.49
848,2026-08-03 13:23:33.275,22.189,-0.01,0.11,0.95,38.33,12.94,1.1
849,2026-08-03 13:23:33.330,22.244,-0.02,0.17,1.0,38.82,20.63,5.49
850,2026-08-03 13:23:33.331,22.245,-0.02,0.17,1.0,38.82,20.63,5.49
851,2026-08-03 13:23:33.393,22.307,-0.06,0.21,1.04,37.9,30.76,12.21
852,2026-08-03 13:23:33.394,22.308,-0.06,0.21,1.04,37.9,30.76,12.21
853,2026-08-03 13:23:33.394,22.308,-0.13,0.24,1.08,36.8,39.43,18.49
854,2026-08-03 13:23:33.451,22.365,-0.13,0.24,1.08,36.8,39.43,18.49
855,2026-08-03 13:23:33.452,22.366,-0.21,0.26,1.1,36.68,46.69,20.69
856,2026-08-03 13:23:33.452,22.366,-0.26,0.29,1.07,45.53,50.9,21.79
857,2026-08-03 13:23:33.515,22.429,-0.26,0.29,1.07,45.53,50.9,21.79
858,2026-08-03 13:23:33.516,22.43,-0.29,0.38,1.02,64.94,49.8,25.82
859,2026-08-03 13:23:33.571,22.485,-0.29,0.38,1.02,64.94,49.8,25.82
860,2026-08-03 13:23:33.571,22.485,-0.39,0.46,1.03,65.55,50.48,25.88
861,2026-08-03 13:23:33.572,22.486,-0.39,0.46,1.03,65.55,50.48,25.88
862,2026-08-03 13:23:33.695,22.609,-0.51,0.48,1.06,36.13,46.45,15.32
863,2026-08-03 13:23:33.695,22.609,-0.56,0.49,1.04,14.59,20.81,-2.44
864,2026-08-03 13:23:33.695,22.609,-0.57,0.47,1.0,7.45,-9.89,-24.84
865,2026-08-03 13:23:33.758,22.672,-0.57,0.37,0.88,4.03,-29.54,-45.35
866,2026-08-03 13:23:33.760,22.674,-0.57,0.37,0.88,4.03,-29.54,-45.35
867,2026-08-03 13:23:33.767,22.681,-0.57,0.27,0.75,14.22,-43.58,-57.92
868,2026-08-03 13:23:33.811,22.725,-0.57,0.27,0.75,14.22,-43.58,-57.92
869,2026-08-03 13:23:33.812,22.726,-0.6,0.22,0.65,23.93,-45.84,-72.81
870,2026-08-03 13:23:33.873,22.787,-0.61,0.21,0.48,25.57,-38.45,-97.53
871,2026-08-03 13:23:33.874,22.788,-0.58,0.24,0.26,40.04,-31.62,-124.08
872,2026-08-03 13:23:33.931,22.845,-0.58,0.24,0.26,40.04,-31.62,-124.08
873,2026-08-03 13:23:33.932,22.846,-0.55,0.31,0.11,72.81,-22.22,-146.85
874,2026-08-03 13:23:33.991,22.905,-0.54,0.37,-0.02,111.51,-7.51,-163.82
875,2026-08-03 13:23:33.991,22.905,-0.55,0.44,-0.18,148.74,8.3,-174.13
876,2026-08-03 13:23:33.992,22.906,-0.55,0.44,-0.18,148.74,8.3,-174.13
877,2026-08-03 13:23:34.051,22.965,-0.58,0.62,-0.24,169.62,25.82,-181.76
878,2026-08-03 13:23:34.052,22.966,-0.58,0.62,-0.24,169.62,25.82,-181.76
879,2026-08-03 13:23:34.112,23.026,-0.67,0.9,-0.05,159.48,47.91,-182.92
880,2026-08-03 13:23:34.113,23.027,-0.79,1.17,0.32,132.75,69.95,-172.12
881,2026-08-03 13:23:34.185,23.099,-0.9,1.28,0.67,101.62,84.23,-149.41
882,2026-08-03 13:23:34.186,23.1,-0.9,1.28,0.67,101.62,84.23,-149.41
883,2026-08-03 13:23:34.290,23.204,-0.94,1.19,0.84,68.79,73.43,-118.29
884,2026-08-03 13:23:34.291,23.205,-0.94,1.19,0.84,68.79,73.43,-118.29
885,2026-08-03 13:23:34.292,23.206,-0.85,1.06,0.85,43.82,41.63,-87.04
886,2026-08-03 13:23:34.293,23.207,-0.85,1.06,0.85,43.82,41.63,-87.04
887,2026-08-03 13:23:34.293,23.207,-0.75,0.91,0.8,28.2,18.8,-54.2
888,2026-08-03 13:23:34.351,23.265,-0.73,0.74,0.75,15.5,8.79,-20.63
889,2026-08-03 13:23:34.352,23.266,-0.73,0.74,0.75,15.5,8.79,-20.63
890,2026-08-03 13:23:34.354,23.268,-0.72,0.63,0.69,-1.89,-3.48,-1.16
891,2026-08-03 13:23:34.410,23.324,-0.72,0.63,0.69,-1.89,-3.48,-1.16
892,2026-08-03 13:23:34.411,23.325,-0.69,0.57,0.61,-26.61,-18.19,4.27
893,2026-08-03 13:23:34.472,23.386,-0.66,0.47,0.5,-49.56,-26.73,9.83
894,2026-08-03 13:23:34.474,23.388,-0.65,0.36,0.42,-59.33,-26.92,17.52
895,2026-08-03 13:23:34.591,23.505,-0.65,0.36,0.42,-59.33,-26.92,17.52
896,2026-08-03 13:23:34.592,23.506,-0.68,0.27,0.38,-55.54,-23.62,23.5
897,2026-08-03 13:23:34.600,23.514,-0.68,0.27,0.38,-55.54,-23.62,23.5
898,2026-08-03 13:23:34.600,23.514,-0.73,0.21,0.35,-46.14,-21.18,26.79
899,2026-08-03 13:23:34.610,23.524,-0.73,0.21,0.35,-46.14,-21.18,26.79
900,2026-08-03 13:23:34.611,23.525,-0.79,0.17,0.38,-39.79,-17.21,25.76
901,2026-08-03 13:23:34.711,23.625,-0.91,0.13,0.52,-39.92,-5.98,18.62
902,2026-08-03 13:23:34.712,23.626,-0.91,0.13,0.52,-39.92,-5.98,18.62
903,2026-08-03 13:23:34.712,23.626,-1.02,0.08,0.63,-40.95,8.54,5.55
904,2026-08-03 13:23:34.713,23.627,-1.02,0.08,0.63,-40.95,8.54,5.55
905,2026-08-03 13:23:34.714,23.628,-1.01,0.09,0.59,-31.68,8.36,-9.64
906,2026-08-03 13:23:34.837,23.751,-1.01,0.09,0.59,-31.68,8.36,-9.64
907,2026-08-03 13:23:34.837,23.751,-0.89,0.19,0.49,-11.78,-7.57,-15.75
908,2026-08-03 13:23:34.838,23.752,-0.89,0.19,0.49,-11.78,-7.57,-15.75
909,2026-08-03 13:23:34.838,23.752,-0.76,0.3,0.46,10.44,-19.71,-2.69
910,2026-08-03 13:23:34.839,23.753,-0.68,0.36,0.52,16.97,-15.44,17.46
911,2026-08-03 13:23:34.890,23.804,-0.68,0.36,0.52,16.97,-15.44,17.46
912,2026-08-03 13:23:34.891,23.805,-0.64,0.37,0.58,5.74,0.79,31.98
913,2026-08-03 13:23:34.901,23.815,-0.64,0.37,0.58,5.74,0.79,31.98
914,2026-08-03 13:23:35.010,23.924,-0.66,0.32,0.67,-6.23,15.38,43.82
915,2026-08-03 13:23:35.011,23.925,-0.66,0.32,0.67,-6.23,15.38,43.82
916,2026-08-03 13:23:35.012,23.926,-0.65,0.29,0.76,-17.27,14.4,55.36
917,2026-08-03 13:23:35.012,23.926,-0.65,0.29,0.76,-23.07,-3.11,68.24
918,2026-08-03 13:23:35.012,23.926,-0.59,0.32,0.79,-23.07,-3.11,68.24
919,2026-08-03 13:23:35.070,23.984,-0.57,0.35,0.78,-18.25,-12.45,78.49
920,2026-08-03 13:23:35.071,23.985,-0.57,0.35,0.78,-18.25,-12.45,78.49
921,2026-08-03 13:23:35.080,23.994,-0.57,0.38,0.76,-14.4,-2.01,79.83
922,2026-08-03 13:23:35.131,24.045,-0.57,0.38,0.76,-14.4,-2.01,79.83
923,2026-08-03 13:23:35.131,24.045,-0.54,0.45,0.73,-22.4,16.66,73.73
924,2026-08-03 13:23:35.197,24.111,-0.54,0.45,0.73,-22.4,16.66,73.73
925,2026-08-03 13:23:35.198,24.112,-0.54,0.51,0.75,-42.36,45.65,59.63
926,2026-08-03 13:23:35.198,24.112,-0.6,0.53,0.81,-62.87,77.15,44.56
927,2026-08-03 13:23:35.252,24.166,-0.6,0.53,0.81,-62.87,77.15,44.56
928,2026-08-03 13:23:35.256,24.17,-0.66,0.59,0.82,-69.7,92.1,41.44
929,2026-08-03 13:23:35.311,24.225,-0.71,0.71,0.78,-68.6,87.4,48.52
930,2026-08-03 13:23:35.312,24.226,-0.71,0.71,0.78,-68.6,87.4,48.52
931,2026-08-03 13:23:35.370,24.284,-0.76,0.8,0.74,-68.66,66.22,52.86
932,2026-08-03 13:23:35.430,24.344,-0.74,0.88,0.64,-57.5,31.43,48.83
933,2026-08-03 13:23:35.431,24.345,-0.74,0.88,0.64,-57.5,31.43,48.83
934,2026-08-03 13:23:35.435,24.349,-0.6,1.01,0.46,-39.73,-6.47,42.85
935,2026-08-03 13:23:35.436,24.35,-0.46,1.1,0.32,-45.96,-32.47,33.87
936,2026-08-03 13:23:35.493,24.407,-0.46,1.1,0.32,-45.96,-32.47,33.87
937,2026-08-03 13:23:35.494,24.408,-0.39,1.07,0.25,-71.9,-43.95,23.32
938,2026-08-03 13:23:35.551,24.465,-0.39,1.07,0.25,-71.9,-43.95,23.32
939,2026-08-03 13:23:35.551,24.465,-0.38,0.96,0.21,-90.03,-45.9,24.9
940,2026-08-03 13:23:35.552,24.466,-0.4,0.84,0.18,-93.2,-37.9,39.79
941,2026-08-03 13:23:35.611,24.525,-0.4,0.84,0.18,-93.2,-37.9,39.79
942,2026-08-03 13:23:35.611,24.525,-0.41,0.73,0.15,-86.85,-16.36,58.04
943,2026-08-03 13:23:35.612,24.526,-0.41,0.73,0.15,-86.85,-16.36,58.04
944,2026-08-03 13:23:35.674,24.588,-0.44,0.66,0.16,-76.84,15.32,75.44
945,2026-08-03 13:23:35.731,24.645,-0.52,0.61,0.24,-67.44,49.5,91.43
946,2026-08-03 13:23:35.732,24.646,-0.66,0.54,0.36,-64.03,79.9,104.92
947,2026-08-03 13:23:35.733,24.647,-0.66,0.54,0.36,-64.03,79.9,104.92
948,2026-08-03 13:23:35.791,24.705,-0.81,0.4,0.46,-70.56,104.19,113.34
949,2026-08-03 13:23:35.792,24.706,-0.81,0.4,0.46,-70.56,104.19,113.34
950,2026-08-03 13:23:35.850,24.764,-0.88,0.2,0.53,-74.58,114.93,114.75
951,2026-08-03 13:23:35.851,24.765,-0.88,0.2,0.53,-74.58,114.93,114.75
952,2026-08-03 13:23:35.852,24.766,-0.87,0.05,0.59,-61.89,105.41,109.74
953,2026-08-03 13:23:35.911,24.825,-0.81,0.03,0.66,-38.45,81.67,96.68
954,2026-08-03 13:23:35.976,24.89,-0.74,0.22,0.73,-21.12,55.11,73.12
955,2026-08-03 13:23:35.977,24.891,-0.75,0.49,0.8,-27.22,37.72,43.09
956,2026-08-03 13:23:36.046,24.96,-0.75,0.49,0.8,-27.22,37.72,43.09
957,2026-08-03 13:23:36.046,24.96,-0.79,0.63,0.81,-52.73,32.35,16.91
958,2026-08-03 13:23:36.047,24.961,-0.79,0.61,0.71,-75.56,30.4,5.43
959,2026-08-03 13:23:36.093,25.007,-0.79,0.61,0.71,-75.56,30.4,5.43
960,2026-08-03 13:23:36.094,25.008,-0.74,0.46,0.59,-90.88,19.65,6.9
961,2026-08-03 13:23:36.151,25.065,-0.64,0.31,0.55,-94.73,-0.12,9.95
962,2026-08-03 13:23:36.211,25.125,-0.48,0.27,0.55,-72.88,-12.63,14.77
963,2026-08-03 13:23:36.212,25.126,-0.48,0.27,0.55,-72.88,-12.63,14.77
964,2026-08-03 13:23:36.212,25.126,-0.35,0.32,0.59,-42.6,-12.39,21.97
965,2026-08-03 13:23:36.270,25.184,-0.32,0.37,0.7,-38.21,-4.52,28.87
966,2026-08-03 13:23:36.271,25.185,-0.32,0.37,0.7,-38.21,-4.52,28.87
967,2026-08-03 13:23:36.332,25.246,-0.38,0.35,0.82,-58.84,6.59,39.67
968,2026-08-03 13:23:36.342,25.256,-0.38,0.35,0.82,-58.84,6.59,39.67
969,2026-08-03 13:23:36.342,25.256,-0.44,0.32,0.85,-74.4,11.66,52.98
970,2026-08-03 13:23:36.390,25.304,-0.44,0.31,0.78,-72.2,8.24,60.97
971,2026-08-03 13:23:36.452,25.366,-0.42,0.3,0.72,-64.33,4.15,63.42
972,2026-08-03 13:23:36.452,25.366,-0.41,0.27,0.72,-59.57,2.69,66.22
973,2026-08-03 13:23:36.510,25.424,-0.41,0.27,0.72,-59.57,2.69,66.22
974,2026-08-03 13:23:36.516,25.43,-0.43,0.24,0.77,-56.27,1.4,71.23
975,2026-08-03 13:23:36.517,25.431,-0.43,0.24,0.77,-56.27,1.4,71.23
976,2026-08-03 13:23:36.581,25.495,-0.47,0.24,0.84,-54.57,0.43,77.58
977,2026-08-03 13:23:36.583,25.497,-0.56,0.29,0.91,-52.49,-1.71,85.27
978,2026-08-03 13:23:36.584,25.498,-0.56,0.29,0.91,-52.49,-1.71,85.27
979,2026-08-03 13:23:36.631,25.545,-0.7,0.37,0.96,-45.96,-5.8,92.47
980,2026-08-03 13:23:36.632,25.546,-0.7,0.37,0.96,-45.96,-5.8,92.47
981,2026-08-03 13:23:36.690,25.604,-0.86,0.43,1.11,-39.37,-4.94,90.03
982,2026-08-03 13:23:36.693,25.607,-0.86,0.43,1.11,-39.37,-4.94,90.03
983,2026-08-03 13:23:36.694,25.608,-0.89,0.38,1.32,-37.41,-1.4,66.35
984,2026-08-03 13:23:36.753,25.667,-0.68,0.28,1.19,-22.77,-23.68,33.14
985,2026-08-03 13:23:36.871,25.785,-0.34,0.28,0.71,7.39,-80.81,17.82
986,2026-08-03 13:23:36.872,25.786,-0.34,0.28,0.71,7.39,-80.81,17.82
987,2026-08-03 13:23:36.872,25.786,-0.09,0.36,0.41,8.61,-124.94,20.02
988,2026-08-03 13:23:36.873,25.787,-0.08,0.42,0.52,-27.95,-106.14,23.25
989,2026-08-03 13:23:36.931,25.845,-0.21,0.45,0.85,-59.27,-46.2,23.25
990,2026-08-03 13:23:36.931,25.845,-0.31,0.46,1.07,-67.14,-3.66,18.8
991,2026-08-03 13:23:36.935,25.849,-0.31,0.46,1.07,-67.14,-3.66,18.8
992,2026-08-03 13:23:36.992,25.906,-0.32,0.39,0.96,-63.54,-1.34,16.97
993,2026-08-03 13:23:36.995,25.909,-0.32,0.39,0.96,-63.54,-1.34,16.97
994,2026-08-03 13:23:37.051,25.965,-0.23,0.26,0.65,-51.39,-21.73,26.12
995,2026-08-03 13:23:37.052,25.966,-0.16,0.16,0.46,-31.86,-26.12,36.19
996,2026-08-03 13:23:37.110,26.024,-0.16,0.16,0.46,-14.22,-0.55,38.33
997,2026-08-03 13:23:37.111,26.025,-0.21,0.12,0.49,-14.22,-0.55,38.33
998,2026-08-03 13:23:37.174,26.088,-0.29,0.11,0.61,2.75,29.36,33.81
999,2026-08-03 13:23:37.175,26.089,-0.29,0.11,0.61,2.75,29.36,33.81
1000,2026-08-03 13:23:37.175,26.089,-0.36,0.16,0.73,26.79,44.56,20.2
1001,2026-08-03 13:23:37.230,26.144,-0.36,0.16,0.73,26.79,44.56,20.2
1002,2026-08-03 13:23:37.231,26.145,-0.42,0.27,0.84,55.05,52.86,-0.18
1003,2026-08-03 13:23:37.297,26.211,-0.48,0.36,0.92,80.93,63.78,-22.28
1004,2026-08-03 13:23:37.297,26.211,-0.55,0.45,0.96,103.76,72.45,-46.08
1005,2026-08-03 13:23:37.352,26.266,-0.55,0.45,0.96,103.76,72.45,-46.08
1006,2026-08-03 13:23:37.352,26.266,-0.66,0.57,1.11,118.59,81.3,-70.31
1007,2026-08-03 13:23:37.353,26.267,-0.66,0.57,1.11,118.59,81.3,-70.31
1008,2026-08-03 13:23:37.411,26.325,-0.7,0.62,1.31,117.55,82.64,-92.1
1009,2026-08-03 13:23:37.414,26.328,-0.7,0.62,1.31,117.55,82.64,-92.1
1010,2026-08-03 13:23:37.414,26.328,-0.56,0.56,1.19,100.59,41.26,-100.77
1011,2026-08-03 13:23:37.470,26.384,-0.38,0.45,0.79,65.19,-30.03,-87.59
1012,2026-08-03 13:23:37.471,26.385,-0.38,0.45,0.79,65.19,-30.03,-87.59
1013,2026-08-03 13:23:37.531,26.445,-0.35,0.35,0.51,16.72,-64.82,-66.1
1014,2026-08-03 13:23:37.532,26.446,-0.35,0.35,0.51,16.72,-64.82,-66.1
1015,2026-08-03 13:23:37.536,26.45,-0.41,0.32,0.57,-14.34,-47.67,-58.84
1016,2026-08-03 13:23:37.606,26.52,-0.41,0.32,0.57,-14.34,-47.67,-58.84
1017,2026-08-03 13:23:37.607,26.521,-0.38,0.35,0.77,-12.63,-28.69,-62.44
1018,2026-08-03 13:23:37.710,26.624,-0.27,0.34,0.84,-2.26,-37.78,-52.06
1019,2026-08-03 13:23:37.711,26.625,-0.27,0.34,0.84,-2.26,-37.78,-52.06
1020,2026-08-03 13:23:37.775,26.689,-0.18,0.27,0.79,-1.83,-57.19,-23.93
1021,2026-08-03 13:23:37.776,26.69,-0.12,0.21,0.74,-4.58,-64.88,5.19
1022,2026-08-03 13:23:37.776,26.69,-0.08,0.18,0.73,-1.22,-54.99,28.5
1023,2026-08-03 13:23:37.777,26.691,-0.08,0.19,0.76,8.18,-32.35,48.77
1024,2026-08-03 13:23:37.831,26.745,-0.11,0.22,0.81,18.25,-11.11,69.09
1025,2026-08-03 13:23:37.832,26.746,-0.11,0.22,0.81,18.25,-11.11,69.09
1026,2026-08-03 13:23:37.901,26.815,-0.16,0.25,0.85,22.58,-0.73,91.55
1027,2026-08-03 13:23:37.904,26.818,-0.16,0.25,0.85,22.58,-0.73,91.55
1028,2026-08-03 13:23:37.904,26.818,-0.24,0.29,0.92,17.21,4.09,114.69
1029,2026-08-03 13:23:37.951,26.865,-0.24,0.29,0.92,17.21,4.09,114.69
1030,2026-08-03 13:23:37.952,26.866,-0.32,0.37,1.07,12.15,7.81,128.78
1031,2026-08-03 13:23:38.011,26.925,-0.36,0.54,1.3,14.34,6.71,125.98
1032,2026-08-03 13:23:38.012,26.926,-0.41,0.74,1.47,8.36,8.54,105.41
1033,2026-08-03 13:23:38.132,27.046,-0.41,0.74,1.47,8.36,8.54,105.41
1034,2026-08-03 13:23:38.132,27.046,-0.44,0.84,1.44,-16.85,16.78,70.8
1035,2026-08-03 13:23:38.133,27.047,-0.34,0.77,1.06,-46.75,4.64,35.83
1036,2026-08-03 13:23:38.193,27.107,-0.18,0.63,0.56,-63.78,-26.86,15.32
1037,2026-08-03 13:23:38.195,27.109,-0.13,0.56,0.3,-64.33,-32.65,9.03
1038,2026-08-03 13:23:38.310,27.224,-0.19,0.55,0.34,-49.13,-4.33,5.25
1039,2026-08-03 13:23:38.311,27.225,-0.19,0.55,0.34,-49.13,-4.33,5.25
1040,2026-08-03 13:23:38.371,27.285,-0.25,0.59,0.53,-21.55,20.94,-4.33
1041,2026-08-03 13:23:38.372,27.286,-0.25,0.59,0.53,-21.55,20.94,-4.33
1042,2026-08-03 13:23:38.372,27.286,-0.26,0.62,0.67,4.94,23.44,-16.78
1043,2026-08-03 13:23:38.374,27.288,-0.25,0.6,0.7,19.53,12.63,-27.16
1044,2026-08-03 13:23:38.375,27.289,-0.22,0.54,0.63,26.0,-0.37,-35.4
1045,2026-08-03 13:23:38.433,27.347,-0.22,0.54,0.63,26.0,-0.37,-35.4
1046,2026-08-03 13:23:38.433,27.347,-0.2,0.48,0.55,34.0,-10.07,-43.33
1047,2026-08-03 13:23:38.491,27.405,-0.19,0.47,0.53,47.91,-14.53,-53.28
1048,2026-08-03 13:23:38.492,27.406,-0.18,0.54,0.61,65.67,-15.75,-65.92
1049,2026-08-03 13:23:38.551,27.465,-0.18,0.54,0.61,65.67,-15.75,-65.92
1050,2026-08-03 13:23:38.551,27.465,-0.19,0.67,0.74,83.5,-15.2,-79.22
1051,2026-08-03 13:23:38.552,27.466,-0.19,0.67,0.74,83.5,-15.2,-79.22
1052,2026-08-03 13:23:38.614,27.528,-0.21,0.8,0.86,97.17,-15.08,-92.59
1053,2026-08-03 13:23:38.615,27.529,-0.21,0.8,0.86,97.17,-15.08,-92.59
1054,2026-08-03 13:23:38.671,27.585,-0.21,0.91,0.95,102.97,-18.31,-106.57
1055,2026-08-03 13:23:38.672,27.586,-0.21,0.91,0.95,102.97,-18.31,-106.57
1056,2026-08-03 13:23:38.736,27.65,-0.29,1.02,1.06,87.71,-27.53,-123.35
1057,2026-08-03 13:23:38.737,27.651,-0.23,0.85,0.94,75.99,-55.18,-119.63
1058,2026-08-03 13:23:38.790,27.704,-0.23,0.85,0.94,75.99,-55.18,-119.63
1059,2026-08-03 13:23:38.792,27.706,-0.06,0.6,0.67,63.17,-96.62,-102.66
1060,2026-08-03 13:23:38.852,27.766,-0.01,0.44,0.43,39.86,-97.9,-72.88
1061,2026-08-03 13:23:38.911,27.825,-0.18,0.43,0.36,13.79,-39.49,-41.93
1062,2026-08-03 13:23:38.913,27.827,-0.4,0.51,0.47,8.61,25.02,-20.02
1063,2026-08-03 13:23:38.974,27.888,-0.5,0.59,0.61,24.41,44.98,-7.51
1064,2026-08-03 13:23:39.049,27.963,-0.51,0.57,0.62,35.34,29.54,0.92
1065,2026-08-03 13:23:39.049,27.963,-0.51,0.5,0.55,30.21,13.43,6.16
1066,2026-08-03 13:23:39.092,28.006,-0.51,0.5,0.55,22.95,8.0,3.48
1067,2026-08-03 13:23:39.092,28.006,-0.5,0.47,0.56,22.95,8.0,3.48
1068,2026-08-03 13:23:39.093,28.007,-0.47,0.51,0.69,18.8,7.57,-5.55
1069,2026-08-03 13:23:39.152,28.066,-0.47,0.51,0.69,18.8,7.57,-5.55
1070,2026-08-03 13:23:39.153,28.067,-0.45,0.59,0.8,5.0,7.32,-11.47
1071,2026-08-03 13:23:39.211,28.125,-0.45,0.75,0.87,-18.68,4.82,-8.06
1072,2026-08-03 13:23:39.271,28.185,-0.47,1.05,0.99,-41.5,14.4,-0.92
1073,2026-08-03 13:23:39.272,28.186,-0.44,1.25,1.08,-58.59,44.25,6.71
1074,2026-08-03 13:23:39.331,28.245,-0.34,0.96,0.85,-72.51,61.89,29.6
1075,2026-08-03 13:23:39.401,28.315,-0.19,0.2,0.35,-80.26,46.33,69.52
1076,2026-08-03 13:23:39.401,28.315,0.06,-0.56,0.0,-70.56,19.96,97.66
1077,2026-08-03 13:23:39.450,28.364,0.06,-0.56,0.0,-70.56,19.96,97.66
1078,2026-08-03 13:23:39.451,28.365,0.28,-0.85,-0.08,-59.27,7.87,92.96
1079,2026-08-03 13:23:39.452,28.366,0.17,-0.65,-0.18,-72.14,-4.52,70.43
1080,2026-08-03 13:23:39.511,28.425,0.17,-0.65,-0.18,-72.14,-4.52,70.43
1081,2026-08-03 13:23:39.511,28.425,-0.13,0.22,0.09,-80.2,-57.56,33.2
1082,2026-08-03 13:23:39.571,28.485,-0.13,0.22,0.09,-80.2,-57.56,33.2
1083,2026-08-03 13:23:39.571,28.485,-0.32,1.78,1.64,-47.67,-140.87,-32.17
1084,2026-08-03 13:23:39.572,28.486,-0.32,1.78,1.64,-47.67,-140.87,-32.17
1085,2026-08-03 13:23:39.630,28.544,-0.41,2.75,3.09,4.76,-215.94,-64.45
1086,2026-08-03 13:23:39.631,28.545,-0.41,2.75,3.09,17.15,-216.37,-17.21
1087,2026-08-03 13:23:39.631,28.545,-0.52,2.26,2.71,17.15,-216.37,-17.21
1088,2026-08-03 13:23:39.698,28.612,-0.69,1.14,1.49,-32.17,-94.36,45.96
1089,2026-08-03 13:23:39.752,28.666,-0.79,0.28,0.64,-85.21,49.19,76.9
1090,2026-08-03 13:23:39.753,28.667,-0.79,0.28,0.64,-85.21,49.19,76.9
1091,2026-08-03 13:23:39.753,28.667,-0.74,-0.12,0.12,-91.37,99.06,81.18
1092,2026-08-03 13:23:39.811,28.725,-0.74,-0.12,0.12,-91.37,99.06,81.18
1093,2026-08-03 13:23:39.814,28.728,-0.5,-0.06,-0.18,-63.42,97.78,52.61
1094,2026-08-03 13:23:39.871,28.785,-0.25,0.13,-0.27,-43.4,122.86,-3.97
1095,2026-08-03 13:23:39.872,28.786,-0.19,0.06,-0.51,-52.0,137.45,-70.98
1096,2026-08-03 13:23:39.933,28.847,-0.19,0.06,-0.51,-52.0,137.45,-70.98
1097,2026-08-03 13:23:39.934,28.848,-0.13,-0.0,-0.97,-60.24,83.92,-164.0
1098,2026-08-03 13:23:39.990,28.904,0.08,0.34,-0.98,0.73,-35.71,-259.4
1099,2026-08-03 13:23:39.991,28.905,0.35,1.51,0.53,157.9,-163.82,-294.37
1100,2026-08-03 13:23:40.058,28.972,0.35,1.51,0.53,157.9,-163.82,-294.37
1101,2026-08-03 13:23:40.059,28.973,0.5,2.46,2.75,284.48,-195.56,-252.2
1102,2026-08-03 13:23:40.171,29.085,0.38,1.65,3.15,263.67,-151.12,-121.22
1103,2026-08-03 13:23:40.231,29.145,0.38,1.65,3.15,154.17,-105.77,27.28
1104,2026-08-03 13:23:40.233,29.147,0.14,0.08,1.75,154.17,-105.77,27.28
1105,2026-08-03 13:23:40.233,29.147,-0.08,-0.73,0.47,51.57,-43.95,83.56
1106,2026-08-03 13:23:40.234,29.148,-0.08,-0.73,0.47,51.57,-43.95,83.56
1107,2026-08-03 13:23:40.234,29.148,-0.22,-0.68,0.02,-13.73,12.02,68.6
1108,2026-08-03 13:23:40.235,29.149,-0.22,-0.68,0.02,-13.73,12.02,68.6
1109,2026-08-03 13:23:40.235,29.149,-0.28,-0.39,0.06,-61.71,10.8,50.48
1110,2026-08-03 13:23:40.291,29.205,-0.28,-0.39,0.06,-91.13,-47.61,50.66
1111,2026-08-03 13:23:40.291,29.205,-0.08,0.06,0.6,-91.13,-47.61,50.66
1112,2026-08-03 13:23:40.353,29.267,0.3,1.3,2.16,-91.74,-62.38,37.78
1113,2026-08-03 13:23:40.354,29.268,0.3,1.3,2.16,-91.74,-62.38,37.78
1114,2026-08-03 13:23:40.354,29.268,0.4,2.33,3.31,-94.3,-7.63,13.92
1115,2026-08-03 13:23:40.412,29.326,0.4,2.33,3.31,-94.3,-7.63,13.92
1116,2026-08-03 13:23:40.412,29.326,0.35,2.06,2.44,-99.43,-13.12,9.09
1117,2026-08-03 13:23:40.471,29.385,0.12,1.18,0.73,-94.18,-26.31,-1.04
1118,2026-08-03 13:23:40.472,29.386,0.12,1.18,0.73,-94.18,-26.31,-1.04
1119,2026-08-03 13:23:40.472,29.386,-0.35,0.42,-0.27,-75.5,55.24,-36.74
1120,2026-08-03 13:23:40.591,29.505,-0.35,0.42,-0.27,-75.5,55.24,-36.74
1121,2026-08-03 13:23:40.591,29.505,-0.54,0.09,-0.43,-29.6,129.46,-91.13
1122,2026-08-03 13:23:40.592,29.506,-0.54,0.09,-0.43,-29.6,129.46,-91.13
1123,2026-08-03 13:23:40.592,29.506,-0.36,-0.02,-0.29,7.51,123.11,-144.35
1124,2026-08-03 13:23:40.592,29.506,-0.09,-0.18,-0.33,-6.29,65.06,-183.78
1125,2026-08-03 13:23:40.650,29.564,-0.09,-0.18,-0.33,-6.29,65.06,-183.78
1126,2026-08-03 13:23:40.652,29.566,0.15,-0.3,-0.62,-54.75,-9.89,-220.7
1127,2026-08-03 13:23:40.771,29.685,0.26,-0.45,-0.96,-82.64,-67.08,-242.13
1128,2026-08-03 13:23:40.772,29.686,0.26,-0.45,-0.96,-82.64,-67.08,-242.13
1129,2026-08-03 13:23:40.773,29.687,0.11,-0.36,-0.77,-16.48,-83.44,-227.72
1130,2026-08-03 13:23:40.774,29.688,-0.11,1.05,1.07,133.91,-52.61,-227.11
1131,2026-08-03 13:23:40.834,29.748,-0.09,2.57,3.42,211.06,-25.7,-233.22
1132,2026-08-03 13:23:40.835,29.749,-0.09,2.57,3.42,211.06,-25.7,-233.22
1133,2026-08-03 13:23:40.835,29.749,0.06,2.24,3.66,162.96,-76.05,-139.53
1134,2026-08-03 13:23:40.890,29.804,0.06,2.24,3.66,162.96,-76.05,-139.53
1135,2026-08-03 13:23:40.891,29.805,-0.06,0.81,2.03,69.34,-118.16,19.53
1136,2026-08-03 13:23:40.951,29.865,-0.36,-0.34,0.5,3.6,-79.04,108.28
1137,2026-08-03 13:23:40.952,29.866,-0.36,-0.34,0.5,3.6,-79.04,108.28
1138,2026-08-03 13:23:40.952,29.866,-0.43,-0.63,-0.03,17.21,-33.94,88.26
1139,2026-08-03 13:23:41.071,29.985,-0.43,-0.63,-0.03,17.21,-33.94,88.26
1140,2026-08-03 13:23:41.072,29.986,-0.25,-0.38,0.09,72.02,-13.67,16.11
1141,2026-08-03 13:23:41.072,29.986,-0.08,-0.1,0.38,109.99,1.83,-36.93
1142,2026-08-03 13:23:41.073,29.987,0.05,0.14,0.69,120.36,8.97,-52.43
1143,2026-08-03 13:23:41.130,30.044,0.05,0.14,0.69,120.36,8.97,-52.43
1144,2026-08-03 13:23:41.131,30.045,0.22,0.62,1.11,111.88,24.35,-63.54
1145,2026-08-03 13:23:41.133,30.047,0.22,0.62,1.11,111.88,24.35,-63.54
1146,2026-08-03 13:23:41.198,30.112,0.26,1.27,1.67,71.29,81.73,-83.86
1147,2026-08-03 13:23:41.199,30.113,0.26,1.27,1.67,71.29,81.73,-83.86
1148,2026-08-03 13:23:41.255,30.169,0.12,1.69,1.94,6.47,127.01,-79.22
1149,2026-08-03 13:23:41.256,30.17,-0.09,1.61,1.53,-69.15,96.56,-36.38
1150,2026-08-03 13:23:41.323,30.237,-0.23,1.13,0.72,-141.24,26.0,13.18
1151,2026-08-03 13:23:41.326,30.24,-0.23,1.13,0.72,-141.24,26.0,13.18
1152,2026-08-03 13:23:41.327,30.241,-0.2,0.6,0.05,-156.37,-32.78,44.07
1153,2026-08-03 13:23:41.371,30.285,-0.2,0.6,0.05,-156.37,-32.78,44.07
1154,2026-08-03 13:23:41.371,30.285,-0.09,0.31,-0.22,-106.99,-59.94,54.57
1155,2026-08-03 13:23:41.430,30.344,-0.09,0.31,-0.22,-106.99,-59.94,54.57
1156,2026-08-03 13:23:41.496,30.41,-0.04,0.28,-0.12,-39.67,-49.56,50.72
1157,2026-08-03 13:23:41.552,30.466,-0.09,0.36,0.17,9.83,-15.01,36.87
1158,2026-08-03 13:23:41.553,30.467,-0.19,0.41,0.49,33.08,14.71,15.62
1159,2026-08-03 13:23:41.554,30.468,-0.26,0.46,0.69,42.05,15.99,-15.32
1160,2026-08-03 13:23:41.610,30.524,-0.29,0.49,0.75,39.79,-15.44,-67.44
1161,2026-08-03 13:23:41.611,30.525,-0.29,0.49,0.75,26.98,-42.24,-132.81
1162,2026-08-03 13:23:41.611,30.525,-0.31,0.57,0.77,26.98,-42.24,-132.81
1163,2026-08-03 13:23:41.671,30.585,-0.39,0.82,0.82,20.2,-23.44,-183.9
1164,2026-08-03 13:23:41.730,30.644,-0.42,1.06,1.08,11.66,-8.48,-218.08
1165,2026-08-03 13:23:41.732,30.646,-0.42,1.06,1.08,11.66,-8.48,-218.08
1166,2026-08-03 13:23:41.733,30.647,-0.24,1.02,1.47,-31.98,-47.24,-224.12
1167,2026-08-03 13:23:41.790,30.704,-0.24,1.02,1.47,-31.98,-47.24,-224.12
1168,2026-08-03 13:23:41.791,30.705,-0.04,0.71,1.49,-61.4,-77.58,-174.74
1169,2026-08-03 13:23:41.910,30.824,0.0,0.4,1.01,16.17,-43.95,-104.61
1170,2026-08-03 13:23:41.911,30.825,0.0,0.4,1.01,16.17,-43.95,-104.61
1171,2026-08-03 13:23:41.911,30.825,-0.0,0.16,0.54,164.0,0.73,-111.45
1172,2026-08-03 13:23:41.911,30.825,0.07,0.05,0.52,205.14,-31.01,-159.79
1173,2026-08-03 13:23:41.971,30.885,0.07,0.05,0.52,205.14,-31.01,-159.79
1174,2026-08-03 13:23:41.971,30.885,0.19,0.25,0.79,103.58,-84.47,-120.91
1175,2026-08-03 13:23:41.972,30.886,0.23,0.52,0.87,11.6,-48.95,-39.25
1176,2026-08-03 13:23:42.036,30.95,0.14,0.59,0.7,-6.84,23.44,-9.95
1177,2026-08-03 13:23:42.102,31.016,-0.02,0.51,0.56,-1.77,43.15,-15.87
1178,2026-08-03 13:23:42.103,31.017,-0.13,0.41,0.58,-18.37,23.44,-19.84
1179,2026-08-03 13:23:42.152,31.066,-0.16,0.36,0.65,-37.6,5.68,-22.83
1180,2026-08-03 13:23:42.153,31.067,-0.16,0.36,0.65,-37.6,5.68,-22.83
1181,2026-08-03 13:23:42.153,31.067,-0.2,0.45,0.96,-38.21,9.52,-19.29
1182,2026-08-03 13:23:42.211,31.125,-0.2,0.45,0.96,-38.21,9.52,-19.29
1183,2026-08-03 13:23:42.212,31.126,-0.33,0.52,1.64,-30.4,22.58,7.87
1184,2026-08-03 13:23:42.271,31.185,-0.33,0.52,1.64,-30.4,22.58,7.87
1185,2026-08-03 13:23:42.272,31.186,-0.41,0.66,2.11,-34.42,3.3,21.91
1186,2026-08-03 13:23:42.331,31.245,-0.43,0.8,1.96,-66.65,-39.67,9.03
1187,2026-08-03 13:23:42.332,31.246,-0.49,0.66,1.39,-88.32,-77.51,28.32
1188,2026-08-03 13:23:42.391,31.305,-0.49,0.66,1.39,-88.32,-77.51,28.32
1189,2026-08-03 13:23:42.392,31.306,-0.53,0.39,0.81,-82.34,-100.52,77.39
1190,2026-08-03 13:23:42.451,31.365,-0.5,0.24,0.48,-75.93,-97.6,97.84
1191,2026-08-03 13:23:42.451,31.365,-0.43,0.22,0.41,-71.84,-73.67,79.04
1192,2026-08-03 13:23:42.514,31.428,-0.34,0.24,0.47,-63.96,-44.13,43.95
1193,2026-08-03 13:23:42.570,31.484,-0.28,0.26,0.53,-42.79,-24.84,7.51
1194,2026-08-03 13:23:42.571,31.485,-0.28,0.26,0.53,-42.79,-24.84,7.51
1195,2026-08-03 13:23:42.572,31.486,-0.26,0.29,0.52,-5.86,-16.42,-22.83
1196,2026-08-03 13:23:42.631,31.545,-0.29,0.34,0.46,37.9,-10.8,-44.43
1197,2026-08-03 13:23:42.690,31.604,-0.34,0.37,0.39,75.74,-1.53,-57.68
1198,2026-08-03 13:23:42.691,31.605,-0.34,0.37,0.39,75.74,-1.53,-57.68
1199,2026-08-03 13:23:42.691,31.605,-0.41,0.41,0.35,103.52,16.3,-64.58
1200,2026-08-03 13:23:42.757,31.671,-0.41,0.41,0.35,103.52,16.3,-64.58
1201,2026-08-03 13:23:42.758,31.672,-0.57,0.5,0.34,127.08,45.29,-71.29
1202,2026-08-03 13:23:42.871,31.785,-0.85,0.68,0.42,136.05,80.63,-86.06
1203,2026-08-03 13:23:42.930,31.844,-1.19,0.94,0.61,117.92,117.43,-112.61
1204,2026-08-03 13:23:42.931,31.845,-1.19,0.94,0.61,117.92,117.43,-112.61
1205,2026-08-03 13:23:42.931,31.845,-1.42,1.24,0.96,88.87,162.11,-145.87
1206,2026-08-03 13:23:42.932,31.846,-1.42,1.24,0.96,88.87,162.11,-145.87
1207,2026-08-03 13:23:42.932,31.846,-1.25,1.26,1.44,54.63,226.5,-157.78
1208,2026-08-03 13:23:42.934,31.848,-1.25,1.26,1.44,54.63,226.5,-157.78
1209,2026-08-03 13:23:42.935,31.849,-0.68,0.79,1.84,4.76,282.96,-117.8
1210,2026-08-03 13:23:42.990,31.904,-0.2,0.26,1.78,-46.75,259.64,-49.8
1211,2026-08-03 13:23:42.991,31.905,-0.2,0.26,1.78,-46.75,259.64,-49.8
1212,2026-08-03 13:23:43.111,32.025,-0.14,0.11,1.36,-69.34,140.38,1.4
1213,2026-08-03 13:23:43.111,32.025,-0.35,0.24,1.02,-64.51,-6.47,18.01
1214,2026-08-03 13:23:43.112,32.026,-0.35,0.24,1.02,-64.51,-6.47,18.01
1215,2026-08-03 13:23:43.112,32.026,-0.56,0.42,0.87,-68.12,-116.82,2.38
1216,2026-08-03 13:23:43.113,32.027,-0.67,0.52,0.8,-94.85,-181.03,-14.1
1217,2026-08-03 13:23:43.173,32.087,-0.67,0.52,0.8,-94.85,-181.03,-14.1
1218,2026-08-03 13:23:43.173,32.087,-0.69,0.63,0.79,-113.89,-217.1,16.91
1219,2026-08-03 13:23:43.235,32.149,-0.69,0.63,0.79,-113.89,-217.1,16.91
1220,2026-08-03 13:23:43.236,32.15,-0.65,0.75,0.86,-119.81,-227.36,98.08
1221,2026-08-03 13:23:43.290,32.204,-0.54,0.77,1.04,-108.03,-210.39,176.03
1222,2026-08-03 13:23:43.290,32.204,-0.43,0.67,1.19,-33.63,-191.1,200.26
1223,2026-08-03 13:23:43.471,32.385,-0.43,0.67,1.19,-33.63,-191.1,200.26
1224,2026-08-03 13:23:43.471,32.385,-0.35,0.63,1.11,71.47,-172.67,185.85
1225,2026-08-03 13:23:43.472,32.386,-0.35,0.63,1.11,71.47,-172.67,185.85
1226,2026-08-03 13:23:43.472,32.386,-0.33,0.7,0.81,130.43,-145.75,179.69
1227,2026-08-03 13:23:43.473,32.387,-0.53,0.61,0.36,132.75,-115.11,179.5
1228,2026-08-03 13:23:43.473,32.387,-0.81,0.26,-0.02,68.6,-60.73,176.82
1229,2026-08-03 13:23:43.531,32.445,-0.69,0.08,0.03,-35.58,11.9,140.81
1230,2026-08-03 13:23:43.536,32.45,0.0,0.28,0.66,-90.64,61.16,51.51
1231,2026-08-03 13:23:43.591,32.505,0.0,0.28,0.66,-90.64,61.16,51.51
1232,2026-08-03 13:23:43.592,32.506,0.72,0.49,1.24,-84.35,65.06,-24.23
1233,2026-08-03 13:23:43.660,32.574,0.91,0.44,1.25,-57.8,32.29,-41.08
1234,2026-08-03 13:23:43.661,32.575,0.91,0.44,1.25,-57.8,32.29,-41.08
1235,2026-08-03 13:23:43.661,32.575,0.66,0.3,0.98,-37.17,-5.55,-25.63
1236,2026-08-03 13:23:43.711,32.625,0.66,0.3,0.98,-37.17,-5.55,-25.63
1237,2026-08-03 13:23:43.711,32.625,0.35,0.28,0.79,-27.4,-25.33,-10.8
1238,2026-08-03 13:23:43.712,32.626,0.35,0.28,0.79,-27.4,-25.33,-10.8
1239,2026-08-03 13:23:43.780,32.694,0.21,0.39,0.76,-18.8,-26.06,-2.81
1240,2026-08-03 13:23:43.783,32.697,0.21,0.39,0.76,-4.64,-17.27,4.39
1241,2026-08-03 13:23:43.831,32.745,0.22,0.41,0.82,-4.64,-17.27,4.39
1242,2026-08-03 13:23:43.831,32.745,0.25,0.27,0.92,15.38,-10.25,8.54
1243,2026-08-03 13:23:43.890,32.804,0.25,0.27,0.92,15.38,-10.25,8.54
1244,2026-08-03 13:23:43.890,32.804,0.26,0.19,1.0,26.55,-9.89,0.61
1245,2026-08-03 13:23:43.891,32.805,0.26,0.19,1.0,26.55,-9.89,0.61
1246,2026-08-03 13:23:43.892,32.806,0.29,0.33,1.0,15.44,-10.13,-15.56
1247,2026-08-03 13:23:43.953,32.867,0.29,0.33,1.0,15.44,-10.13,-15.56
1248,2026-08-03 13:23:43.953,32.867,0.31,0.47,0.89,-3.36,-5.74,-24.05
1249,2026-08-03 13:23:44.011,32.925,0.31,0.47,0.89,-9.7,-1.28,-18.92
1250,2026-08-03 13:23:44.012,32.926,0.29,0.43,0.74,-9.7,-1.28,-18.92
1251,2026-08-03 13:23:44.013,32.927,0.27,0.33,0.67,-2.08,2.99,-9.64
1252,2026-08-03 13:23:44.130,33.044,0.27,0.33,0.67,-2.08,2.99,-9.64
1253,2026-08-03 13:23:44.131,33.045,0.28,0.34,0.75,17.09,9.09,-6.65
1254,2026-08-03 13:23:44.131,33.045,0.29,0.4,0.93,35.52,12.39,-5.98
1255,2026-08-03 13:23:44.190,33.104,0.28,0.42,1.01,36.25,7.32,-7.32
1256,2026-08-03 13:23:44.191,33.105,0.28,0.42,1.01,24.17,-6.16,-21.48
1257,2026-08-03 13:23:44.191,33.105,0.27,0.42,0.97,24.17,-6.16,-21.48
1258,2026-08-03 13:23:44.253,33.167,0.28,0.44,0.92,10.31,-19.9,-44.62
1259,2026-08-03 13:23:44.253,33.167,0.29,0.47,0.87,-3.48,-27.77,-62.68
1260,2026-08-03 13:23:44.373,33.287,0.29,0.47,0.87,-3.48,-27.77,-62.68
1261,2026-08-03 13:23:44.373,33.287,0.28,0.44,0.81,-13.92,-30.09,-69.03
1262,2026-08-03 13:23:44.430,33.344,0.28,0.44,0.81,-13.92,-30.09,-69.03
1263,2026-08-03 13:23:44.432,33.346,0.27,0.39,0.78,-15.62,-27.95,-68.24
1264,2026-08-03 13:23:44.433,33.347,0.28,0.38,0.8,-8.91,-24.17,-67.99
1265,2026-08-03 13:23:44.493,33.407,0.29,0.4,0.84,-1.89,-21.67,-68.66
1266,2026-08-03 13:23:44.495,33.409,0.3,0.42,0.87,1.4,-19.59,-69.15
1267,2026-08-03 13:23:44.495,33.409,0.29,0.42,0.89,-0.31,-17.7,-68.36
1268,2026-08-03 13:23:44.610,33.524,0.29,0.42,0.89,-0.31,-17.7,-68.36
1269,2026-08-03 13:23:44.611,33.525,0.28,0.41,0.89,-8.67,-17.21,-65.49
1270,2026-08-03 13:23:44.612,33.526,0.26,0.37,0.88,-18.62,-18.13,-64.15
1271,2026-08-03 13:23:44.671,33.585,0.28,0.35,0.91,-30.09,-20.14,-73.24
1272,2026-08-03 13:23:44.672,33.586,0.28,0.35,0.91,-30.09,-20.14,-73.24
1273,2026-08-03 13:23:44.672,33.586,0.29,0.36,0.96,-50.72,-21.85,-91.49
1274,2026-08-03 13:23:44.730,33.644,0.26,0.34,1.02,-76.84,-23.38,-102.23
1275,2026-08-03 13:23:44.731,33.645,0.26,0.34,1.02,-76.84,-23.38,-102.23
1276,2026-08-03 13:23:44.791,33.705,0.18,0.28,1.08,-95.21,-24.96,-105.59
1277,2026-08-03 13:23:44.792,33.706,0.18,0.28,1.08,-95.21,-24.96,-105.59
1278,2026-08-03 13:23:44.795,33.709,0.13,0.35,1.17,-95.64,-23.44,-115.54
1279,2026-08-03 13:23:44.853,33.767,0.13,0.35,1.17,-87.65,-18.37,-125.98
1280,2026-08-03 13:23:44.853,33.767,0.14,0.5,1.15,-87.65,-18.37,-125.98
1281,2026-08-03 13:23:44.853,33.767,0.1,0.47,0.93,-88.26,-8.85,-115.78
1282,2026-08-03 13:23:44.910,33.824,0.1,0.47,0.93,-88.26,-8.85,-115.78
1283,2026-08-03 13:23:44.911,33.825,-0.02,0.21,0.71,-92.41,5.62,-92.53
1284,2026-08-03 13:23:44.971,33.885,-0.08,-0.04,0.69,-86.91,18.07,-86.43
1285,2026-08-03 13:23:45.030,33.944,-0.01,-0.1,0.84,-70.31,26.98,-103.45
1286,2026-08-03 13:23:45.030,33.944,0.17,0.01,1.03,-45.1,31.49,-124.69
1287,2026-08-03 13:23:45.031,33.945,0.17,0.01,1.03,-45.1,31.49,-124.69
1288,2026-08-03 13:23:45.093,34.007,0.29,0.08,1.09,-21.55,25.76,-121.09
1289,2026-08-03 13:23:45.154,34.068,0.29,0.08,1.09,-21.55,25.76,-121.09
1290,2026-08-03 13:23:45.157,34.071,0.26,-0.01,0.97,-16.3,16.36,-86.24
1291,2026-08-03 13:23:45.158,34.072,0.16,-0.14,0.82,-20.75,13.06,-49.93
1292,2026-08-03 13:23:45.211,34.125,0.1,-0.17,0.79,-14.65,13.61,-33.87
1293,2026-08-03 13:23:45.270,34.184,0.09,-0.15,0.83,-0.12,15.56,-30.94
1294,2026-08-03 13:23:45.271,34.185,0.09,-0.15,0.83,-0.12,15.56,-30.94
1295,2026-08-03 13:23:45.271,34.185,0.14,-0.12,0.86,19.29,26.31,-29.17
1296,2026-08-03 13:23:45.330,34.244,0.14,-0.12,0.86,19.29,26.31,-29.17
1297,2026-08-03 13:23:45.331,34.245,0.22,-0.05,0.9,46.94,40.77,-24.84
1298,2026-08-03 13:23:45.331,34.245,0.22,-0.05,0.9,67.75,35.64,-15.2
1299,2026-08-03 13:23:45.450,34.364,0.26,0.02,0.97,67.75,35.64,-15.2
1300,2026-08-03 13:23:45.451,34.365,0.24,0.06,1.04,66.47,6.29,-2.62
1301,2026-08-03 13:23:45.452,34.366,0.15,0.08,1.14,49.93,-25.82,6.59
1302,2026-08-03 13:23:45.570,34.484,0.15,0.08,1.14,49.93,-25.82,6.59
1303,2026-08-03 13:23:45.571,34.485,-0.11,0.11,1.33,28.81,-38.82,16.72
1304,2026-08-03 13:23:45.633,34.547,-0.43,0.21,1.46,2.75,-35.34,23.32
1305,2026-08-03 13:23:45.634,34.548,-0.62,0.25,1.19,-34.55,-27.1,9.89
1306,2026-08-03 13:23:45.634,34.548,-0.68,0.12,0.78,-58.23,-13.0,-27.95
1307,2026-08-03 13:23:45.635,34.549,-0.68,0.12,0.78,-58.23,-13.0,-27.95
1308,2026-08-03 13:23:45.635,34.549,-0.57,0.07,0.73,-30.4,0.31,-93.87
1309,2026-08-03 13:23:45.691,34.605,-0.57,0.07,0.73,-30.4,0.31,-93.87
1310,2026-08-03 13:23:45.691,34.605,-0.24,0.28,0.91,26.18,-0.55,-177.25
1311,2026-08-03 13:23:45.692,34.606,-0.24,0.28,0.91,26.18,-0.55,-177.25
1312,2026-08-03 13:23:45.752,34.666,0.07,0.4,1.02,51.45,-8.3,-228.09
1313,2026-08-03 13:23:45.752,34.666,0.19,0.31,1.01,35.03,-10.01,-223.27
1314,2026-08-03 13:23:45.753,34.667,0.19,0.31,1.01,35.03,-10.01,-223.27
1315,2026-08-03 13:23:45.878,34.792,0.18,0.22,0.95,9.52,-8.24,-195.25
1316,2026-08-03 13:23:45.878,34.792,0.15,0.15,0.91,-6.16,-5.55,-169.98
1317,2026-08-03 13:23:45.880,34.794,0.15,0.15,0.91,-6.16,-5.55,-169.98
1318,2026-08-03 13:23:45.880,34.794,0.15,0.1,0.88,-10.56,-2.56,-153.08
1319,2026-08-03 13:23:45.991,34.905,0.19,0.12,0.9,-5.31,-1.77,-141.6
1320,2026-08-03 13:23:45.992,34.906,0.19,0.12,0.9,-5.31,-1.77,-141.6
1321,2026-08-03 13:23:45.993,34.907,0.21,0.15,1.01,2.87,-1.59,-126.28
1322,2026-08-03 13:23:46.054,34.968,0.21,0.15,1.01,2.87,-1.59,-126.28
1323,2026-08-03 13:23:46.054,34.968,0.22,0.17,1.15,5.55,-0.67,-101.99
1324,2026-08-03 13:23:46.055,34.969,0.17,0.14,1.21,1.89,-1.89,-72.14
1325,2026-08-03 13:23:46.110,35.024,0.02,0.02,1.19,-1.71,-5.55,-42.66
1326,2026-08-03 13:23:46.112,35.026,0.02,0.02,1.19,-1.71,-5.55,-42.66
1327,2026-08-03 13:23:46.112,35.026,-0.11,0.03,1.05,-4.15,-8.61,-25.7
1328,2026-08-03 13:23:46.175,35.089,-0.15,0.13,0.84,-8.97,-7.63,-21.48
1329,2026-08-03 13:23:46.177,35.091,-0.15,0.13,0.84,-8.97,-7.63,-21.48
1330,2026-08-03 13:23:46.295,35.209,-0.22,-0.03,0.72,-12.45,-1.34,-13.18
1331,2026-08-03 13:23:46.296,35.21,-0.22,-0.03,0.72,-12.45,-1.34,-13.18
1332,2026-08-03 13:23:46.297,35.211,-0.2,-0.21,0.8,1.34,-2.38,-16.78
1333,2026-08-03 13:23:46.297,35.211,0.02,-0.08,1.01,34.79,-19.71,-45.17
1334,2026-08-03 13:23:46.351,35.265,0.21,0.12,1.12,50.66,-32.9,-57.56
1335,2026-08-03 13:23:46.353,35.267,0.17,0.12,1.0,21.79,-23.86,-32.17
1336,2026-08-03 13:23:46.410,35.324,0.17,0.12,1.0,21.79,-23.86,-32.17
1337,2026-08-03 13:23:46.411,35.325,0.0,-0.01,0.81,-18.92,-3.85,-0.79
1338,2026-08-03 13:23:46.412,35.326,0.0,-0.01,0.81,-18.92,-3.85,-0.79
1339,2026-08-03 13:23:46.474,35.388,-0.05,-0.07,0.73,-28.99,6.1,3.72
1340,2026-08-03 13:23:46.590,35.504,0.07,-0.04,0.76,-10.01,0.06,-16.24
1341,2026-08-03 13:23:46.592,35.506,0.28,0.03,0.89,16.91,-10.74,-35.4
1342,2026-08-03 13:23:46.593,35.507,0.28,0.03,0.89,16.91,-10.74,-35.4
1343,2026-08-03 13:23:46.593,35.507,0.41,0.14,1.07,38.02,-13.24,-33.81
1344,2026-08-03 13:23:46.593,35.507,0.4,0.24,1.19,43.52,-8.73,-8.24
1345,2026-08-03 13:23:46.650,35.564,0.4,0.24,1.19,43.52,-8.73,-8.24
1346,2026-08-03 13:23:46.651,35.565,0.31,0.22,1.2,35.1,-10.86,22.58
1347,2026-08-03 13:23:46.711,35.625,0.31,0.22,1.2,12.88,-7.26,44.8
1348,2026-08-03 13:23:46.712,35.626,0.13,0.19,1.19,12.88,-7.26,44.8
1349,2026-08-03 13:23:46.712,35.626,-0.16,0.23,1.19,-15.87,9.52,64.64
1350,2026-08-03 13:23:46.771,35.685,-0.16,0.23,1.19,-15.87,9.52,64.64
1351,2026-08-03 13:23:46.771,35.685,-0.44,0.25,1.09,-35.83,19.96,76.23
1352,2026-08-03 13:23:46.772,35.686,-0.44,0.25,1.09,-35.83,19.96,76.23
1353,2026-08-03 13:23:46.890,35.804,-0.58,0.15,0.89,-42.05,23.56,67.63
1354,2026-08-03 13:23:46.891,35.805,-0.58,0.15,0.89,-42.05,23.56,67.63
1355,2026-08-03 13:23:46.891,35.805,-0.56,0.06,0.8,-21.36,24.84,37.48
1356,2026-08-03 13:23:46.951,35.865,-0.37,0.14,0.87,22.71,17.21,-11.11
1357,2026-08-03 13:23:46.952,35.866,-0.37,0.14,0.87,22.71,17.21,-11.11
1358,2026-08-03 13:23:46.952,35.866,-0.13,0.26,0.96,50.78,5.55,-61.89
1359,2026-08-03 13:23:46.953,35.867,-0.13,0.26,0.96,50.78,5.55,-61.89
1360,2026-08-03 13:23:46.953,35.867,0.03,0.26,0.96,38.15,3.91,-89.23
1361,2026-08-03 13:23:47.011,35.925,0.03,0.26,0.96,38.15,3.91,-89.23
1362,2026-08-03 13:23:47.011,35.925,0.09,0.2,0.92,9.03,12.08,-87.89
1363,2026-08-03 13:23:47.071,35.985,0.11,0.18,0.91,-9.58,19.71,-71.96
1364,2026-08-03 13:23:47.071,35.985,0.08,0.16,0.88,-18.49,20.51,-51.33
1365,2026-08-03 13:23:47.130,36.044,0.08,0.16,0.88,-18.49,20.51,-51.33
1366,2026-08-03 13:23:47.131,36.045,0.02,0.15,0.86,-19.84,16.78,-34.91
1367,2026-08-03 13:23:47.190,36.104,-0.03,0.19,0.95,-11.96,11.84,-31.19
1368,2026-08-03 13:23:47.315,36.229,-0.03,0.2,1.15,-2.38,3.6,-36.56
1369,2026-08-03 13:23:47.323,36.237,-0.06,0.12,1.32,1.04,-6.71,-42.05
1370,2026-08-03 13:23:47.324,36.238,-0.06,0.12,1.32,1.04,-6.71,-42.05
1371,2026-08-03 13:23:47.324,36.238,-0.14,0.09,1.37,-4.03,-11.96,-43.09
1372,2026-08-03 13:23:47.325,36.239,-0.21,0.2,1.25,-21.55,-10.8,-38.7
1373,2026-08-03 13:23:47.372,36.286,-0.21,0.2,1.25,-21.55,-10.8,-38.7
1374,2026-08-03 13:23:47.373,36.287,-0.27,0.3,0.93,-45.41,-10.38,-23.86
1375,2026-08-03 13:23:47.430,36.344,-0.27,0.3,0.93,-57.74,-10.74,6.16
1376,2026-08-03 13:23:47.431,36.345,-0.43,0.12,0.59,-57.74,-10.74,6.16
1377,2026-08-03 13:23:47.431,36.345,-0.54,-0.24,0.54,-43.82,-12.15,21.97
1378,2026-08-03 13:23:47.611,36.525,-0.54,-0.24,0.54,-43.82,-12.15,21.97
1379,2026-08-03 13:23:47.613,36.527,-0.34,-0.28,0.77,4.88,-25.76,-17.27
1380,2026-08-03 13:23:47.614,36.528,-0.34,-0.28,0.77,4.88,-25.76,-17.27
1381,2026-08-03 13:23:47.614,36.528,0.06,0.03,0.99,45.84,-40.34,-81.12
1382,2026-08-03 13:23:47.622,36.536,0.3,0.15,1.02,31.01,-39.37,-92.41
1383,2026-08-03 13:23:47.622,36.536,0.28,0.0,0.89,-5.07,-32.78,-47.85
1384,2026-08-03 13:23:47.670,36.584,0.28,0.0,0.89,-5.07,-32.78,-47.85
1385,2026-08-03 13:23:47.671,36.585,0.18,-0.09,0.78,-13.43,-24.9,-7.02
1386,2026-08-03 13:23:47.732,36.646,0.12,-0.04,0.82,3.78,-10.62,6.04
1387,2026-08-03 13:23:47.733,36.647,0.12,-0.04,0.82,3.78,-10.62,6.04
1388,2026-08-03 13:23:47.733,36.647,0.14,0.06,0.95,16.97,3.54,9.16
1389,2026-08-03 13:23:47.791,36.705,0.14,0.06,0.95,9.28,9.83,21.97
1390,2026-08-03 13:23:47.791,36.705,0.18,0.07,1.04,9.28,9.83,21.97
1391,2026-08-03 13:23:47.791,36.705,0.2,0.03,1.09,-1.46,11.05,45.35
1392,2026-08-03 13:23:47.850,36.764,0.2,0.03,1.09,-1.46,11.05,45.35
1393,2026-08-03 13:23:47.851,36.765,0.28,0.05,1.16,7.81,2.38,61.28
1394,2026-08-03 13:23:47.853,36.767,0.28,0.05,1.16,7.81,2.38,61.28
1395,2026-08-03 13:23:47.911,36.825,0.44,0.09,1.24,27.4,-20.39,60.79
1396,2026-08-03 13:23:47.913,36.827,0.44,0.09,1.24,27.4,-20.39,60.79
1397,2026-08-03 13:23:48.030,36.944,0.45,0.2,1.24,35.1,-28.63,68.05
1398,2026-08-03 13:23:48.031,36.945,0.45,0.2,1.24,26.79,-6.65,106.63
1399,2026-08-03 13:23:48.032,36.946,0.15,0.39,1.18,26.79,-6.65,106.63
1400,2026-08-03 13:23:48.033,36.947,-0.27,0.47,1.02,4.82,19.04,157.47
1401,2026-08-03 13:23:48.153,37.067,-0.53,0.33,0.77,-19.71,33.39,185.79
1402,2026-08-03 13:23:48.154,37.068,-0.54,0.14,0.68,-17.76,39.43,177.55
1403,2026-08-03 13:23:48.219,37.133,-0.54,0.14,0.68,-17.76,39.43,177.55
1404,2026-08-03 13:23:48.220,37.134,-0.33,0.08,0.83,17.27,36.68,138.49
1405,2026-08-03 13:23:48.220,37.134,-0.07,0.2,0.99,43.88,31.86,89.23
1406,2026-08-03 13:23:48.221,37.135,-0.07,0.2,0.99,43.88,31.86,89.23
1407,2026-08-03 13:23:48.221,37.135,0.05,0.31,0.97,33.33,32.59,53.16
1408,2026-08-03 13:23:48.341,37.255,0.05,0.31,0.97,33.33,32.59,53.16
1409,2026-08-03 13:23:48.344,37.258,-0.01,0.26,0.84,10.44,33.2,32.96
1410,2026-08-03 13:23:48.345,37.259,-0.01,0.26,0.84,10.44,33.2,32.96
1411,2026-08-03 13:23:48.451,37.365,-0.09,0.14,0.8,0.67,27.89,13.98
1412,2026-08-03 13:23:48.454,37.368,-0.12,0.09,0.84,-1.04,21.85,-4.46
1413,2026-08-03 13:23:48.455,37.369,-0.12,0.09,0.84,-1.04,21.85,-4.46
1414,2026-08-03 13:23:48.455,37.369,-0.16,0.1,0.94,0.43,21.67,-8.42
1415,2026-08-03 13:23:48.456,37.37,-0.16,0.1,0.94,0.43,21.67,-8.42
1416,2026-08-03 13:23:48.570,37.484,-0.24,0.14,1.05,4.15,21.61,-6.59
1417,2026-08-03 13:23:48.571,37.485,-0.24,0.14,1.05,4.15,21.61,-6.59
1418,2026-08-03 13:23:48.571,37.485,-0.3,0.14,1.15,3.48,14.77,-19.59
1419,2026-08-03 13:23:48.571,37.485,-0.35,0.12,1.28,-1.4,7.75,-45.23
1420,2026-08-03 13:23:48.572,37.486,-0.35,0.12,1.28,-1.4,7.75,-45.23
1421,2026-08-03 13:23:48.572,37.486,-0.36,0.23,1.33,-9.16,8.18,-69.95
1422,2026-08-03 13:23:48.692,37.606,-0.26,0.42,1.22,-21.79,12.08,-82.52
1423,2026-08-03 13:23:48.693,37.607,-0.21,0.34,0.91,-35.52,12.39,-74.83
1424,2026-08-03 13:23:48.693,37.607,-0.31,0.02,0.56,-41.5,6.96,-56.15
1425,2026-08-03 13:23:48.693,37.607,-0.38,-0.14,0.52,-25.88,-4.82,-52.55
1426,2026-08-03 13:23:48.754,37.668,-0.27,-0.02,0.84,11.41,-20.14,-65.25
1427,2026-08-03 13:23:48.812,37.726,-0.14,0.09,1.07,32.65,-28.02,-68.42
1428,2026-08-03 13:23:48.813,37.727,-0.13,0.02,0.95,19.35,-21.73,-55.36
1429,2026-08-03 13:23:48.931,37.845,-0.17,-0.11,0.76,6.84,-11.11,-46.08
1430,2026-08-03 13:23:48.931,37.845,-0.14,-0.15,0.76,16.6,-7.02,-54.32
1431,2026-08-03 13:23:48.932,37.846,-0.14,-0.15,0.76,16.6,-7.02,-54.32
1432,2026-08-03 13:23:49.053,37.967,-0.02,-0.1,0.87,30.09,-11.11,-74.22
1433,2026-08-03 13:23:49.057,37.971,-0.02,-0.1,0.87,30.09,-11.11,-74.22
1434,2026-08-03 13:23:49.058,37.972,0.04,-0.05,0.95,31.86,-14.4,-90.39
1435,2026-08-03 13:23:49.059,37.973,-0.01,-0.06,1.01,26.06,-10.5,-90.58
1436,2026-08-03 13:23:49.059,37.973,-0.04,-0.04,1.08,28.02,-18.86,-87.65
1437,2026-08-03 13:23:49.060,37.974,-0.04,-0.04,1.08,28.02,-18.86,-87.65
1438,2026-08-03 13:23:49.110,38.024,0.03,0.06,1.22,41.14,-43.03,-92.29
1439,2026-08-03 13:23:49.231,38.145,0.01,0.24,1.39,44.92,-45.04,-71.96
1440,2026-08-03 13:23:49.232,38.146,0.01,0.24,1.39,44.92,-45.04,-71.96
1441,2026-08-03 13:23:49.233,38.147,-0.2,0.38,1.32,15.87,-19.71,-18.86
1442,2026-08-03 13:23:49.233,38.147,-0.46,0.27,0.95,-30.33,3.78,19.78
1443,2026-08-03 13:23:49.234,38.148,-0.46,0.27,0.95,-30.33,3.78,19.78
1444,2026-08-03 13:23:49.357,38.271,-0.55,0.11,0.64,-43.15,10.93,9.95
1445,2026-08-03 13:23:49.357,38.271,-0.41,0.1,0.72,-5.49,5.25,-37.78
1446,2026-08-03 13:23:49.358,38.272,-0.41,0.1,0.72,-5.49,5.25,-37.78
1447,2026-08-03 13:23:49.358,38.272,-0.15,0.17,0.98,30.21,5.74,-91.31
1448,2026-08-03 13:23:49.410,38.324,-0.01,0.19,1.09,22.46,23.56,-120.48
1449,2026-08-03 13:23:49.411,38.325,-0.05,0.11,0.98,-1.71,43.64,-111.51
1450,2026-08-03 13:23:49.473,38.387,-0.05,0.11,0.98,-1.71,43.64,-111.51
1451,2026-08-03 13:23:49.474,38.388,-0.13,0.02,0.85,-10.5,46.39,-83.92
1452,2026-08-03 13:23:49.535,38.449,-0.08,0.02,0.85,-3.17,32.65,-64.64
1453,2026-08-03 13:23:49.536,38.45,-0.08,0.02,0.85,-3.17,32.65,-64.64
1454,2026-08-03 13:23:49.536,38.45,0.01,0.06,0.89,0.55,20.2,-51.15
1455,2026-08-03 13:23:49.831,38.745,0.01,0.06,0.89,-3.72,16.85,-31.74
1456,2026-08-03 13:23:49.832,38.746,-0.01,0.07,0.91,-3.72,16.85,-31.74
1457,2026-08-03 13:23:49.834,38.748,-0.11,0.03,0.99,0.49,13.12,-12.63
1458,2026-08-03 13:23:49.835,38.749,-0.22,-0.07,1.1,8.0,7.14,-4.27
1459,2026-08-03 13:23:49.836,38.75,-0.22,-0.07,1.1,8.0,7.14,-4.27
1460,2026-08-03 13:23:49.836,38.75,-0.35,-0.11,1.12,2.38,10.74,-4.76
1461,2026-08-03 13:23:49.837,38.751,-0.4,0.04,1.1,-11.78,26.86,-5.62
1462,2026-08-03 13:23:49.838,38.752,-0.4,0.04,1.1,-11.78,26.86,-5.62
1463,2026-08-03 13:23:49.841,38.755,-0.37,0.23,1.05,-23.25,39.98,-0.92
1464,2026-08-03 13:23:49.841,38.755,-0.42,0.17,0.86,-35.77,39.92,13.79
1465,2026-08-03 13:23:49.951,38.865,-0.49,-0.03,0.68,-41.26,32.65,27.22
1466,2026-08-03 13:23:49.952,38.866,-0.49,-0.03,0.68,-41.26,32.65,27.22
1467,2026-08-03 13:23:49.953,38.867,-0.43,-0.08,0.75,-19.78,21.0,25.63
1468,2026-08-03 13:23:49.953,38.867,-0.35,-0.04,0.91,8.79,10.68,25.27
1469,2026-08-03 13:23:49.954,38.868,-0.35,-0.04,0.91,8.79,10.68,25.27
1470,2026-08-03 13:23:50.011,38.925,-0.37,-0.01,0.93,11.05,11.23,42.05
1471,2026-08-03 13:23:50.016,38.93,-0.43,0.01,0.83,-3.23,16.6,63.17
1472,2026-08-03 13:23:50.191,39.105,-0.43,0.01,0.83,-3.23,16.6,63.17
1473,2026-08-03 13:23:50.191,39.105,-0.44,0.04,0.74,-9.4,18.19,73.61
1474,2026-08-03 13:23:50.193,39.107,-0.44,0.04,0.74,-9.4,18.19,73.61
1475,2026-08-03 13:23:50.195,39.109,-0.41,0.07,0.72,-2.38,16.17,75.07
1476,2026-08-03 13:23:50.197,39.111,-0.41,0.07,0.72,-2.38,16.17,75.07
1477,2026-08-03 13:23:50.198,39.112,-0.37,0.08,0.75,13.49,13.12,74.46
1478,2026-08-03 13:23:50.198,39.112,-0.37,0.08,0.75,28.02,9.52,77.03
1479,2026-08-03 13:23:50.198,39.112,-0.34,0.1,0.8,28.02,9.52,77.03
1480,2026-08-03 13:23:50.311,39.225,-0.33,0.1,0.83,34.85,4.88,85.75
1481,2026-08-03 13:23:50.312,39.226,-0.33,0.1,0.83,34.85,4.88,85.75
1482,2026-08-03 13:23:50.312,39.226,-0.32,0.08,0.83,34.06,4.46,97.96
1483,2026-08-03 13:23:50.313,39.227,-0.34,0.08,0.81,30.82,12.63,110.23
1484,2026-08-03 13:23:50.370,39.284,-0.34,0.08,0.81,30.82,12.63,110.23
1485,2026-08-03 13:23:50.371,39.285,-0.4,0.09,0.82,28.87,22.46,119.57
1486,2026-08-03 13:23:50.371,39.285,-0.36,0.24,0.75,21.97,25.27,120.48
1487,2026-08-03 13:23:50.490,39.404,-0.36,0.24,0.75,21.97,25.27,120.48
1488,2026-08-03 13:23:50.491,39.405,-0.32,0.49,0.69,8.67,29.6,123.6
1489,2026-08-03 13:23:50.492,39.406,-0.37,0.58,0.7,0.85,29.97,129.27
1490,2026-08-03 13:23:50.492,39.406,-0.35,0.56,0.65,3.78,16.6,124.69
1491,2026-08-03 13:23:50.557,39.471,-0.35,0.56,0.65,3.78,16.6,124.69
1492,2026-08-03 13:23:50.611,39.525,-0.29,0.51,0.62,6.9,7.75,108.34
1493,2026-08-03 13:23:50.611,39.525,-0.24,0.5,0.69,14.95,8.54,86.43
1494,2026-08-03 13:23:50.675,39.589,-0.24,0.5,0.69,14.95,8.54,86.43
1495,2026-08-03 13:23:50.675,39.589,-0.24,0.56,0.83,27.28,10.01,73.43
1496,2026-08-03 13:23:50.675,39.589,-0.3,0.7,1.0,27.95,13.18,70.62
1497,2026-08-03 13:23:50.676,39.59,-0.3,0.7,1.0,27.95,13.18,70.62
1498,2026-08-03 13:23:50.730,39.644,-0.42,0.84,1.12,16.66,16.6,67.14
1499,2026-08-03 13:23:50.731,39.645,-0.42,0.84,1.12,16.66,16.6,67.14
1500,2026-08-03 13:23:50.795,39.709,-0.53,0.84,1.13,-1.89,20.63,55.36
1501,2026-08-03 13:23:50.796,39.71,-0.53,0.84,1.13,-1.89,20.63,55.36
1502,2026-08-03 13:23:50.796,39.71,-0.56,0.76,1.03,-21.97,28.44,33.63
1503,2026-08-03 13:23:50.855,39.769,-0.56,0.76,1.03,-21.97,28.44,33.63
1504,2026-08-03 13:23:50.855,39.769,-0.44,0.57,0.84,-37.48,39.06,8.18
1505,2026-08-03 13:23:50.856,39.77,-0.06,0.27,0.79,-61.83,62.93,-16.66
1506,2026-08-03 13:23:50.910,39.824,-0.06,0.27,0.79,-61.83,62.93,-16.66
1507,2026-08-03 13:23:50.972,39.886,0.39,0.15,0.77,-110.41,88.01,-39.49
1508,2026-08-03 13:23:50.973,39.887,0.39,0.15,0.77,-110.41,88.01,-39.49
1509,2026-08-03 13:23:50.974,39.888,0.3,0.34,0.57,-144.1,68.73,-23.56
1510,2026-08-03 13:23:51.152,40.066,-0.44,0.58,0.48,-123.47,8.79,44.98
1511,2026-08-03 13:23:51.152,40.066,-0.91,0.61,0.91,-42.11,-16.05,81.24
1512,2026-08-03 13:23:51.153,40.067,-0.91,0.61,0.91,-42.11,-16.05,81.24
1513,2026-08-03 13:23:51.510,40.424,-0.76,0.22,1.17,4.82,5.43,69.89
1514,2026-08-03 13:23:51.513,40.427,-0.76,0.22,1.17,4.82,5.43,69.89
1515,2026-08-03 13:23:51.514,40.428,-0.4,-0.26,0.7,-41.99,12.82,77.27
1516,2026-08-03 13:23:51.570,40.484,-0.4,-0.26,0.7,-41.99,12.82,77.27
1517,2026-08-03 13:23:51.571,40.485,-0.04,-0.21,0.47,-60.61,7.93,73.24
1518,2026-08-03 13:23:51.571,40.485,-0.04,-0.21,0.47,-21.61,12.57,28.02
1519,2026-08-03 13:23:51.572,40.486,-0.3,0.42,1.14,-21.61,12.57,28.02
1520,2026-08-03 13:23:51.572,40.486,-0.81,0.92,1.56,-22.58,31.68,-11.54
1521,2026-08-03 13:23:51.630,40.544,-0.81,0.92,1.56,-22.58,31.68,-11.54
1522,2026-08-03 13:23:51.631,40.545,-0.3,0.63,1.13,-41.44,53.1,-12.88
1523,2026-08-03 13:23:51.632,40.546,0.41,0.27,0.88,-12.94,36.01,6.53
1524,2026-08-03 13:23:51.637,40.551,0.35,0.35,0.97,19.47,-13.73,1.28
1525,2026-08-03 13:23:51.638,40.552,0.35,0.35,0.97,19.47,-13.73,1.28
1526,2026-08-03 13:23:51.639,40.553,0.35,0.35,0.97,19.47,-13.73,1.28
1527,2026-08-03 13:23:51.639,40.553,-0.02,0.25,1.02,-7.93,-68.3,-38.39
1528,2026-08-03 13:23:51.690,40.604,-0.22,0.25,0.99,-18.74,-53.34,-18.92
1529,2026-08-03 13:23:51.753,40.667,-0.34,0.3,0.96,-13.12,-21.73,4.15
1530,2026-08-03 13:23:51.814,40.728,-0.39,0.25,0.91,1.46,2.93,19.53
1531,2026-08-03 13:23:51.815,40.729,-0.42,0.23,0.93,34.0,8.36,30.58
1532,2026-08-03 13:23:51.817,40.731,-0.42,0.23,0.93,34.0,8.36,30.58
1533,2026-08-03 13:23:51.818,40.732,-0.64,0.43,0.98,169.31,11.9,16.54
1534,2026-08-03 13:23:51.818,40.732,-0.64,0.43,0.98,317.63,41.08,-34.24
1535,2026-08-03 13:23:51.818,40.732,-0.86,0.6,1.09,317.63,41.08,-34.24
1536,2026-08-03 13:23:51.818,40.732,-0.72,0.52,1.03,221.37,78.8,-82.4
1537,2026-08-03 13:23:51.819,40.733,-0.29,0.57,0.71,-14.4,83.44,-116.64
1538,2026-08-03 13:23:51.819,40.733,0.07,0.57,0.65,-112.73,60.06,-120.54
1539,2026-08-03 13:23:51.819,40.733,0.07,0.57,0.65,-83.31,29.91,-70.8
1540,2026-08-03 13:23:51.870,40.784,0.09,0.43,1.12,-83.31,29.91,-70.8
1541,2026-08-03 13:23:51.871,40.785,-0.2,0.34,1.2,-84.11,-26.49,-6.41
1542,2026-08-03 13:23:51.930,40.844,-0.2,0.34,1.2,-84.11,-26.49,-6.41
1543,2026-08-03 13:23:51.935,40.849,-0.54,-0.01,0.67,-163.09,-86.85,65.55
1544,2026-08-03 13:23:51.937,40.851,-0.54,-0.01,0.67,-163.09,-86.85,65.55
1545,2026-08-03 13:23:51.990,40.904,-0.48,-0.48,0.35,-194.76,-93.51,118.16
1546,2026-08-03 13:23:51.991,40.905,-0.48,-0.48,0.35,-194.76,-93.51,118.16
1547,2026-08-03 13:23:51.992,40.906,-0.07,-0.24,0.59,-64.45,-57.56,71.23
1548,2026-08-03 13:23:52.052,40.966,-0.26,0.78,1.21,69.89,-33.87,-21.06
1549,2026-08-03 13:23:52.055,40.969,-0.26,0.78,1.21,69.89,-33.87,-21.06
1550,2026-08-03 13:23:52.111,41.025,-0.85,1.19,1.25,57.98,-54.08,-49.19
1551,2026-08-03 13:23:52.112,41.026,-0.58,0.75,0.95,45.53,-60.97,-48.34
1552,2026-08-03 13:23:52.239,41.153,-0.58,0.75,0.95,45.53,-60.97,-48.34
1553,2026-08-03 13:23:52.239,41.153,0.05,0.65,0.79,87.52,-32.04,-72.69
1554,2026-08-03 13:23:52.240,41.154,0.16,0.83,0.74,107.73,-2.38,-99.67
1555,2026-08-03 13:23:52.240,41.154,-0.14,0.64,0.76,106.45,29.97,-91.67
1556,2026-08-03 13:23:52.291,41.205,-0.14,0.64,0.76,106.45,29.97,-91.67
1557,2026-08-03 13:23:52.292,41.206,-0.46,0.38,0.76,107.79,56.58,-65.43
1558,2026-08-03 13:23:52.351,41.265,-0.54,0.4,0.77,122.13,63.42,-68.79
1559,2026-08-03 13:23:52.351,41.265,-0.5,0.52,0.67,127.62,45.59,-89.6
1560,2026-08-03 13:23:52.410,41.324,-0.5,0.52,0.67,127.62,45.59,-89.6
1561,2026-08-03 13:23:52.411,41.325,-0.51,0.55,0.65,109.56,29.6,-96.07
1562,2026-08-03 13:23:52.591,41.505,-0.57,0.48,0.76,98.51,22.77,-79.96
1563,2026-08-03 13:23:52.591,41.505,-0.62,0.5,0.84,90.88,-12.76,-68.97
1564,2026-08-03 13:23:52.592,41.506,-0.62,0.5,0.84,90.88,-12.76,-68.97
1565,2026-08-03 13:23:52.656,41.57,-0.67,0.61,0.84,37.66,-69.27,-79.53
1566,2026-08-03 13:23:52.657,41.571,-0.67,0.61,0.84,37.66,-69.27,-79.53
1567,2026-08-03 13:23:52.657,41.571,-0.72,0.63,0.72,-24.29,-116.94,-92.83
1568,2026-08-03 13:23:52.658,41.572,-0.72,0.63,0.72,-24.29,-116.94,-92.83
1569,2026-08-03 13:23:52.658,41.572,-0.77,0.62,0.49,-42.11,-151.43,-107.24
1570,2026-08-03 13:23:52.658,41.572,-0.74,0.64,0.25,-29.17,-166.63,-116.15
1571,2026-08-03 13:23:52.724,41.638,-0.6,0.71,0.21,-10.07,-153.99,-102.17
1572,2026-08-03 13:23:52.725,41.639,-0.38,0.72,0.42,0.79,-119.08,-67.57
1573,2026-08-03 13:23:52.771,41.685,-0.38,0.72,0.42,0.79,-119.08,-67.57
1574,2026-08-03 13:23:52.771,41.685,-0.2,0.51,0.73,-16.11,-80.14,-18.13
1575,2026-08-03 13:23:52.831,41.745,-0.2,0.51,0.73,-60.12,-52.12,37.48
1576,2026-08-03 13:23:52.832,41.746,-0.13,0.15,0.94,-60.12,-52.12,37.48
1577,2026-08-03 13:23:52.832,41.746,-0.05,-0.01,0.9,-81.42,-40.83,65.86
1578,2026-08-03 13:23:52.893,41.807,-0.05,-0.01,0.9,-81.42,-40.83,65.86
1579,2026-08-03 13:23:52.894,41.808,0.08,0.06,0.72,-68.24,-37.84,60.3
1580,2026-08-03 13:23:53.071,41.985,0.15,0.13,0.64,-51.76,-33.51,50.23
1581,2026-08-03 13:23:53.072,41.986,0.15,0.13,0.64,-51.76,-33.51,50.23
1582,2026-08-03 13:23:53.073,41.987,0.02,0.09,0.9,-16.48,-24.11,14.34
1583,2026-08-03 13:23:53.075,41.989,-0.09,0.16,0.95,-21.85,-15.75,-0.55
1584,2026-08-03 13:23:53.075,41.989,-0.21,0.22,0.95,-41.63,-12.15,12.51
1585,2026-08-03 13:23:53.131,42.045,-0.21,0.22,0.95,-41.63,-12.15,12.51
1586,2026-08-03 13:23:53.131,42.045,-0.24,0.25,0.96,-55.11,-11.41,31.68
1587,2026-08-03 13:23:53.132,42.046,-0.24,0.25,0.96,-55.11,-11.41,31.68
1588,2026-08-03 13:23:53.191,42.105,-0.07,0.27,1.13,-63.54,-11.9,27.28
1589,2026-08-03 13:23:53.250,42.164,0.09,0.27,1.35,-49.13,-13.37,11.29
1590,2026-08-03 13:23:53.251,42.165,0.0,0.26,1.36,-13.61,-7.93,23.86
1591,2026-08-03 13:23:53.252,42.166,0.0,0.26,1.36,-13.61,-7.93,23.86
1592,2026-08-03 13:23:53.320,42.234,-0.27,0.21,1.07,-21.3,-1.16,74.4
1593,2026-08-03 13:23:53.321,42.235,-0.48,0.11,0.72,-68.3,-6.16,130.86
1594,2026-08-03 13:23:53.430,42.344,-0.48,0.11,0.72,-68.3,-6.16,130.86
1595,2026-08-03 13:23:53.431,42.345,-0.43,0.04,0.73,-71.23,-13.98,157.29
1596,2026-08-03 13:23:53.432,42.346,-0.22,0.06,0.98,-34.06,-13.61,148.07
1597,2026-08-03 13:23:53.432,42.346,-0.11,0.1,1.09,-21.06,-4.46,127.69
1598,2026-08-03 13:23:53.550,42.464,-0.11,0.1,1.09,-21.06,-4.46,127.69
1599,2026-08-03 13:23:53.551,42.465,-0.13,0.12,0.99,-41.87,4.21,110.9
1600,2026-08-03 13:23:53.610,42.524,-0.13,0.12,0.99,-41.87,4.21,110.9
1601,2026-08-03 13:23:53.611,42.525,-0.16,0.12,0.85,-63.23,2.26,96.98
1602,2026-08-03 13:23:53.612,42.526,-0.14,0.11,0.85,-60.0,-13.12,76.66
1603,2026-08-03 13:23:53.612,42.526,-0.14,0.11,0.85,-33.63,-30.15,46.08
1604,2026-08-03 13:23:53.613,42.527,-0.14,0.04,0.95,-33.63,-30.15,46.08
1605,2026-08-03 13:23:53.678,42.592,-0.2,-0.05,1.11,1.1,-29.17,20.51
1606,2026-08-03 13:23:53.679,42.593,-0.18,0.01,1.4,23.19,-17.33,-8.61
1607,2026-08-03 13:23:53.730,42.644,-0.18,0.01,1.4,23.19,-17.33,-8.61
1608,2026-08-03 13:23:53.731,42.645,-0.15,0.13,1.43,11.47,-11.84,-35.22
1609,2026-08-03 13:23:53.792,42.706,-0.15,0.13,1.43,11.47,-11.84,-35.22
1610,2026-08-03 13:23:53.792,42.706,-0.25,-0.0,1.0,-25.7,-5.55,-21.42
1611,2026-08-03 13:23:53.793,42.707,-0.25,-0.0,1.0,-50.17,8.0,12.88
1612,2026-08-03 13:23:53.852,42.766,-0.37,-0.27,0.61,-50.17,8.0,12.88
1613,2026-08-03 13:23:53.852,42.766,-0.34,-0.42,0.6,-41.2,15.56,25.63
1614,2026-08-03 13:23:53.853,42.767,-0.34,-0.42,0.6,-41.2,15.56,25.63
1615,2026-08-03 13:23:53.913,42.827,-0.17,-0.37,0.81,-6.16,6.41,24.54
1616,2026-08-03 13:23:54.033,42.947,0.04,-0.23,1.01,25.33,-7.45,33.51
1617,2026-08-03 13:23:54.034,42.948,0.04,-0.23,1.01,25.33,-7.45,33.51
1618,2026-08-03 13:23:54.098,43.012,0.13,-0.17,1.03,18.68,-5.74,54.93
1619,2026-08-03 13:23:54.098,43.012,0.05,-0.15,0.89,-16.3,12.63,84.78
1620,2026-08-03 13:23:54.101,43.015,0.05,-0.15,0.89,-16.3,12.63,84.78
1621,2026-08-03 13:23:54.101,43.015,-0.13,-0.15,0.77,-41.44,25.7,112.18
1622,2026-08-03 13:23:54.102,43.016,-0.13,-0.15,0.77,-41.44,25.7,112.18
1623,2026-08-03 13:23:54.151,43.065,-0.26,-0.18,0.73,-43.88,21.97,118.71
1624,2026-08-03 13:23:54.152,43.066,-0.26,-0.18,0.73,-43.88,21.97,118.71
1625,2026-08-03 13:23:54.152,43.066,-0.28,-0.17,0.77,-31.43,14.04,106.87
1626,2026-08-03 13:23:54.154,43.068,-0.29,-0.13,0.83,-10.86,12.88,95.21
1627,2026-08-03 13:23:54.211,43.125,-0.29,-0.13,0.83,-10.86,12.88,95.21
1628,2026-08-03 13:23:54.212,43.126,-0.37,-0.14,0.88,11.11,18.43,91.61
1629,2026-08-03 13:23:54.271,43.185,-0.37,-0.13,0.94,31.13,19.59,83.74
1630,2026-08-03 13:23:54.330,43.244,-0.14,-0.05,1.02,42.42,-4.46,50.29
1631,2026-08-03 13:23:54.331,43.245,-0.14,-0.05,1.02,42.42,-4.46,50.29
1632,2026-08-03 13:23:54.398,43.312,0.1,0.01,1.15,39.73,-45.23,14.04
1633,2026-08-03 13:23:54.399,43.313,0.02,0.13,1.28,30.64,-48.71,33.51
1634,2026-08-03 13:23:54.452,43.366,-0.36,0.29,1.25,15.14,-11.35,107.6
1635,2026-08-03 13:23:54.453,43.367,-0.71,0.22,0.96,-14.77,15.5,165.77
1636,2026-08-03 13:23:54.571,43.485,-0.74,0.02,0.65,-39.92,16.17,158.14
1637,2026-08-03 13:23:54.572,43.486,-0.74,0.02,0.65,-39.92,16.17,158.14
1638,2026-08-03 13:23:54.572,43.486,-0.44,0.01,0.7,-24.9,4.52,103.45
1639,2026-08-03 13:23:54.576,43.49,-0.44,0.01,0.7,-24.9,4.52,103.45
1640,2026-08-03 13:23:54.577,43.491,-0.13,0.14,0.96,4.33,-0.61,56.52
1641,2026-08-03 13:23:54.631,43.545,-0.13,0.14,0.96,4.33,-0.61,56.52
1642,2026-08-03 13:23:54.632,43.546,-0.08,0.17,0.99,-2.01,12.57,48.22
1643,2026-08-03 13:23:54.633,43.547,-0.08,0.17,0.99,-2.01,12.57,48.22
1644,2026-08-03 13:23:54.693,43.607,-0.22,0.14,0.84,-21.61,31.8,62.93
1645,2026-08-03 13:23:54.693,43.607,-0.34,0.12,0.77,-21.42,39.86,74.89
1646,2026-08-03 13:23:54.694,43.608,-0.34,0.12,0.77,-21.42,39.86,74.89
1647,2026-08-03 13:23:54.810,43.724,-0.35,0.11,0.84,-12.39,37.41,74.4
1648,2026-08-03 13:23:54.811,43.725,-0.35,0.11,0.84,-12.39,37.41,74.4
1649,2026-08-03 13:23:54.811,43.725,-0.33,0.1,0.92,-9.7,31.74,61.46
1650,2026-08-03 13:23:54.812,43.726,-0.33,0.1,0.92,-9.7,31.74,61.46
1651,2026-08-03 13:23:54.812,43.726,-0.33,0.07,0.96,-16.54,22.89,39.12
1652,2026-08-03 13:23:54.871,43.785,-0.33,0.07,0.96,-24.66,12.33,20.39
1653,2026-08-03 13:23:54.871,43.785,-0.42,0.03,0.98,-24.66,12.33,20.39
1654,2026-08-03 13:23:54.933,43.847,-0.56,0.14,1.05,-17.4,8.79,12.02
1655,2026-08-03 13:23:54.934,43.848,-0.56,0.14,1.05,-17.4,8.79,12.02
1656,2026-08-03 13:23:54.936,43.85,-0.59,0.32,1.07,-4.33,14.34,14.16
1657,2026-08-03 13:23:55.293,44.207,-0.59,0.32,1.07,-4.33,14.34,14.16
1658,2026-08-03 13:23:55.294,44.208,-0.51,0.25,0.88,-16.85,18.19,28.26
1659,2026-08-03 13:23:55.294,44.208,-0.43,0.0,0.61,-42.18,11.78,40.47
1660,2026-08-03 13:23:55.295,44.209,-0.37,-0.1,0.57,-37.84,1.53,37.23
1661,2026-08-03 13:23:55.295,44.209,-0.37,0.05,0.79,-7.39,2.38,35.28
1662,2026-08-03 13:23:55.297,44.211,-0.37,0.05,0.79,-7.39,2.38,35.28
1663,2026-08-03 13:23:55.297,44.211,-0.47,0.22,0.92,3.54,13.31,56.58
1664,2026-08-03 13:23:55.299,44.213,-0.47,0.22,0.92,3.54,13.31,56.58
1665,2026-08-03 13:23:55.299,44.213,-0.58,0.19,0.82,-12.7,19.9,85.82
1666,2026-08-03 13:23:55.302,44.216,-0.58,0.19,0.82,-12.7,19.9,85.82
1667,2026-08-03 13:23:55.303,44.217,-0.57,0.07,0.72,-17.03,19.71,90.7
1668,2026-08-03 13:23:55.303,44.217,-0.46,0.03,0.75,-0.79,20.02,72.81
1669,2026-08-03 13:23:55.304,44.218,-0.37,0.04,0.78,14.16,23.5,60.42
1670,2026-08-03 13:23:55.364,44.278,-0.36,0.06,0.77,24.05,26.55,62.99
1671,2026-08-03 13:23:55.365,44.279,-0.36,0.06,0.77,24.05,26.55,62.99
1672,2026-08-03 13:23:55.412,44.326,-0.38,0.09,0.75,37.35,25.39,67.14
1673,2026-08-03 13:23:55.413,44.327,-0.38,0.17,0.77,55.05,21.18,66.83
1674,2026-08-03 13:23:55.471,44.385,-0.38,0.17,0.77,55.05,21.18,66.83
1675,2026-08-03 13:23:55.472,44.386,-0.41,0.28,0.8,69.64,16.05,63.66
1676,2026-08-03 13:23:55.590,44.504,-0.5,0.47,0.75,72.57,16.66,60.42
1677,2026-08-03 13:23:55.591,44.505,-0.5,0.47,0.75,72.57,16.66,60.42
1678,2026-08-03 13:23:55.591,44.505,-0.69,0.7,0.73,73.18,34.48,63.23
1679,2026-08-03 13:23:55.592,44.506,-0.69,0.7,0.73,83.37,54.87,56.58
1680,2026-08-03 13:23:55.592,44.506,-0.72,0.68,0.64,83.37,54.87,56.58
1681,2026-08-03 13:23:55.652,44.566,-0.5,0.55,0.42,98.02,62.44,24.78
1682,2026-08-03 13:23:55.653,44.567,-0.5,0.55,0.42,98.02,62.44,24.78
1683,2026-08-03 13:23:55.653,44.567,-0.45,0.67,0.26,102.6,69.58,0.43
1684,2026-08-03 13:23:55.831,44.745,-0.45,0.67,0.26,102.6,69.58,0.43
1685,2026-08-03 13:23:55.832,44.746,-0.64,0.83,0.26,90.39,66.71,14.04
1686,2026-08-03 13:23:55.832,44.746,-0.74,0.9,0.36,81.67,45.59,36.74
1687,2026-08-03 13:23:55.833,44.747,-0.74,0.95,0.35,83.07,27.83,37.9
1688,2026-08-03 13:23:55.834,44.748,-0.69,0.99,0.29,78.86,17.94,22.83
1689,2026-08-03 13:23:55.953,44.867,-0.6,0.95,0.28,65.31,7.63,-1.34
1690,2026-08-03 13:23:55.954,44.868,-0.6,0.95,0.28,65.31,7.63,-1.34
1691,2026-08-03 13:23:55.954,44.868,-0.56,0.85,0.28,43.7,-0.98,-26.25
1692,2026-08-03 13:23:55.954,44.868,-0.58,0.8,0.29,22.22,-7.14,-38.21
1693,2026-08-03 13:23:56.071,44.985,-0.64,0.81,0.33,8.61,-15.56,-35.16
1694,2026-08-03 13:23:56.074,44.988,-0.64,0.81,0.33,8.61,-15.56,-35.16
1695,2026-08-03 13:23:56.076,44.99,-0.72,0.8,0.39,-0.18,-28.87,-22.89
1696,2026-08-03 13:23:56.076,44.99,-0.76,0.76,0.45,-10.31,-44.01,-8.97
1697,2026-08-03 13:23:56.132,45.046,-0.75,0.72,0.52,-24.78,-51.57,-4.46
1698,2026-08-03 13:23:56.370,45.284,-0.71,0.67,0.57,-42.54,-47.73,-11.23
1699,2026-08-03 13:23:56.430,45.344,-0.71,0.67,0.57,-42.54,-47.73,-11.23
1700,2026-08-03 13:23:56.431,45.345,-0.65,0.63,0.57,-46.14,-41.38,-24.66
1701,2026-08-03 13:23:56.433,45.347,-0.65,0.63,0.57,-46.14,-41.38,-24.66
1702,2026-08-03 13:23:56.433,45.347,-0.56,0.58,0.57,-35.52,-41.44,-40.04
1703,2026-08-03 13:23:56.434,45.348,-0.56,0.58,0.57,-35.52,-41.44,-40.04
1704,2026-08-03 13:23:56.435,45.349,-0.49,0.51,0.56,-39.25,-48.28,-50.6
1705,2026-08-03 13:23:56.435,45.349,-0.46,0.41,0.55,-59.39,-56.88,-56.95
1706,2026-08-03 13:23:56.439,45.353,-0.45,0.32,0.54,-74.46,-64.39,-68.42
1707,2026-08-03 13:23:56.440,45.354,-0.45,0.32,0.54,-74.46,-64.39,-68.42
1708,2026-08-03 13:23:56.441,45.355,-0.4,0.24,0.57,-70.31,-71.72,-88.75
1709,2026-08-03 13:23:56.493,45.407,-0.39,0.17,0.65,-57.43,-78.0,-106.81
1710,2026-08-03 13:23:56.494,45.408,-0.48,0.11,0.73,-54.14,-84.41,-113.59
1711,2026-08-03 13:23:56.495,45.409,-0.67,0.18,0.74,-59.33,-92.71,-117.74
1712,2026-08-03 13:23:56.561,45.475,-0.67,0.18,0.74,-59.33,-92.71,-117.74
1713,2026-08-03 13:23:56.561,45.475,-0.92,0.32,0.75,-66.1,-93.69,-130.62
1714,2026-08-03 13:23:56.618,45.532,-0.92,0.32,0.75,-66.1,-93.69,-130.62
1715,2026-08-03 13:23:56.625,45.539,-1.0,0.41,0.87,-46.08,-74.52,-150.45
1716,2026-08-03 13:23:56.625,45.539,-0.81,0.38,0.99,4.09,-47.79,-147.95
1717,2026-08-03 13:23:56.731,45.645,-0.81,0.38,0.99,4.09,-47.79,-147.95
1718,2026-08-03 13:23:56.731,45.645,-0.5,0.18,0.95,35.71,-41.38,-105.65
1719,2026-08-03 13:23:56.799,45.713,-0.5,0.18,0.95,35.71,-41.38,-105.65
