Timestamp,AccX,AccY,AccZ,GyroX,GyroY,GyroZ
2026-08-03 13:20:26.620,-0.33,-0.13,0.86,1.65,-4.82,2.62
2026-08-03 13:20:26.621,0.03,0.97,1.28,47.06,-2.26,77.7
2026-08-03 13:20:26.621,-0.39,0.84,1.24,-57.62,2.62,-25.82
2026-08-03 13:20:26.622,-0.39,0.84,1.24,-57.62,2.62,-25.82
2026-08-03 13:20:26.623,-0.31,0.37,1.04,-124.21,10.5,-103.15
2026-08-03 13:20:26.672,-0.31,0.37,1.04,-124.21,10.5,-103.15
2026-08-03 13:20:26.673,0.01,-0.0,0.92,-122.07,18.31,-111.33
2026-08-03 13:20:26.673,0.29,-0.13,0.88,-81.36,24.41,-71.04
2026-08-03 13:20:26.674,0.29,-0.13,0.88,-81.36,24.41,-71.04
2026-08-03 13:20:26.732,0.42,-0.1,0.87,-50.48,26.55,-21.3
2026-08-03 13:20:26.734,0.42,-0.1,0.87,-50.48,26.55,-21.3
2026-08-03 13:20:26.735,0.45,-0.05,0.9,-40.71,21.48,13.31
2026-08-03 13:20:26.852,0.45,-0.05,0.9,-40.71,21.48,13.31
2026-08-03 13:20:26.853,0.42,-0.06,0.93,-33.02,17.09,25.88
2026-08-03 13:20:26.854,0.42,-0.06,0.93,-15.69,19.41,21.36
2026-08-03 13:20:26.854,0.39,-0.06,0.91,-15.69,19.41,21.36
2026-08-03 13:20:26.855,0.36,-0.08,0.87,-8.0,16.05,11.23
2026-08-03 13:20:26.926,0.36,-0.08,0.87,-8.0,16.05,11.23
2026-08-03 13:20:26.927,0.35,-0.12,0.83,-15.81,2.44,1.22
2026-08-03 13:20:26.927,0.35,-0.12,0.83,-15.81,2.44,1.22
2026-08-03 13:20:26.973,0.38,-0.15,0.83,-11.35,-12.7,-13.85
2026-08-03 13:20:26.973,0.38,-0.15,0.83,-11.35,-12.7,-13.85
2026-08-03 13:20:27.032,0.42,-0.19,0.87,-2.38,-16.85,-23.44
2026-08-03 13:20:27.033,0.44,-0.21,0.87,-11.78,-7.02,-16.78
2026-08-03 13:20:27.039,0.44,-0.21,0.87,-11.78,-7.02,-16.78
2026-08-03 13:20:27.094,0.42,-0.21,0.85,-24.96,9.46,-2.26
2026-08-03 13:20:27.095,0.42,-0.21,0.85,-24.96,9.46,-2.26
2026-08-03 13:20:27.096,0.35,-0.22,0.82,-36.5,19.04,3.72
2026-08-03 13:20:27.162,0.35,-0.22,0.82,-36.5,19.04,3.72
2026-08-03 13:20:27.163,0.29,-0.2,0.8,-17.4,20.51,-23.07
2026-08-03 13:20:27.213,0.29,-0.2,0.8,-17.4,20.51,-23.07
2026-08-03 13:20:27.214,0.29,-0.14,0.87,53.28,39.12,-80.02
2026-08-03 13:20:27.214,0.3,-0.08,0.97,75.13,56.34,-118.35
2026-08-03 13:20:27.272,0.3,-0.08,0.97,75.13,56.34,-118.35
2026-08-03 13:20:27.273,0.28,-0.03,1.01,18.31,55.24,-113.77
2026-08-03 13:20:27.274,0.28,-0.03,1.01,18.31,55.24,-113.77
2026-08-03 13:20:27.334,0.25,0.02,0.97,-28.69,56.64,-87.1
2026-08-03 13:20:27.334,0.25,0.02,0.97,-28.69,56.64,-87.1
2026-08-03 13:20:27.392,0.21,0.06,0.9,-37.29,58.84,-59.57
2026-08-03 13:20:27.393,0.22,0.05,0.86,-24.11,59.69,-57.13
2026-08-03 13:20:27.393,0.22,0.05,0.86,-24.11,59.69,-57.13
2026-08-03 13:20:27.451,0.26,0.05,0.91,-22.89,80.75,-92.83
2026-08-03 13:20:27.451,0.26,0.05,0.91,-22.89,80.75,-92.83
2026-08-03 13:20:27.512,0.26,0.09,1.01,-54.93,98.27,-117.13
2026-08-03 13:20:27.512,0.26,0.09,1.01,-54.93,98.27,-117.13
2026-08-03 13:20:27.513,0.22,0.1,1.01,-52.8,80.14,-74.34
2026-08-03 13:20:27.572,0.2,0.07,0.96,0.85,47.36,-7.45
2026-08-03 13:20:27.574,0.2,0.07,0.96,0.85,47.36,-7.45
2026-08-03 13:20:27.574,0.22,0.02,0.9,21.73,7.93,19.35
2026-08-03 13:20:27.636,0.22,0.02,0.9,21.73,7.93,19.35
2026-08-03 13:20:27.637,0.22,-0.05,0.96,-4.46,-23.86,16.11
2026-08-03 13:20:27.691,0.22,-0.05,0.96,-4.46,-23.86,16.11
2026-08-03 13:20:27.692,0.28,-0.16,0.98,-32.35,-77.39,11.78
2026-08-03 13:20:27.692,0.28,-0.16,0.98,-34.91,-114.93,21.79
2026-08-03 13:20:27.751,0.31,-0.2,0.89,-34.91,-114.93,21.79
2026-08-03 13:20:27.751,-0.09,-0.14,0.85,19.53,-66.96,54.99
2026-08-03 13:20:27.752,-0.09,-0.14,0.85,19.53,-66.96,54.99
2026-08-03 13:20:27.812,-0.19,-0.09,0.71,98.82,-118.96,139.89
2026-08-03 13:20:27.812,-0.19,-0.09,0.71,98.82,-118.96,139.89
2026-08-03 13:20:27.875,0.34,-0.22,0.45,97.11,-311.28,249.69
2026-08-03 13:20:27.876,0.34,-0.22,0.45,5.49,-279.48,212.46
2026-08-03 13:20:27.876,0.54,-0.32,0.46,5.49,-279.48,212.46
2026-08-03 13:20:27.932,0.3,-0.39,0.9,-121.83,2.08,55.18
2026-08-03 13:20:27.932,0.3,-0.39,0.9,-121.83,2.08,55.18
2026-08-03 13:20:27.992,0.11,-0.59,1.29,-164.31,188.54,-22.28
2026-08-03 13:20:27.992,0.11,-0.59,1.29,-164.31,188.54,-22.28
2026-08-03 13:20:27.992,0.06,-0.67,1.28,-69.34,183.04,-5.55
2026-08-03 13:20:28.052,0.04,-0.64,1.02,14.34,95.46,29.97
2026-08-03 13:20:28.053,0.04,-0.64,1.02,14.34,95.46,29.97
2026-08-03 13:20:28.113,0.04,-0.64,0.77,14.1,29.36,37.23
2026-08-03 13:20:28.114,0.04,-0.64,0.77,14.1,29.36,37.23
2026-08-03 13:20:28.114,0.09,-0.62,0.67,-1.4,30.52,11.17
2026-08-03 13:20:28.172,0.09,-0.62,0.67,-1.4,30.52,11.17
2026-08-03 13:20:28.172,0.13,-0.54,0.72,1.04,74.28,-16.17
2026-08-03 13:20:28.172,0.13,-0.54,0.72,1.04,74.28,-16.17
2026-08-03 13:20:28.232,0.15,-0.47,0.75,8.42,95.09,-21.85
2026-08-03 13:20:28.232,0.19,-0.42,0.76,19.59,72.57,-11.11
2026-08-03 13:20:28.233,0.19,-0.42,0.76,19.59,72.57,-11.11
2026-08-03 13:20:28.308,0.29,-0.42,0.79,30.88,22.95,10.56
2026-08-03 13:20:28.309,0.29,-0.42,0.79,30.88,22.95,10.56
2026-08-03 13:20:28.352,0.42,-0.42,0.88,44.07,-19.1,33.51
2026-08-03 13:20:28.353,0.42,-0.42,0.88,44.07,-19.1,33.51
2026-08-03 13:20:28.353,0.5,-0.36,1.05,89.36,-23.13,38.39
2026-08-03 13:20:28.412,0.5,-0.36,1.05,182.01,-3.97,33.26
2026-08-03 13:20:28.412,0.43,-0.17,1.19,182.01,-3.97,33.26
2026-08-03 13:20:28.471,0.27,0.11,1.24,264.28,11.54,45.41
2026-08-03 13:20:28.471,0.27,0.11,1.24,264.28,11.54,45.41
2026-08-03 13:20:28.471,0.1,0.38,1.29,248.72,21.97,76.97
2026-08-03 13:20:28.531,0.1,0.38,1.29,248.72,21.97,76.97
2026-08-03 13:20:28.532,0.0,0.57,1.28,132.81,36.5,106.2
2026-08-03 13:20:28.591,-0.03,0.51,1.11,-29.54,38.94,107.79
2026-08-03 13:20:28.591,-0.03,0.51,1.11,-29.54,38.94,107.79
2026-08-03 13:20:28.592,-0.06,0.23,0.97,-192.44,7.81,77.51
2026-08-03 13:20:28.662,-0.06,0.23,0.97,-192.44,7.81,77.51
2026-08-03 13:20:28.667,-0.04,-0.08,1.03,-296.45,-24.41,43.88
2026-08-03 13:20:28.667,-0.04,-0.08,1.03,-296.45,-24.41,43.88
2026-08-03 13:20:28.712,-0.02,-0.2,1.15,-281.62,-30.15,29.48
2026-08-03 13:20:28.712,-0.02,-0.13,1.1,-182.56,-22.46,-12.27
2026-08-03 13:20:28.772,-0.02,-0.13,1.1,-182.56,-22.46,-12.27
2026-08-03 13:20:28.772,-0.05,-0.14,0.81,-100.71,11.54,-109.99
2026-08-03 13:20:28.773,-0.05,-0.14,0.81,-100.71,11.54,-109.99
2026-08-03 13:20:28.891,-0.12,-0.19,0.43,-34.85,66.16,-168.46
2026-08-03 13:20:28.892,-0.12,-0.19,0.43,-34.85,66.16,-168.46
2026-08-03 13:20:28.892,-0.19,-0.21,0.2,43.58,86.0,-126.1
2026-08-03 13:20:28.892,-0.25,-0.2,0.23,92.16,75.62,-63.42
2026-08-03 13:20:28.893,-0.25,-0.2,0.23,92.16,75.62,-63.42
2026-08-03 13:20:28.951,-0.29,-0.2,0.44,96.98,59.63,-40.65
2026-08-03 13:20:28.952,-0.29,-0.2,0.44,96.98,59.63,-40.65
2026-08-03 13:20:28.952,-0.33,-0.17,0.76,99.18,20.51,-18.68
2026-08-03 13:20:29.015,-0.33,-0.17,0.76,99.18,20.51,-18.68
2026-08-03 13:20:29.015,-0.35,-0.05,1.14,109.56,-4.7,4.39
2026-08-03 13:20:29.071,-0.29,0.09,1.46,106.87,32.23,-26.43
2026-08-03 13:20:29.072,-0.29,0.09,1.46,106.87,32.23,-26.43
2026-08-03 13:20:29.072,-0.21,0.13,1.62,92.65,93.81,-94.73
2026-08-03 13:20:29.138,-0.21,0.13,1.62,92.65,93.81,-94.73
2026-08-03 13:20:29.138,-0.15,0.07,1.64,84.84,124.88,-148.07
2026-08-03 13:20:29.138,-0.15,0.07,1.64,84.84,124.88,-148.07
2026-08-03 13:20:29.264,-0.12,0.05,1.44,79.65,108.4,-169.86
2026-08-03 13:20:29.264,-0.14,0.06,1.07,71.11,53.1,-156.37
2026-08-03 13:20:29.264,-0.14,0.06,1.07,71.11,53.1,-156.37
2026-08-03 13:20:29.265,-0.2,0.06,0.77,62.99,-9.03,-122.74
2026-08-03 13:20:29.265,-0.2,0.06,0.77,62.99,-9.03,-122.74
2026-08-03 13:20:29.311,-0.24,0.1,0.73,47.91,-41.56,-100.46
2026-08-03 13:20:29.312,-0.24,0.1,0.73,47.91,-41.56,-100.46
2026-08-03 13:20:29.375,-0.19,0.18,0.86,23.32,-46.26,-100.4
2026-08-03 13:20:29.375,-0.06,0.23,0.87,12.94,-50.35,-104.68
2026-08-03 13:20:29.376,-0.06,0.23,0.87,12.94,-50.35,-104.68
2026-08-03 13:20:29.439,0.06,0.23,0.73,29.05,-63.29,-95.15
2026-08-03 13:20:29.441,0.06,0.23,0.73,29.05,-63.29,-95.15
2026-08-03 13:20:29.441,0.15,0.21,0.65,49.87,-65.92,-74.46
2026-08-03 13:20:29.492,0.15,0.21,0.65,49.87,-65.92,-74.46
2026-08-03 13:20:29.493,0.18,0.25,0.7,61.04,-45.41,-56.34
2026-08-03 13:20:29.613,0.15,0.37,0.86,67.08,-14.1,-39.73
2026-08-03 13:20:29.613,0.15,0.37,0.86,67.08,-14.1,-39.73
2026-08-03 13:20:29.614,0.08,0.48,1.07,60.0,12.82,-6.41
2026-08-03 13:20:29.614,0.08,0.48,1.07,60.0,12.82,-6.41
2026-08-03 13:20:29.615,-0.01,0.5,1.26,32.59,25.94,51.82
2026-08-03 13:20:29.615,-0.01,0.5,1.26,32.59,25.94,51.82
2026-08-03 13:20:29.671,-0.11,0.4,1.36,8.42,24.72,115.78
2026-08-03 13:20:29.672,-0.11,0.4,1.36,8.42,24.72,115.78
2026-08-03 13:20:29.735,-0.19,0.26,1.36,-1.1,15.81,155.88
2026-08-03 13:20:29.736,-0.24,0.18,1.27,-11.6,6.59,155.4
2026-08-03 13:20:29.736,-0.24,0.18,1.27,-11.6,6.59,155.4
2026-08-03 13:20:29.798,-0.25,0.21,1.1,-25.02,-8.12,122.8
2026-08-03 13:20:29.798,-0.25,0.21,1.1,-25.02,-8.12,122.8
2026-08-03 13:20:29.799,-0.24,0.26,0.99,-35.22,-24.84,80.69
2026-08-03 13:20:29.852,-0.24,0.26,0.99,-35.22,-24.84,80.69
2026-08-03 13:20:29.852,-0.22,0.31,1.07,-47.79,-29.85,35.52
2026-08-03 13:20:29.915,-0.19,0.38,1.14,-54.2,-33.39,-12.21
2026-08-03 13:20:29.915,-0.19,0.38,1.14,-54.2,-33.39,-12.21
2026-08-03 13:20:29.915,-0.16,0.36,0.99,-39.67,-51.51,-41.44
2026-08-03 13:20:29.971,-0.16,0.36,0.99,-39.67,-51.51,-41.44
2026-08-03 13:20:29.971,-0.14,0.28,0.72,-15.81,-69.03,-46.94
2026-08-03 13:20:29.971,-0.14,0.28,0.72,-15.81,-69.03,-46.94
2026-08-03 13:20:30.031,-0.15,0.21,0.56,-6.04,-60.73,-46.51
2026-08-03 13:20:30.032,-0.15,0.21,0.56,-11.84,-32.59,-44.74
2026-08-03 13:20:30.092,-0.15,0.19,0.56,-11.84,-32.59,-44.74
2026-08-03 13:20:30.093,-0.15,0.21,0.63,-13.98,-2.44,-43.03
2026-08-03 13:20:30.093,-0.15,0.21,0.63,-13.98,-2.44,-43.03
2026-08-03 13:20:30.151,-0.15,0.25,0.72,-3.11,19.53,-48.28
2026-08-03 13:20:30.168,-0.15,0.25,0.72,-3.11,19.53,-48.28
2026-08-03 13:20:30.217,-0.16,0.3,0.8,14.47,24.72,-56.15
2026-08-03 13:20:30.217,-0.16,0.3,0.8,14.47,24.72,-56.15
2026-08-03 13:20:30.218,-0.15,0.36,0.94,32.84,22.89,-64.03
2026-08-03 13:20:30.271,-0.11,0.42,1.05,48.22,26.73,-76.84
2026-08-03 13:20:30.272,-0.11,0.42,1.05,48.22,26.73,-76.84
2026-08-03 13:20:30.272,-0.09,0.47,1.12,55.85,34.79,-92.22
2026-08-03 13:20:30.392,-0.09,0.47,1.12,55.85,34.79,-92.22
2026-08-03 13:20:30.451,-0.12,0.47,1.23,43.33,45.53,-108.28
2026-08-03 13:20:30.453,-0.12,0.47,1.23,43.33,45.53,-108.28
2026-08-03 13:20:30.463,-0.16,0.41,1.3,12.45,42.79,-125.0
2026-08-03 13:20:30.463,-0.16,0.41,1.3,-12.27,3.42,-134.03
2026-08-03 13:20:30.464,-0.2,0.31,1.16,-12.27,3.42,-134.03
2026-08-03 13:20:30.464,-0.23,0.2,0.9,-17.82,-56.88,-134.09
2026-08-03 13:20:30.465,-0.23,0.2,0.9,-17.82,-56.88,-134.09
2026-08-03 13:20:30.511,-0.22,0.13,0.69,-13.49,-94.91,-138.67
2026-08-03 13:20:30.512,-0.22,0.13,0.69,-13.49,-94.91,-138.67
2026-08-03 13:20:30.571,-0.13,0.15,0.65,-5.19,-95.7,-153.56
2026-08-03 13:20:30.572,-0.01,0.23,0.7,9.22,-81.05,-170.17
2026-08-03 13:20:30.572,-0.01,0.23,0.7,9.22,-81.05,-170.17
2026-08-03 13:20:30.632,0.07,0.31,0.74,27.4,-72.27,-178.16
2026-08-03 13:20:30.632,0.07,0.31,0.74,27.4,-72.27,-178.16
2026-08-03 13:20:30.692,0.11,0.35,0.76,39.12,-71.11,-170.96
2026-08-03 13:20:30.695,0.11,0.35,0.76,39.12,-71.11,-170.96
2026-08-03 13:20:30.695,0.13,0.35,0.75,41.32,-67.26,-148.44
2026-08-03 13:20:30.752,0.13,0.33,0.78,46.69,-51.57,-117.92
2026-08-03 13:20:30.752,0.13,0.33,0.78,46.69,-51.57,-117.92
2026-08-03 13:20:30.812,0.11,0.38,0.91,54.63,-26.37,-89.17
2026-08-03 13:20:30.812,0.11,0.38,0.91,54.63,-26.37,-89.17
2026-08-03 13:20:30.813,0.07,0.55,1.16,54.57,-9.64,-68.48
2026-08-03 13:20:30.871,0.07,0.55,1.16,54.57,-9.64,-68.48
2026-08-03 13:20:30.872,0.03,0.72,1.4,42.72,-14.47,-46.26
2026-08-03 13:20:30.872,-0.02,0.72,1.49,20.45,-25.82,-6.53
2026-08-03 13:20:30.931,-0.02,0.72,1.49,20.45,-25.82,-6.53
2026-08-03 13:20:30.932,-0.09,0.52,1.33,-14.59,-39.73,41.56
2026-08-03 13:20:30.998,-0.09,0.52,1.33,-14.59,-39.73,41.56
2026-08-03 13:20:30.999,-0.23,0.34,0.98,-40.95,-67.5,68.12
2026-08-03 13:20:30.999,-0.23,0.34,0.98,-40.95,-67.5,68.12
2026-08-03 13:20:31.171,-0.34,0.33,0.71,-37.72,-96.86,68.91
2026-08-03 13:20:31.172,-0.34,0.33,0.71,-33.14,-107.79,82.64
2026-08-03 13:20:31.172,-0.23,0.42,0.64,-33.14,-107.79,82.64
2026-08-03 13:20:31.172,0.03,0.41,0.69,-38.57,-93.44,117.98
2026-08-03 13:20:31.173,0.03,0.41,0.69,-38.57,-93.44,117.98
2026-08-03 13:20:31.173,0.2,0.28,0.75,-39.61,-58.78,123.6
2026-08-03 13:20:31.173,0.2,0.28,0.75,-39.61,-58.78,123.6
2026-08-03 13:20:31.174,0.21,0.11,0.79,-41.93,-18.8,75.2
2026-08-03 13:20:31.231,0.21,0.11,0.79,-51.27,13.24,-10.62
2026-08-03 13:20:31.232,0.12,0.03,0.81,-51.27,13.24,-10.62
2026-08-03 13:20:31.298,-0.06,0.07,0.85,-63.29,41.2,-115.84
2026-08-03 13:20:31.298,-0.06,0.07,0.85,-63.29,41.2,-115.84
2026-08-03 13:20:31.299,-0.25,0.23,0.98,-70.8,73.0,-209.41
2026-08-03 13:20:31.351,-0.25,0.23,0.98,-70.8,73.0,-209.41
2026-08-03 13:20:31.352,-0.32,0.48,1.1,-58.47,91.43,-268.55
2026-08-03 13:20:31.352,-0.32,0.48,1.1,-32.1,79.28,-304.14
2026-08-03 13:20:31.412,-0.24,0.76,1.14,-32.1,79.28,-304.14
2026-08-03 13:20:31.412,-0.11,0.93,1.16,-23.13,52.19,-314.27
2026-08-03 13:20:31.471,-0.11,0.93,1.16,-23.13,52.19,-314.27
2026-08-03 13:20:31.472,0.01,0.9,1.13,-30.15,34.18,-287.35
2026-08-03 13:20:31.472,0.01,0.9,1.13,-30.15,34.18,-287.35
2026-08-03 13:20:31.712,0.08,0.74,1.12,-28.2,32.29,-242.49
2026-08-03 13:20:31.712,0.08,0.74,1.12,-13.55,34.0,-204.9
2026-08-03 13:20:31.713,0.12,0.58,1.14,-13.55,34.0,-204.9
2026-08-03 13:20:31.713,0.17,0.47,1.13,0.79,24.9,-180.24
2026-08-03 13:20:31.714,0.17,0.47,1.13,0.79,24.9,-180.24
2026-08-03 13:20:31.714,0.19,0.36,1.03,8.48,5.62,-154.42
2026-08-03 13:20:31.714,0.19,0.36,1.03,8.48,5.62,-154.42
2026-08-03 13:20:31.714,0.17,0.22,0.88,13.43,-10.38,-115.78
2026-08-03 13:20:31.718,0.17,0.22,0.88,13.43,-10.38,-115.78
2026-08-03 13:20:31.719,0.1,0.04,0.81,15.32,-9.7,-59.2
2026-08-03 13:20:31.719,0.02,-0.17,0.81,13.61,3.05,6.04
2026-08-03 13:20:31.771,0.02,-0.17,0.81,13.61,3.05,6.04
2026-08-03 13:20:31.772,-0.01,-0.29,0.87,14.16,15.2,46.51
2026-08-03 13:20:31.833,-0.01,-0.29,0.87,14.16,15.2,46.51
2026-08-03 13:20:31.833,0.01,-0.27,0.96,10.56,23.44,53.65
2026-08-03 13:20:31.835,0.01,-0.27,0.96,10.56,23.44,53.65
2026-08-03 13:20:31.894,0.0,-0.18,1.0,-2.08,22.22,55.42
2026-08-03 13:20:31.894,0.0,-0.18,1.0,-2.08,22.22,55.42
2026-08-03 13:20:31.895,-0.07,-0.07,0.99,-14.47,10.31,67.44
2026-08-03 13:20:31.967,-0.17,0.03,1.01,-25.51,1.83,86.73
2026-08-03 13:20:31.968,-0.17,0.03,1.01,-25.51,1.83,86.73
2026-08-03 13:20:32.011,-0.24,0.08,1.1,-40.71,5.43,106.51
2026-08-03 13:20:32.071,-0.24,0.08,1.1,-40.71,5.43,106.51
2026-08-03 13:20:32.071,-0.26,0.07,1.12,-55.42,7.57,116.7
2026-08-03 13:20:32.071,-0.26,0.07,1.12,-55.42,7.57,116.7
2026-08-03 13:20:32.072,-0.29,0.06,0.96,-56.7,-9.09,108.89
2026-08-03 13:20:32.072,-0.29,0.06,0.96,-47.36,-30.82,86.67
2026-08-03 13:20:32.133,-0.35,0.08,0.8,-47.36,-30.82,86.67
2026-08-03 13:20:32.133,-0.35,0.14,0.86,-42.79,-28.32,56.58
2026-08-03 13:20:32.311,-0.35,0.14,0.86,-42.79,-28.32,56.58
2026-08-03 13:20:32.312,-0.24,0.23,1.07,-38.33,-5.62,18.55
2026-08-03 13:20:32.313,-0.24,0.23,1.07,-38.33,-5.62,18.55
2026-08-03 13:20:32.313,-0.12,0.29,1.15,-23.8,3.85,-14.53
2026-08-03 13:20:32.314,-0.12,0.29,1.15,-23.8,3.85,-14.53
2026-08-03 13:20:32.314,-0.12,0.28,1.0,-6.77,-15.75,-21.06
2026-08-03 13:20:32.314,-0.22,0.18,0.8,1.34,-40.28,-3.66
2026-08-03 13:20:32.314,-0.22,0.18,0.8,1.34,-40.28,-3.66
2026-08-03 13:20:32.380,-0.3,0.07,0.76,0.92,-39.43,12.45
2026-08-03 13:20:32.432,-0.3,0.07,0.76,0.92,-39.43,12.45
2026-08-03 13:20:32.432,-0.31,0.01,0.86,0.73,-16.66,9.03
2026-08-03 13:20:32.491,-0.31,0.01,0.86,0.73,-16.66,9.03
2026-08-03 13:20:32.492,-0.24,0.01,0.94,8.91,1.95,-12.15
2026-08-03 13:20:32.492,-0.24,0.01,0.94,8.91,1.95,-12.15
2026-08-03 13:20:32.492,-0.16,0.04,0.93,24.48,5.98,-35.22
2026-08-03 13:20:32.493,-0.1,0.08,0.92,33.26,8.3,-44.86
2026-08-03 13:20:32.611,-0.1,0.08,0.92,33.26,8.3,-44.86
2026-08-03 13:20:32.612,-0.05,0.1,0.97,30.15,16.42,-43.27
2026-08-03 13:20:32.612,-0.05,0.1,0.97,30.15,16.42,-43.27
2026-08-03 13:20:32.612,-0.0,0.1,1.08,23.99,23.74,-41.87
2026-08-03 13:20:32.613,-0.0,0.1,1.08,19.71,22.46,-43.82
2026-08-03 13:20:32.731,0.05,0.08,1.14,19.71,22.46,-43.82
2026-08-03 13:20:32.732,0.1,0.05,1.09,20.2,9.28,-48.89
2026-08-03 13:20:32.732,0.1,0.05,1.09,20.2,9.28,-48.89
2026-08-03 13:20:32.733,0.14,0.05,0.99,23.13,-8.54,-55.6
2026-08-03 13:20:32.733,0.14,0.05,0.99,23.13,-8.54,-55.6
2026-08-03 13:20:32.734,0.18,0.06,0.95,21.79,-20.63,-58.59
2026-08-03 13:20:32.791,0.18,0.06,0.95,21.79,-20.63,-58.59
2026-08-03 13:20:32.792,0.23,0.09,0.99,16.85,-24.6,-56.7
2026-08-03 13:20:32.851,0.27,0.13,1.06,14.89,-26.12,-51.64
2026-08-03 13:20:32.853,0.27,0.13,1.06,14.89,-26.12,-51.64
2026-08-03 13:20:32.853,0.25,0.16,1.06,18.62,-29.17,-39.43
2026-08-03 13:20:32.911,0.25,0.16,1.06,18.62,-29.17,-39.43
2026-08-03 13:20:32.912,0.2,0.18,1.01,18.19,-27.83,-14.16
2026-08-03 13:20:32.912,0.2,0.18,1.01,18.19,-27.83,-14.16
2026-08-03 13:20:32.973,0.13,0.19,0.98,6.41,-18.43,18.13
2026-08-03 13:20:32.973,0.13,0.19,0.98,-8.97,-10.01,42.79
2026-08-03 13:20:33.031,0.06,0.2,0.96,-8.97,-10.01,42.79
2026-08-03 13:20:33.031,0.01,0.21,0.95,-20.08,-5.68,52.49
2026-08-03 13:20:33.032,0.01,0.21,0.95,-20.08,-5.68,52.49
2026-08-03 13:20:33.097,-0.01,0.18,0.96,-30.64,0.73,46.02
2026-08-03 13:20:33.102,-0.01,0.18,0.96,-30.64,0.73,46.02
2026-08-03 13:20:33.153,-0.02,0.13,0.99,-40.41,12.45,14.1
2026-08-03 13:20:33.154,-0.02,0.13,0.99,-40.41,12.45,14.1
2026-08-03 13:20:33.154,-0.08,0.13,1.02,-39.18,25.88,-43.76
2026-08-03 13:20:33.211,-0.21,0.15,1.02,-28.32,28.93,-92.9
2026-08-03 13:20:33.212,-0.21,0.15,1.02,-28.32,28.93,-92.9
2026-08-03 13:20:33.212,-0.32,0.14,0.96,-13.79,15.75,-101.5
2026-08-03 13:20:33.279,-0.32,0.14,0.96,-13.79,15.75,-101.5
2026-08-03 13:20:33.279,-0.32,0.14,0.82,8.12,1.34,-76.84
2026-08-03 13:20:33.331,-0.32,0.14,0.82,8.12,1.34,-76.84
2026-08-03 13:20:33.332,-0.2,0.2,0.69,39.31,3.78,-43.09
2026-08-03 13:20:33.332,-0.2,0.2,0.69,58.96,28.38,-16.91
2026-08-03 13:20:33.394,-0.06,0.27,0.74,58.96,28.38,-16.91
2026-08-03 13:20:33.396,0.03,0.29,0.95,38.33,55.54,-6.04
2026-08-03 13:20:33.397,0.03,0.29,0.95,38.33,55.54,-6.04
2026-08-03 13:20:33.451,0.07,0.25,1.17,-3.91,60.36,-6.16
2026-08-03 13:20:33.452,0.07,0.25,1.17,-3.91,60.36,-6.16
2026-08-03 13:20:33.514,0.06,0.19,1.26,-16.66,44.37,-9.83
2026-08-03 13:20:33.514,0.06,0.19,1.26,-16.66,44.37,-9.83
2026-08-03 13:20:33.514,0.02,0.17,1.13,16.3,36.38,-11.47
2026-08-03 13:20:33.572,-0.04,0.22,0.92,57.31,42.36,-7.08
2026-08-03 13:20:33.577,-0.04,0.22,0.92,57.31,42.36,-7.08
2026-08-03 13:20:33.577,-0.1,0.31,0.89,55.11,36.44,-4.27
2026-08-03 13:20:33.696,-0.1,0.31,0.89,55.11,36.44,-4.27
2026-08-03 13:20:33.697,-0.15,0.38,1.03,13.37,19.84,-7.63
2026-08-03 13:20:33.697,-0.15,0.38,1.03,13.37,19.84,-7.63
2026-08-03 13:20:33.698,-0.24,0.39,1.14,-15.56,5.98,-11.29
2026-08-03 13:20:33.701,-0.24,0.39,1.14,-15.56,5.98,-11.29
2026-08-03 13:20:33.753,-0.34,0.35,1.17,-0.79,0.37,-16.24
2026-08-03 13:20:33.757,-0.36,0.33,1.19,29.66,8.85,-25.09
2026-08-03 13:20:33.757,-0.36,0.33,1.19,29.66,8.85,-25.09
2026-08-03 13:20:33.811,-0.38,0.22,1.2,23.93,18.07,-21.42
2026-08-03 13:20:33.812,-0.38,0.22,1.2,23.93,18.07,-21.42
2026-08-03 13:20:33.876,-0.41,0.01,1.08,0.85,10.38,1.83
2026-08-03 13:20:33.877,-0.41,0.01,1.08,0.85,10.38,1.83
2026-08-03 13:20:33.877,-0.39,-0.14,0.85,11.54,-2.32,30.09
2026-08-03 13:20:33.931,-0.39,-0.14,0.85,11.54,-2.32,30.09
2026-08-03 13:20:33.932,-0.32,-0.22,0.69,32.17,0.92,59.33
2026-08-03 13:20:33.932,-0.23,-0.3,0.69,19.1,18.98,85.45
2026-08-03 13:20:34.001,-0.23,-0.3,0.69,19.1,18.98,85.45
2026-08-03 13:20:34.001,-0.15,-0.3,0.77,-21.42,38.21,91.25
2026-08-03 13:20:34.053,-0.15,-0.3,0.77,-21.42,38.21,91.25
2026-08-03 13:20:34.053,-0.1,-0.15,0.92,-60.36,50.78,64.03
2026-08-03 13:20:34.053,-0.1,-0.15,0.92,-60.36,50.78,64.03
2026-08-03 13:20:34.176,-0.08,0.14,1.15,-79.41,53.34,20.14
2026-08-03 13:20:34.231,-0.08,0.14,1.15,-76.05,40.71,-4.88
2026-08-03 13:20:34.233,-0.06,0.38,1.28,-76.05,40.71,-4.88
2026-08-03 13:20:34.233,-0.09,0.47,1.16,-61.16,5.98,4.03
2026-08-03 13:20:34.298,-0.09,0.47,1.16,-61.16,5.98,4.03
2026-08-03 13:20:34.299,-0.09,0.41,0.96,-60.24,-44.01,36.32
2026-08-03 13:20:34.299,-0.09,0.41,0.96,-60.24,-44.01,36.32
2026-08-03 13:20:34.300,-0.04,0.28,0.83,-74.77,-77.03,68.18
2026-08-03 13:20:34.300,-0.04,0.28,0.83,-74.77,-77.03,68.18
2026-08-03 13:20:34.301,-0.02,0.21,0.77,-73.85,-79.65,75.32
2026-08-03 13:20:34.301,0.0,0.25,0.78,-47.61,-73.67,63.11
2026-08-03 13:20:34.354,0.0,0.25,0.78,-47.61,-73.67,63.11
2026-08-03 13:20:34.354,-0.02,0.36,0.86,-12.51,-67.38,53.28
2026-08-03 13:20:34.414,-0.02,0.36,0.86,-12.51,-67.38,53.28
2026-08-03 13:20:34.415,-0.13,0.44,1.0,10.44,-47.36,54.87
2026-08-03 13:20:34.415,-0.13,0.44,1.0,10.44,-47.36,54.87
2026-08-03 13:20:34.474,-0.22,0.5,1.18,19.84,-17.4,65.25
2026-08-03 13:20:34.475,-0.22,0.5,1.18,31.86,-2.56,80.51
2026-08-03 13:20:34.475,-0.24,0.55,1.29,31.86,-2.56,80.51
2026-08-03 13:20:34.531,-0.32,0.53,1.23,41.2,-9.4,105.22
2026-08-03 13:20:34.532,-0.32,0.53,1.23,41.2,-9.4,105.22
2026-08-03 13:20:34.653,-0.46,0.38,1.19,21.85,-16.05,134.58
2026-08-03 13:20:34.653,-0.46,0.38,1.19,21.85,-16.05,134.58
2026-08-03 13:20:34.653,-0.59,0.21,1.2,-15.99,-13.0,146.12
2026-08-03 13:20:34.654,-0.61,0.12,1.09,-34.24,-9.64,132.51
2026-08-03 13:20:34.654,-0.61,0.12,1.09,-34.24,-9.64,132.51
2026-08-03 13:20:34.724,-0.56,0.02,0.86,-30.03,-10.13,110.96
2026-08-03 13:20:34.725,-0.56,0.02,0.86,-30.03,-10.13,110.96
2026-08-03 13:20:34.725,-0.51,-0.12,0.59,-27.95,-11.17,87.04
2026-08-03 13:20:34.774,-0.51,-0.12,0.59,-27.95,-11.17,87.04
2026-08-03 13:20:34.774,-0.46,-0.26,0.4,-34.24,-1.71,56.34
2026-08-03 13:20:34.775,-0.46,-0.26,0.4,-33.45,23.68,27.53
2026-08-03 13:20:34.893,-0.37,-0.33,0.38,-33.45,23.68,27.53
2026-08-03 13:20:34.893,-0.29,-0.31,0.5,-23.07,53.65,-0.12
2026-08-03 13:20:34.893,-0.29,-0.31,0.5,-23.07,53.65,-0.12
2026-08-03 13:20:34.901,-0.28,-0.2,0.74,-17.7,75.93,-35.03
2026-08-03 13:20:34.902,-0.28,-0.2,0.74,-17.7,75.93,-35.03
2026-08-03 13:20:34.952,-0.33,-0.1,1.05,-25.45,88.87,-67.75
2026-08-03 13:20:34.952,-0.33,-0.1,1.05,-25.45,88.87,-67.75
2026-08-03 13:20:35.022,-0.39,-0.02,1.33,-25.94,97.29,-87.71
2026-08-03 13:20:35.022,-0.44,0.07,1.51,2.5,100.16,-99.61
2026-08-03 13:20:35.025,-0.44,0.07,1.51,2.5,100.16,-99.61
2026-08-03 13:20:35.072,-0.44,0.16,1.58,34.12,84.35,-109.8
2026-08-03 13:20:35.072,-0.44,0.16,1.58,34.12,84.35,-109.8
2026-08-03 13:20:35.073,-0.35,0.2,1.39,59.81,40.77,-118.71
2026-08-03 13:20:35.131,-0.35,0.2,1.39,59.81,40.77,-118.71
2026-08-03 13:20:35.131,-0.22,0.21,0.99,97.35,-13.73,-121.89
2026-08-03 13:20:35.193,-0.12,0.24,0.67,110.96,-41.99,-111.94
2026-08-03 13:20:35.193,-0.12,0.24,0.67,110.96,-41.99,-111.94
2026-08-03 13:20:35.194,-0.08,0.31,0.68,67.14,-37.96,-86.24
2026-08-03 13:20:35.254,-0.08,0.31,0.68,67.14,-37.96,-86.24
2026-08-03 13:20:35.254,-0.05,0.35,0.9,6.04,-26.18,-46.69
2026-08-03 13:20:35.255,-0.05,0.35,0.9,6.04,-26.18,-46.69
2026-08-03 13:20:35.318,-0.0,0.32,0.96,-25.94,-18.68,6.16
2026-08-03 13:20:35.318,0.03,0.25,0.82,-32.04,-14.04,62.56
2026-08-03 13:20:35.372,0.03,0.25,0.82,-32.04,-14.04,62.56
2026-08-03 13:20:35.372,0.02,0.18,0.72,-35.89,-5.98,108.09
2026-08-03 13:20:35.373,0.02,0.18,0.72,-35.89,-5.98,108.09
2026-08-03 13:20:35.431,-0.06,0.16,0.83,-49.01,8.79,139.89
2026-08-03 13:20:35.432,-0.06,0.16,0.83,-49.01,8.79,139.89
2026-08-03 13:20:35.505,-0.19,0.2,1.07,-71.84,18.19,162.54
2026-08-03 13:20:35.505,-0.29,0.27,1.2,-96.37,7.39,180.18
2026-08-03 13:20:35.505,-0.29,0.27,1.2,-96.37,7.39,180.18
2026-08-03 13:20:35.554,-0.3,0.3,1.12,-107.12,-19.53,194.64
2026-08-03 13:20:35.554,-0.3,0.3,1.12,-107.12,-19.53,194.64
2026-08-03 13:20:35.555,-0.22,0.3,0.93,-94.67,-45.17,205.87
2026-08-03 13:20:35.625,-0.22,0.3,0.93,-94.67,-45.17,205.87
2026-08-03 13:20:35.625,-0.13,0.3,0.8,-59.57,-56.21,212.28
2026-08-03 13:20:35.736,-0.13,0.3,0.8,-59.57,-56.21,212.28
2026-08-03 13:20:35.736,-0.13,0.3,0.8,-59.57,-56.21,212.28
2026-08-03 13:20:35.737,-0.13,0.3,0.8,-59.57,-56.21,212.28
2026-08-03 13:20:35.737,-0.09,0.47,1.08,19.04,-24.11,202.21
2026-08-03 13:20:35.795,-0.21,0.69,1.42,1.22,-2.44,200.2
2026-08-03 13:20:35.795,-0.21,0.69,1.42,1.22,-2.44,200.2
2026-08-03 13:20:35.796,-0.37,0.73,1.49,-41.14,-10.07,213.75
2026-08-03 13:20:35.796,-0.37,0.73,1.49,-41.14,-10.07,213.75
2026-08-03 13:20:35.796,-0.52,0.6,1.3,-50.29,-39.98,226.62
2026-08-03 13:20:35.925,-0.52,0.6,1.3,-50.29,-39.98,226.62
2026-08-03 13:20:35.928,-0.6,0.41,1.17,-51.76,-60.06,225.89
2026-08-03 13:20:35.928,-0.61,0.19,1.17,-75.38,-62.07,210.08
2026-08-03 13:20:35.928,-0.61,0.19,1.17,-75.38,-62.07,210.08
2026-08-03 13:20:35.929,-0.57,0.02,1.06,-86.79,-64.88,173.58
2026-08-03 13:20:35.972,-0.57,0.02,1.06,-86.79,-64.88,173.58
2026-08-03 13:20:35.972,-0.48,-0.05,0.77,-60.18,-82.89,121.77
2026-08-03 13:20:35.972,-0.48,-0.05,0.77,-60.18,-82.89,121.77
2026-08-03 13:20:36.031,-0.37,-0.08,0.49,-19.71,-99.67,74.4
2026-08-03 13:20:36.032,-0.27,-0.11,0.37,-0.18,-94.36,39.31
2026-08-03 13:20:36.097,-0.27,-0.11,0.37,-0.18,-94.36,39.31
2026-08-03 13:20:36.097,-0.25,-0.14,0.41,-6.29,-70.25,8.54
2026-08-03 13:20:36.097,-0.25,-0.14,0.41,-6.29,-70.25,8.54
2026-08-03 13:20:36.151,-0.27,-0.16,0.58,-22.22,-35.22,-24.41
2026-08-03 13:20:36.152,-0.27,-0.16,0.58,-22.22,-35.22,-24.41
2026-08-03 13:20:36.394,-0.28,-0.16,0.79,-29.05,3.85,-56.82
2026-08-03 13:20:36.396,-0.28,-0.16,0.79,-29.05,3.85,-56.82
2026-08-03 13:20:36.396,-0.24,-0.13,0.89,-6.84,30.94,-86.79
2026-08-03 13:20:36.396,-0.17,-0.05,0.95,40.59,46.02,-114.56
2026-08-03 13:20:36.397,-0.17,-0.05,0.95,40.59,46.02,-114.56
2026-08-03 13:20:36.397,-0.12,0.04,1.18,78.98,69.21,-124.21
2026-08-03 13:20:36.397,-0.12,0.04,1.18,78.98,69.21,-124.21
2026-08-03 13:20:36.397,-0.05,0.09,1.46,87.16,92.22,-106.14
2026-08-03 13:20:36.397,-0.05,0.09,1.46,87.16,92.22,-106.14
2026-08-03 13:20:36.398,0.0,0.11,1.47,80.75,81.36,-80.75
2026-08-03 13:20:36.399,0.0,0.11,1.47,69.7,42.36,-61.04
2026-08-03 13:20:36.452,0.0,0.08,1.3,69.7,42.36,-61.04
2026-08-03 13:20:36.453,-0.03,0.04,1.18,58.65,5.62,-46.14
2026-08-03 13:20:36.511,-0.03,0.04,1.18,58.65,5.62,-46.14
2026-08-03 13:20:36.572,-0.01,0.1,1.03,80.44,-14.1,-40.1
2026-08-03 13:20:36.572,-0.01,0.1,1.03,80.44,-14.1,-40.1
2026-08-03 13:20:36.572,0.04,0.22,0.84,112.61,-24.54,-47.85
2026-08-03 13:20:36.572,0.07,0.33,0.73,102.6,-38.76,-60.61
2026-08-03 13:20:36.573,0.07,0.33,0.73,102.6,-38.76,-60.61
2026-08-03 13:20:36.692,0.12,0.42,0.71,73.0,-51.09,-57.98
2026-08-03 13:20:36.692,0.12,0.42,0.71,73.0,-51.09,-57.98
2026-08-03 13:20:36.694,0.19,0.47,0.75,52.43,-58.04,-39.92
2026-08-03 13:20:36.694,0.19,0.47,0.75,52.43,-58.04,-39.92
2026-08-03 13:20:36.835,0.22,0.55,0.84,30.03,-63.9,-27.89
2026-08-03 13:20:36.836,0.24,0.62,0.93,-2.81,-73.97,-20.81
2026-08-03 13:20:36.836,0.24,0.62,0.93,-2.81,-73.97,-20.81
2026-08-03 13:20:36.836,0.27,0.56,0.97,-34.3,-83.44,-17.7
2026-08-03 13:20:36.931,0.27,0.56,0.97,-34.3,-83.44,-17.7
2026-08-03 13:20:36.931,0.25,0.4,0.98,-61.58,-80.99,-42.97
2026-08-03 13:20:36.932,0.25,0.4,0.98,-61.58,-80.99,-42.97
2026-08-03 13:20:36.932,0.18,0.27,1.03,-77.58,-66.16,-94.79
2026-08-03 13:20:36.932,0.18,0.27,1.03,-72.33,-54.81,-132.93
2026-08-03 13:20:36.933,0.06,0.27,1.19,-72.33,-54.81,-132.93
2026-08-03 13:20:36.934,-0.1,0.3,1.24,-65.49,-68.12,-119.51
2026-08-03 13:20:36.934,-0.1,0.3,1.24,-65.49,-68.12,-119.51
2026-08-03 13:20:36.992,-0.21,0.16,1.05,-71.23,-101.26,-60.3
2026-08-03 13:20:37.007,-0.21,0.16,1.05,-71.23,-101.26,-60.3
2026-08-03 13:20:37.051,-0.22,-0.07,0.86,-71.84,-121.03,-9.83
2026-08-03 13:20:37.052,-0.22,-0.07,0.86,-68.3,-103.88,-17.64
2026-08-03 13:20:37.053,-0.15,-0.16,0.85,-68.3,-103.88,-17.64
2026-08-03 13:20:37.111,-0.06,-0.08,0.93,-84.11,-54.02,-67.69
2026-08-03 13:20:37.111,-0.06,-0.08,0.93,-84.11,-54.02,-67.69
2026-08-03 13:20:37.173,-0.01,0.01,1.01,-99.98,3.42,-112.12
2026-08-03 13:20:37.173,-0.01,0.01,1.01,-99.98,3.42,-112.12
2026-08-03 13:20:37.175,0.01,-0.0,1.06,-92.1,42.05,-132.02
2026-08-03 13:20:37.231,0.01,-0.0,1.06,-92.1,42.05,-132.02
2026-08-03 13:20:37.232,-0.02,-0.06,1.01,-57.43,53.83,-139.28
2026-08-03 13:20:37.301,-0.09,-0.07,0.88,-6.84,47.3,-154.97
2026-08-03 13:20:37.301,-0.09,-0.07,0.88,-6.84,47.3,-154.97
2026-08-03 13:20:37.301,-0.19,-0.05,0.87,9.09,31.92,-186.28
2026-08-03 13:20:37.411,-0.19,-0.05,0.87,9.09,31.92,-186.28
2026-08-03 13:20:37.411,-0.29,-0.01,1.03,-37.84,21.12,-220.34
2026-08-03 13:20:37.421,-0.29,-0.01,1.03,-37.84,21.12,-220.34
2026-08-03 13:20:37.471,-0.38,0.06,1.2,-92.96,30.4,-247.01
2026-08-03 13:20:37.472,-0.41,0.15,1.19,-93.38,49.19,-266.42
2026-08-03 13:20:37.472,-0.41,0.15,1.19,-93.38,49.19,-266.42
2026-08-03 13:20:37.473,-0.35,0.22,1.01,-40.65,56.64,-273.86
2026-08-03 13:20:37.474,-0.35,0.22,1.01,-40.65,56.64,-273.86
2026-08-03 13:20:37.532,-0.24,0.29,0.88,21.91,52.06,-269.78
2026-08-03 13:20:37.532,-0.24,0.29,0.88,21.91,52.06,-269.78
2026-08-03 13:20:37.532,-0.15,0.4,0.89,49.07,43.52,-255.98
2026-08-03 13:20:37.600,-0.08,0.47,1.01,31.62,32.84,-223.51
2026-08-03 13:20:37.605,-0.08,0.47,1.01,31.62,32.84,-223.51
2026-08-03 13:20:37.652,-0.03,0.45,1.13,7.2,17.94,-174.44
2026-08-03 13:20:37.653,-0.03,0.45,1.13,7.2,17.94,-174.44
2026-08-03 13:20:37.653,0.03,0.36,1.07,6.77,-4.09,-127.2
2026-08-03 13:20:37.711,0.03,0.36,1.07,6.77,-4.09,-127.2
2026-08-03 13:20:37.712,0.11,0.2,0.85,21.97,-26.92,-94.18
2026-08-03 13:20:37.712,0.11,0.2,0.85,39.73,-35.77,-83.31
2026-08-03 13:20:37.771,0.19,0.1,0.65,39.73,-35.77,-83.31
2026-08-03 13:20:37.772,0.22,0.17,0.61,50.72,-26.0,-93.14
2026-08-03 13:20:37.832,0.22,0.17,0.61,50.72,-26.0,-93.14
2026-08-03 13:20:37.833,0.21,0.3,0.77,40.59,-6.84,-102.54
2026-08-03 13:20:37.834,0.21,0.3,0.77,40.59,-6.84,-102.54
2026-08-03 13:20:37.893,0.19,0.35,1.13,13.0,16.48,-98.94
2026-08-03 13:20:37.897,0.19,0.35,1.13,13.0,16.48,-98.94
2026-08-03 13:20:38.013,0.17,0.3,1.41,-5.0,32.65,-77.7
2026-08-03 13:20:38.013,0.21,0.17,1.41,-3.6,25.21,-30.58
2026-08-03 13:20:38.013,0.21,0.17,1.41,-3.6,25.21,-30.58
2026-08-03 13:20:38.014,0.24,0.13,1.27,-1.89,2.14,16.97
2026-08-03 13:20:38.014,0.24,0.13,1.27,-1.89,2.14,16.97
2026-08-03 13:20:38.014,0.15,0.27,1.18,-11.47,-15.81,36.99
2026-08-03 13:20:38.071,0.15,0.27,1.18,-11.47,-15.81,36.99
2026-08-03 13:20:38.072,0.03,0.43,1.14,-26.73,-25.76,42.72
2026-08-03 13:20:38.072,0.03,0.43,1.14,-26.73,-25.76,42.72
2026-08-03 13:20:38.192,-0.03,0.45,1.08,-36.87,-38.21,57.98
2026-08-03 13:20:38.192,-0.02,0.34,1.03,-35.46,-57.07,85.08
2026-08-03 13:20:38.192,-0.02,0.34,1.03,-35.46,-57.07,85.08
2026-08-03 13:20:38.192,0.02,0.23,0.95,-23.01,-80.26,106.02
2026-08-03 13:20:38.193,0.02,0.23,0.95,-23.01,-80.26,106.02
2026-08-03 13:20:38.252,0.07,0.16,0.81,-0.55,-98.39,109.07
2026-08-03 13:20:38.252,0.07,0.16,0.81,-0.55,-98.39,109.07
2026-08-03 13:20:38.329,0.13,0.13,0.72,22.52,-94.06,96.25
2026-08-03 13:20:38.329,0.13,0.13,0.72,29.3,-65.86,74.16
2026-08-03 13:20:38.329,0.18,0.14,0.72,29.3,-65.86,74.16
2026-08-03 13:20:38.431,0.2,0.17,0.8,19.96,-27.77,48.1
2026-08-03 13:20:38.432,0.2,0.17,0.8,19.96,-27.77,48.1
2026-08-03 13:20:38.432,0.17,0.21,0.91,6.53,7.81,22.09
2026-08-03 13:20:38.432,0.17,0.21,0.91,6.53,7.81,22.09
2026-08-03 13:20:38.433,0.11,0.22,0.97,-1.28,26.67,6.16
2026-08-03 13:20:38.433,0.11,0.22,0.97,-1.28,26.67,6.16
2026-08-03 13:20:38.494,0.02,0.18,0.95,8.18,29.05,3.72
2026-08-03 13:20:38.495,-0.06,0.11,0.85,36.25,34.06,7.39
2026-08-03 13:20:38.552,-0.06,0.11,0.85,36.25,34.06,7.39
2026-08-03 13:20:38.552,-0.1,0.08,0.79,57.43,47.42,4.76
2026-08-03 13:20:38.553,-0.1,0.08,0.79,57.43,47.42,4.76
2026-08-03 13:20:38.615,-0.11,0.15,0.88,55.79,63.84,-17.33
2026-08-03 13:20:38.616,-0.11,0.15,0.88,55.79,63.84,-17.33
2026-08-03 13:20:38.732,-0.12,0.31,1.14,44.07,84.53,-53.04
2026-08-03 13:20:38.732,-0.08,0.48,1.37,32.47,95.95,-82.15
2026-08-03 13:20:38.732,-0.08,0.48,1.37,32.47,95.95,-82.15
2026-08-03 13:20:38.733,-0.05,0.5,1.32,22.77,72.69,-85.45
2026-08-03 13:20:38.733,-0.05,0.5,1.32,22.77,72.69,-85.45
2026-08-03 13:20:38.733,-0.05,0.34,1.06,15.32,20.08,-56.88
2026-08-03 13:20:38.855,-0.05,0.34,1.06,15.32,20.08,-56.88
2026-08-03 13:20:38.855,-0.07,0.1,0.82,9.95,-27.4,-20.26
2026-08-03 13:20:38.856,-0.07,-0.04,0.76,4.09,-44.68,-13.43
2026-08-03 13:20:38.856,-0.07,-0.04,0.76,4.09,-44.68,-13.43
2026-08-03 13:20:38.857,-0.03,0.03,0.82,-2.69,-38.76,-47.55
2026-08-03 13:20:38.977,-0.03,0.03,0.82,-2.69,-38.76,-47.55
2026-08-03 13:20:38.977,0.02,0.21,0.82,0.18,-36.99,-90.09
2026-08-03 13:20:38.978,0.02,0.21,0.82,0.18,-36.99,-90.09
2026-08-03 13:20:39.031,0.06,0.33,0.72,11.6,-46.33,-98.02
2026-08-03 13:20:39.032,0.06,0.33,0.72,11.6,-46.33,-98.02
2026-08-03 13:20:39.032,0.14,0.36,0.73,2.81,-46.75,-72.69
2026-08-03 13:20:39.033,0.2,0.39,0.85,-16.36,-30.09,-57.56
2026-08-03 13:20:39.033,0.2,0.39,0.85,-16.36,-30.09,-57.56
2026-08-03 13:20:39.152,0.23,0.48,0.92,-12.7,-11.72,-59.08
2026-08-03 13:20:39.153,0.23,0.48,0.92,-12.7,-11.72,-59.08
2026-08-03 13:20:39.153,0.25,0.54,0.93,1.89,-0.43,-43.27
2026-08-03 13:20:39.154,0.25,0.54,0.93,1.89,-0.43,-43.27
2026-08-03 13:20:39.155,0.24,0.54,1.01,2.32,10.68,-7.57
2026-08-03 13:20:39.272,0.24,0.54,1.01,2.32,10.68,-7.57
2026-08-03 13:20:39.273,0.2,0.53,1.18,-16.36,23.99,26.67
2026-08-03 13:20:39.273,0.17,0.5,1.33,-38.45,26.73,46.75
2026-08-03 13:20:39.276,0.17,0.5,1.33,-38.45,26.73,46.75
2026-08-03 13:20:39.276,0.15,0.46,1.33,-42.91,11.96,55.36
2026-08-03 13:20:39.276,0.15,0.46,1.33,-42.91,11.96,55.36
2026-08-03 13:20:39.332,0.07,0.44,1.16,-30.94,-5.8,72.69
2026-08-03 13:20:39.391,0.07,0.44,1.16,-30.94,-5.8,72.69
2026-08-03 13:20:39.391,-0.04,0.37,1.05,-34.73,-15.5,107.42
2026-08-03 13:20:39.391,-0.04,0.37,1.05,-67.69,-20.94,138.73
2026-08-03 13:20:39.393,-0.12,0.25,1.15,-67.69,-20.94,138.73
2026-08-03 13:20:39.512,-0.15,0.15,1.25,-99.85,-31.98,144.71
2026-08-03 13:20:39.512,-0.15,0.15,1.25,-99.85,-31.98,144.71
2026-08-03 13:20:39.513,-0.15,0.1,1.14,-87.16,-52.67,124.69
2026-08-03 13:20:39.515,-0.15,0.1,1.14,-87.16,-52.67,124.69
2026-08-03 13:20:39.515,-0.14,0.08,0.84,-17.09,-76.05,89.54
2026-08-03 13:20:39.572,-0.14,0.08,0.84,-17.09,-76.05,89.54
2026-08-03 13:20:39.572,-0.15,0.09,0.53,58.41,-85.39,58.11
2026-08-03 13:20:39.633,-0.14,0.08,0.38,79.35,-65.25,46.94
2026-08-03 13:20:39.634,-0.14,0.08,0.38,79.35,-65.25,46.94
2026-08-03 13:20:39.634,-0.11,0.03,0.4,57.74,-23.44,42.97
2026-08-03 13:20:39.692,-0.11,0.03,0.4,57.74,-23.44,42.97
2026-08-03 13:20:39.693,-0.1,0.02,0.52,49.07,18.8,13.12
2026-08-03 13:20:39.693,-0.1,0.02,0.52,49.07,18.8,13.12
2026-08-03 13:20:39.759,-0.13,0.14,0.73,62.44,57.68,-34.73
2026-08-03 13:20:39.759,-0.16,0.33,0.95,72.39,92.47,-65.06
2026-08-03 13:20:39.759,-0.16,0.33,0.95,72.39,92.47,-65.06
2026-08-03 13:20:39.811,-0.19,0.5,1.14,78.61,109.99,-75.56
2026-08-03 13:20:39.812,-0.19,0.5,1.14,78.61,109.99,-75.56
2026-08-03 13:20:39.871,-0.21,0.6,1.33,70.74,107.97,-80.69
2026-08-03 13:20:39.872,-0.21,0.6,1.33,70.74,107.97,-80.69
2026-08-03 13:20:39.872,-0.19,0.6,1.42,38.82,87.52,-81.3
2026-08-03 13:20:39.934,-0.12,0.44,1.26,5.92,45.17,-65.43
2026-08-03 13:20:39.934,-0.12,0.44,1.26,5.92,45.17,-65.43
2026-08-03 13:20:39.992,-0.08,0.17,0.97,-33.08,-5.86,-29.3
2026-08-03 13:20:39.992,-0.08,0.17,0.97,-33.08,-5.86,-29.3
2026-08-03 13:20:39.992,-0.11,-0.1,0.83,-86.12,-31.62,5.74
2026-08-03 13:20:40.057,-0.11,-0.1,0.83,-86.12,-31.62,5.74
2026-08-03 13:20:40.057,-0.18,-0.23,0.94,-111.33,-9.58,8.0
2026-08-03 13:20:40.057,-0.18,-0.23,0.94,-111.33,-9.58,8.0
2026-08-03 13:20:40.112,-0.24,-0.17,1.09,-84.47,27.1,-25.02
2026-08-03 13:20:40.112,-0.22,-0.03,1.0,-15.93,18.01,-54.44
2026-08-03 13:20:40.112,-0.22,-0.03,1.0,-15.93,18.01,-54.44
2026-08-03 13:20:40.184,-0.1,0.08,0.75,60.36,-28.81,-57.25
2026-08-03 13:20:40.184,-0.1,0.08,0.75,60.36,-28.81,-57.25
2026-08-03 13:20:40.232,0.01,0.13,0.62,84.72,-56.64,-59.2
2026-08-03 13:20:40.234,0.01,0.13,0.62,84.72,-56.64,-59.2
2026-08-03 13:20:40.235,0.06,0.21,0.68,50.84,-48.22,-78.98
2026-08-03 13:20:40.292,0.1,0.33,0.81,18.49,-23.19,-102.23
2026-08-03 13:20:40.293,0.1,0.33,0.81,18.49,-23.19,-102.23
2026-08-03 13:20:40.360,0.16,0.45,0.91,17.15,0.0,-109.5
2026-08-03 13:20:40.361,0.16,0.45,0.91,17.15,0.0,-109.5
2026-08-03 13:20:40.361,0.25,0.56,0.93,34.97,12.94,-89.97
2026-08-03 13:20:40.411,0.25,0.56,0.93,34.97,12.94,-89.97
2026-08-03 13:20:40.413,0.31,0.69,0.94,50.9,22.16,-47.18
2026-08-03 13:20:40.414,0.31,0.69,0.94,38.94,41.44,2.2
2026-08-03 13:20:40.485,0.24,0.88,1.1,38.94,41.44,2.2
2026-08-03 13:20:40.486,-0.05,1.09,1.38,-3.85,65.12,50.42
2026-08-03 13:20:40.532,-0.05,1.09,1.38,-3.85,65.12,50.42
2026-08-03 13:20:40.533,-0.39,1.12,1.42,-44.74,67.26,106.99
2026-08-03 13:20:40.533,-0.39,1.12,1.42,-44.74,67.26,106.99
2026-08-03 13:20:40.592,-0.59,0.9,1.05,-47.49,37.96,172.55
2026-08-03 13:20:40.592,-0.67,0.64,0.73,-35.95,14.1,223.33
2026-08-03 13:20:40.652,-0.67,0.64,0.73,-35.95,14.1,223.33
2026-08-03 13:20:40.653,-0.65,0.41,0.73,-59.08,18.92,237.85
2026-08-03 13:20:40.654,-0.65,0.41,0.73,-59.08,18.92,237.85
2026-08-03 13:20:40.712,-0.53,0.27,0.78,-88.75,14.47,210.08
2026-08-03 13:20:40.712,-0.53,0.27,0.78,-88.75,14.47,210.08
2026-08-03 13:20:40.712,-0.41,0.25,0.75,-80.93,-21.67,154.85
2026-08-03 13:20:40.780,-0.34,0.28,0.75,-50.05,-75.93,100.65
2026-08-03 13:20:40.781,-0.34,0.28,0.75,-50.05,-75.93,100.65
2026-08-03 13:20:40.834,-0.29,0.28,0.8,-20.75,-116.58,65.25
2026-08-03 13:20:40.834,-0.29,0.28,0.8,-20.75,-116.58,65.25
2026-08-03 13:20:40.834,-0.24,0.24,0.82,-5.62,-99.18,52.25
2026-08-03 13:20:40.893,-0.24,0.24,0.82,-5.62,-99.18,52.25
2026-08-03 13:20:40.894,-0.24,0.24,0.82,-5.62,-99.18,52.25
2026-08-03 13:20:40.894,-0.24,0.24,0.82,-5.62,-99.18,52.25
2026-08-03 13:20:40.952,-0.11,0.09,0.66,9.03,3.11,15.01
2026-08-03 13:20:40.952,-0.11,0.09,0.66,18.43,28.5,-16.48
2026-08-03 13:20:41.072,-0.03,0.1,0.63,18.43,28.5,-16.48
2026-08-03 13:20:41.072,0.06,0.13,0.72,15.2,47.61,-35.58
2026-08-03 13:20:41.074,0.06,0.13,0.72,15.2,47.61,-35.58
2026-08-03 13:20:41.074,0.16,0.19,0.93,6.41,64.94,-45.23
2026-08-03 13:20:41.074,0.16,0.19,0.93,6.41,64.94,-45.23
2026-08-03 13:20:41.084,0.24,0.28,1.23,2.08,80.81,-53.83
2026-08-03 13:20:41.133,0.24,0.28,1.23,2.08,80.81,-53.83
2026-08-03 13:20:41.201,0.24,0.38,1.55,2.81,95.7,-60.42
2026-08-03 13:20:41.251,0.13,0.4,1.66,14.1,101.75,-61.58
2026-08-03 13:20:41.252,0.13,0.4,1.66,14.1,101.75,-61.58
2026-08-03 13:20:41.252,-0.03,0.42,1.62,19.71,95.89,-56.52
2026-08-03 13:20:41.252,-0.03,0.42,1.62,19.71,95.89,-56.52
2026-08-03 13:20:41.253,-0.19,0.51,1.46,4.94,77.03,-42.3
2026-08-03 13:20:41.253,-0.19,0.51,1.46,4.94,77.03,-42.3
2026-08-03 13:20:41.312,-0.36,0.52,1.08,-8.36,39.79,-8.85
2026-08-03 13:20:41.312,-0.36,0.52,1.08,-8.36,39.79,-8.85
2026-08-03 13:20:41.433,-0.52,0.36,0.63,-2.14,-1.46,40.71
2026-08-03 13:20:41.433,-0.58,0.15,0.46,2.75,-16.24,83.31
2026-08-03 13:20:41.434,-0.58,0.15,0.46,2.75,-16.24,83.31
2026-08-03 13:20:41.434,-0.49,0.08,0.65,-18.92,3.17,92.53
2026-08-03 13:20:41.434,-0.49,0.08,0.65,-18.92,3.17,92.53
2026-08-03 13:20:41.434,-0.31,0.22,0.89,-43.88,27.65,61.34
2026-08-03 13:20:41.500,-0.31,0.22,0.89,-43.88,27.65,61.34
2026-08-03 13:20:41.500,-0.14,0.42,0.95,-34.97,33.39,21.85
2026-08-03 13:20:41.552,-0.14,0.42,0.95,-10.68,30.64,13.24
2026-08-03 13:20:41.552,-0.05,0.46,0.85,-10.68,30.64,13.24
2026-08-03 13:20:41.553,-0.04,0.35,0.68,-2.44,34.3,34.61
2026-08-03 13:20:41.622,-0.04,0.35,0.68,-2.44,34.3,34.61
2026-08-03 13:20:41.622,-0.09,0.23,0.54,-7.14,42.24,68.54
2026-08-03 13:20:41.622,-0.09,0.23,0.54,-7.14,42.24,68.54
2026-08-03 13:20:41.734,-0.14,0.16,0.49,-19.17,42.42,108.52
2026-08-03 13:20:41.734,-0.14,0.16,0.49,-19.17,42.42,108.52
2026-08-03 13:20:41.735,-0.19,0.15,0.55,-34.06,33.33,130.43
2026-08-03 13:20:41.735,-0.27,0.25,0.74,-42.66,31.8,121.77
2026-08-03 13:20:41.735,-0.27,0.25,0.74,-42.66,31.8,121.77
2026-08-03 13:20:41.794,-0.35,0.44,1.04,-47.06,39.31,104.61
2026-08-03 13:20:41.795,-0.35,0.44,1.04,-47.06,39.31,104.61
2026-08-03 13:20:41.851,-0.4,0.59,1.26,-39.06,35.89,91.74
2026-08-03 13:20:41.852,-0.4,0.59,1.26,-39.06,35.89,91.74
2026-08-03 13:20:41.852,-0.4,0.65,1.26,-0.92,16.24,86.0
2026-08-03 13:20:41.913,-0.38,0.73,1.21,39.18,0.73,89.84
2026-08-03 13:20:41.914,-0.38,0.73,1.21,39.18,0.73,89.84
2026-08-03 13:20:41.914,-0.4,0.78,1.21,37.35,2.32,109.07
2026-08-03 13:20:41.981,-0.4,0.78,1.21,37.35,2.32,109.07
2026-08-03 13:20:41.981,-0.42,0.66,1.08,7.14,4.15,138.85
2026-08-03 13:20:41.982,-0.42,0.66,1.08,7.14,4.15,138.85
2026-08-03 13:20:42.031,-0.37,0.54,0.77,-13.61,-13.49,149.23
2026-08-03 13:20:42.032,-0.37,0.54,0.77,-13.61,-13.49,149.23
2026-08-03 13:20:42.092,-0.27,0.56,0.53,-30.76,-25.76,126.04
2026-08-03 13:20:42.092,-0.2,0.63,0.57,-50.48,1.59,90.09
2026-08-03 13:20:42.093,-0.2,0.63,0.57,-50.48,1.59,90.09
2026-08-03 13:20:42.151,-0.18,0.68,0.74,-49.56,44.25,65.37
2026-08-03 13:20:42.152,-0.18,0.68,0.74,-49.56,44.25,65.37
2026-08-03 13:20:42.219,-0.19,0.64,0.79,-36.07,58.04,63.17
2026-08-03 13:20:42.220,-0.19,0.64,0.79,-36.07,58.04,63.17
2026-08-03 13:20:42.221,-0.18,0.55,0.66,-27.04,43.03,78.31
2026-08-03 13:20:42.332,-0.15,0.46,0.54,-30.76,29.48,95.4
2026-08-03 13:20:42.332,-0.15,0.46,0.54,-30.76,29.48,95.4
2026-08-03 13:20:42.333,-0.12,0.39,0.55,-47.12,29.91,109.44
2026-08-03 13:20:42.333,-0.12,0.39,0.55,-47.12,29.91,109.44
2026-08-03 13:20:42.334,-0.1,0.3,0.64,-57.01,31.01,119.02
2026-08-03 13:20:42.392,-0.1,0.3,0.64,-57.01,31.01,119.02
2026-08-03 13:20:42.392,-0.1,0.24,0.73,-59.69,20.51,115.36
2026-08-03 13:20:42.392,-0.09,0.19,0.83,-66.28,-11.6,91.49
2026-08-03 13:20:42.452,-0.09,0.19,0.83,-66.28,-11.6,91.49
2026-08-03 13:20:42.453,-0.07,0.12,0.93,-71.41,-55.54,52.31
2026-08-03 13:20:42.453,-0.07,0.12,0.93,-71.41,-55.54,52.31
2026-08-03 13:20:42.571,-0.04,0.09,1.12,-70.86,-76.29,10.8
2026-08-03 13:20:42.571,-0.04,0.09,1.12,-70.86,-76.29,10.8
2026-08-03 13:20:42.572,-0.02,0.13,1.36,-69.7,-59.2,-17.27
2026-08-03 13:20:42.572,-0.01,0.18,1.51,-61.1,-17.64,-23.93
2026-08-03 13:20:42.573,-0.01,0.18,1.51,-61.1,-17.64,-23.93
2026-08-03 13:20:42.640,0.02,0.21,1.55,-37.17,23.44,-27.1
2026-08-03 13:20:42.641,0.02,0.21,1.55,-37.17,23.44,-27.1
2026-08-03 13:20:42.695,0.04,0.26,1.49,-9.16,39.86,-36.38
2026-08-03 13:20:42.696,0.04,0.26,1.49,-9.16,39.86,-36.38
2026-08-03 13:20:42.700,0.0,0.23,1.26,10.8,26.61,-32.1
2026-08-03 13:20:42.751,-0.11,0.1,0.89,26.0,0.67,-3.42
2026-08-03 13:20:42.752,-0.11,0.1,0.89,26.0,0.67,-3.42
2026-08-03 13:20:42.812,-0.22,-0.02,0.64,30.15,-14.22,44.92
2026-08-03 13:20:42.812,-0.22,-0.02,0.64,30.15,-14.22,44.92
2026-08-03 13:20:42.813,-0.24,-0.07,0.65,20.87,1.95,85.94
2026-08-03 13:20:42.871,-0.24,-0.07,0.65,20.87,1.95,85.94
2026-08-03 13:20:42.872,-0.2,-0.04,0.76,16.6,40.89,83.01
2026-08-03 13:20:42.872,-0.2,-0.04,0.76,21.61,64.45,44.49
2026-08-03 13:20:42.936,-0.16,0.04,0.84,21.61,64.45,44.49
2026-08-03 13:20:42.936,-0.1,0.13,0.9,18.19,55.6,8.61
2026-08-03 13:20:42.992,-0.1,0.13,0.9,18.19,55.6,8.61
2026-08-03 13:20:42.992,-0.05,0.2,0.92,7.45,31.37,-4.58
2026-08-03 13:20:42.993,-0.05,0.2,0.92,7.45,31.37,-4.58
2026-08-03 13:20:43.052,-0.02,0.19,0.84,5.55,8.73,5.55
2026-08-03 13:20:43.052,-0.02,0.19,0.84,5.55,8.73,5.55
2026-08-03 13:20:43.111,-0.02,0.14,0.7,10.44,-6.96,27.77
2026-08-03 13:20:43.112,-0.02,0.14,0.7,10.44,-6.96,27.77
2026-08-03 13:20:43.112,-0.02,0.14,0.7,10.44,-6.96,27.77
2026-08-03 13:20:43.294,-0.02,0.14,0.7,10.44,-6.96,27.77
2026-08-03 13:20:43.294,0.03,0.11,0.61,-8.3,-2.69,58.41
2026-08-03 13:20:43.295,0.03,0.11,0.61,-8.3,-2.69,58.41
2026-08-03 13:20:43.295,0.06,0.16,0.68,-26.06,7.63,54.87
2026-08-03 13:20:43.295,0.09,0.24,0.79,-34.55,18.01,47.12
2026-08-03 13:20:43.295,0.09,0.24,0.79,-34.55,18.01,47.12
2026-08-03 13:20:43.296,0.11,0.3,0.92,-34.61,29.05,51.21
2026-08-03 13:20:43.296,0.11,0.3,0.92,-34.61,29.05,51.21
2026-08-03 13:20:43.296,0.1,0.32,1.03,-24.35,33.94,72.27
2026-08-03 13:20:43.353,0.1,0.32,1.03,-24.35,33.94,72.27
2026-08-03 13:20:43.353,0.03,0.28,1.13,-10.19,30.03,105.22
2026-08-03 13:20:43.412,-0.05,0.17,1.24,-4.58,22.28,140.2
2026-08-03 13:20:43.413,-0.05,0.17,1.24,-4.58,22.28,140.2
2026-08-03 13:20:43.413,-0.13,0.08,1.3,-0.37,15.62,159.97
2026-08-03 13:20:43.472,-0.13,0.08,1.3,-0.37,15.62,159.97
2026-08-03 13:20:43.478,-0.21,0.14,1.3,10.5,17.88,156.13
2026-08-03 13:20:43.479,-0.21,0.14,1.3,10.5,17.88,156.13
2026-08-03 13:20:43.531,-0.28,0.3,1.28,13.37,30.46,147.58
2026-08-03 13:20:43.532,-0.28,0.3,1.28,13.37,30.46,147.58
2026-08-03 13:20:43.532,-0.32,0.37,1.18,0.85,34.06,148.62
2026-08-03 13:20:43.651,-0.32,0.39,1.01,-17.15,20.75,135.74
2026-08-03 13:20:43.652,-0.32,0.39,1.01,-17.15,20.75,135.74
2026-08-03 13:20:43.652,-0.27,0.52,0.91,-38.45,6.53,94.6
2026-08-03 13:20:43.652,-0.27,0.52,0.91,-38.45,6.53,94.6
2026-08-03 13:20:43.652,-0.2,0.64,0.91,-57.19,-2.87,51.27
2026-08-03 13:20:43.775,-0.2,0.64,0.91,-57.19,-2.87,51.27
2026-08-03 13:20:43.776,-0.15,0.64,0.95,-57.86,-12.15,25.63
2026-08-03 13:20:43.776,-0.12,0.55,0.91,-37.9,-21.61,14.65
2026-08-03 13:20:43.777,-0.12,0.55,0.91,-37.9,-21.61,14.65
2026-08-03 13:20:43.777,-0.1,0.45,0.83,-15.87,-25.02,18.86
2026-08-03 13:20:43.894,-0.1,0.45,0.83,-15.87,-25.02,18.86
2026-08-03 13:20:43.895,-0.06,0.35,0.76,-6.9,-17.15,39.73
2026-08-03 13:20:43.895,-0.06,0.35,0.76,-6.9,-17.15,39.73
2026-08-03 13:20:43.896,-0.04,0.25,0.74,-8.0,-3.91,67.5
2026-08-03 13:20:43.896,-0.04,0.25,0.74,-8.0,-3.91,67.5
2026-08-03 13:20:43.896,-0.03,0.14,0.79,-21.79,6.84,94.79
2026-08-03 13:20:43.951,-0.01,0.04,0.88,-42.85,8.97,119.38
2026-08-03 13:20:43.952,-0.01,0.04,0.88,-42.85,8.97,119.38
2026-08-03 13:20:44.011,0.01,-0.04,0.94,-47.42,0.98,131.59
2026-08-03 13:20:44.012,0.01,-0.04,0.94,-47.42,0.98,131.59
2026-08-03 13:20:44.012,-0.0,-0.09,0.97,-38.09,-4.27,124.94
2026-08-03 13:20:44.072,-0.0,-0.09,0.97,-38.09,-4.27,124.94
2026-08-03 13:20:44.072,-0.05,-0.13,1.03,-36.44,2.26,103.27
2026-08-03 13:20:44.137,-0.11,-0.16,1.11,-44.19,7.87,72.45
2026-08-03 13:20:44.138,-0.11,-0.16,1.11,-44.19,7.87,72.45
2026-08-03 13:20:44.139,-0.18,-0.16,1.15,-47.18,3.6,33.81
2026-08-03 13:20:44.251,-0.18,-0.16,1.15,-47.18,3.6,33.81
2026-08-03 13:20:44.312,-0.25,-0.1,1.11,-33.69,-4.88,-9.09
2026-08-03 13:20:44.313,-0.25,-0.1,1.11,-33.69,-4.88,-9.09
2026-08-03 13:20:44.314,-0.23,0.06,1.08,-1.22,-10.38,-41.69
2026-08-03 13:20:44.314,-0.23,0.06,1.08,-1.22,-10.38,-41.69
2026-08-03 13:20:44.315,-0.1,0.27,1.08,29.42,-5.98,-48.34
2026-08-03 13:20:44.315,-0.1,0.27,1.08,41.75,-11.78,-20.32
2026-08-03 13:20:44.317,-0.01,0.3,0.92,41.75,-11.78,-20.32
2026-08-03 13:20:44.374,-0.04,0.12,0.57,47.97,-34.61,25.09
2026-08-03 13:20:44.375,-0.04,0.12,0.57,47.97,-34.61,25.09
2026-08-03 13:20:44.375,-0.1,0.01,0.39,45.29,-31.92,43.03
2026-08-03 13:20:44.432,-0.1,0.01,0.39,45.29,-31.92,43.03
2026-08-03 13:20:44.434,-0.11,0.09,0.6,10.07,8.79,40.28
2026-08-03 13:20:44.434,-0.11,0.09,0.6,10.07,8.79,40.28
2026-08-03 13:20:44.492,-0.03,0.17,0.96,-48.46,49.93,60.18
2026-08-03 13:20:44.493,0.01,0.14,1.09,-72.45,54.32,107.12
2026-08-03 13:20:44.552,0.01,0.14,1.09,-72.45,54.32,107.12
2026-08-03 13:20:44.553,-0.04,0.07,0.99,-33.81,25.88,163.51
2026-08-03 13:20:44.553,-0.04,0.07,0.99,-33.81,25.88,163.51
2026-08-03 13:20:44.627,-0.09,0.04,0.85,22.34,-4.39,205.87
2026-08-03 13:20:44.627,-0.1,0.11,0.79,59.39,-23.07,221.98
2026-08-03 13:20:44.671,-0.1,0.11,0.79,59.39,-23.07,221.98
2026-08-03 13:20:44.672,-0.08,0.24,0.82,92.9,-41.38,208.86
2026-08-03 13:20:44.673,-0.08,0.24,0.82,92.9,-41.38,208.86
2026-08-03 13:20:44.732,-0.04,0.33,0.85,118.84,-43.64,178.28
2026-08-03 13:20:44.735,-0.04,0.33,0.85,118.84,-43.64,178.28
2026-08-03 13:20:44.791,-0.02,0.42,0.87,118.35,-19.71,154.48
2026-08-03 13:20:44.792,0.04,0.54,0.93,106.87,17.7,126.46
2026-08-03 13:20:44.792,0.04,0.54,0.93,106.87,17.7,126.46
2026-08-03 13:20:44.853,0.06,0.61,1.0,119.45,57.01,68.24
2026-08-03 13:20:44.853,0.06,0.61,1.0,119.45,57.01,68.24
2026-08-03 13:20:44.913,0.06,0.62,1.1,107.48,80.63,18.19
2026-08-03 13:20:44.913,0.06,0.62,1.1,107.48,80.63,18.19
2026-08-03 13:20:44.913,0.07,0.7,1.16,12.33,84.23,10.99
2026-08-03 13:20:44.972,0.05,0.78,1.06,-78.67,57.43,13.18
2026-08-03 13:20:44.972,0.05,0.78,1.06,-78.67,57.43,13.18
2026-08-03 13:20:44.973,-0.04,0.76,0.79,-66.89,7.93,-2.81
2026-08-03 13:20:45.214,-0.04,0.76,0.79,-66.89,7.93,-2.81
2026-08-03 13:20:45.214,-0.1,0.63,0.56,17.46,-27.95,-25.82
2026-08-03 13:20:45.214,-0.1,0.63,0.56,17.46,-27.95,-25.82
2026-08-03 13:20:45.215,-0.1,0.51,0.5,83.8,-29.85,-33.75
2026-08-03 13:20:45.271,-0.1,0.51,0.5,83.8,-29.85,-33.75
2026-08-03 13:20:45.271,-0.09,0.45,0.56,95.09,-11.9,-26.06
2026-08-03 13:20:45.273,-0.07,0.44,0.66,68.85,0.85,-15.44
2026-08-03 13:20:45.284,-0.07,0.44,0.66,68.85,0.85,-15.44
2026-08-03 13:20:45.284,-0.06,0.45,0.73,33.75,-6.84,-10.38
2026-08-03 13:20:45.285,-0.06,0.45,0.73,33.75,-6.84,-10.38
2026-08-03 13:20:45.285,-0.03,0.49,0.8,8.67,-27.04,-11.84
2026-08-03 13:20:45.286,-0.03,0.49,0.8,8.67,-27.04,-11.84
2026-08-03 13:20:45.286,-0.0,0.54,0.86,-5.49,-27.16,-4.88
2026-08-03 13:20:45.332,-0.0,0.54,0.86,-12.45,-4.27,10.44
2026-08-03 13:20:45.332,-0.04,0.56,0.9,-12.45,-4.27,10.44
2026-08-03 13:20:45.334,-0.09,0.53,0.92,-18.62,9.64,11.78
2026-08-03 13:20:45.451,-0.09,0.53,0.92,-18.62,9.64,11.78
2026-08-03 13:20:45.453,-0.08,0.51,0.89,-29.72,5.49,-0.06
2026-08-03 13:20:45.453,-0.08,0.51,0.89,-29.72,5.49,-0.06
2026-08-03 13:20:45.453,-0.04,0.47,0.81,-40.1,-3.11,-2.38
2026-08-03 13:20:45.454,-0.04,0.47,0.81,-40.1,-3.11,-2.38
2026-08-03 13:20:45.512,-0.01,0.38,0.75,-62.44,-3.36,23.25
2026-08-03 13:20:45.513,-0.01,0.38,0.75,-100.4,2.38,56.4
2026-08-03 13:20:45.513,0.04,0.32,0.82,-100.4,2.38,56.4
2026-08-03 13:20:45.814,0.07,0.33,0.95,-111.15,-0.24,56.95
2026-08-03 13:20:45.814,0.07,0.33,0.95,-111.15,-0.24,56.95
2026-08-03 13:20:45.815,0.05,0.36,1.01,-85.45,-13.31,39.92
2026-08-03 13:20:45.815,0.05,0.36,1.01,-85.45,-13.31,39.92
2026-08-03 13:20:45.815,0.02,0.34,1.06,-65.92,-21.12,43.33
2026-08-03 13:20:45.816,0.02,0.34,1.06,-65.92,-21.12,43.33
2026-08-03 13:20:45.816,-0.01,0.25,1.1,-60.42,-20.26,59.14
2026-08-03 13:20:45.818,-0.04,0.16,1.08,-43.76,-19.47,62.44
2026-08-03 13:20:45.819,-0.04,0.16,1.08,-43.76,-19.47,62.44
2026-08-03 13:20:45.821,-0.07,0.08,1.15,-14.47,-7.32,47.3
2026-08-03 13:20:45.821,-0.07,0.08,1.15,-14.47,-7.32,47.3
2026-08-03 13:20:45.821,-0.11,0.09,1.21,51.51,75.62,22.22
2026-08-03 13:20:45.821,-0.11,0.09,1.21,51.51,75.62,22.22
2026-08-03 13:20:45.992,-0.19,0.32,1.02,166.5,232.54,29.48
2026-08-03 13:20:45.993,-0.19,0.32,1.02,237.49,270.26,27.89
2026-08-03 13:20:45.995,-0.25,0.63,0.82,237.49,270.26,27.89
2026-08-03 13:20:45.995,-0.25,0.71,0.74,187.01,118.47,-18.01
2026-08-03 13:20:45.995,-0.25,0.71,0.74,187.01,118.47,-18.01
2026-08-03 13:20:45.995,-0.18,0.57,0.7,51.94,-44.13,-30.33
2026-08-03 13:20:45.995,-0.18,0.57,0.7,51.94,-44.13,-30.33
2026-08-03 13:20:45.999,-0.14,0.33,0.86,-123.41,-110.96,-7.2
2026-08-03 13:20:46.112,-0.14,0.33,0.86,-123.41,-110.96,-7.2
2026-08-03 13:20:46.113,-0.18,0.07,1.08,-209.78,-105.16,-6.84
2026-08-03 13:20:46.113,-0.21,0.03,1.06,-117.8,-83.86,-38.21
2026-08-03 13:20:46.114,-0.21,0.03,1.06,-117.8,-83.86,-38.21
2026-08-03 13:20:46.114,-0.1,0.15,0.8,7.39,-70.86,-54.08
2026-08-03 13:20:46.172,-0.1,0.15,0.8,7.39,-70.86,-54.08
2026-08-03 13:20:46.173,-0.0,0.21,0.59,31.86,-50.96,-34.18
2026-08-03 13:20:46.173,-0.0,0.21,0.59,31.86,-50.96,-34.18
2026-08-03 13:20:46.232,-0.03,0.28,0.81,-19.1,-13.98,-8.85
2026-08-03 13:20:46.233,-0.06,0.42,1.32,-50.66,20.63,6.47
2026-08-03 13:20:46.233,-0.06,0.42,1.32,-50.66,20.63,6.47
2026-08-03 13:20:46.481,-0.06,0.58,1.36,-23.8,20.51,17.76
2026-08-03 13:20:46.482,-0.06,0.58,1.36,-23.8,20.51,17.76
2026-08-03 13:20:46.484,-0.02,0.59,0.84,12.45,-0.73,31.8
2026-08-03 13:20:46.484,-0.02,0.59,0.84,12.45,-0.73,31.8
2026-08-03 13:20:46.485,0.02,0.47,0.6,15.32,-3.72,50.6
2026-08-03 13:20:46.485,0.02,0.47,0.6,15.32,-3.72,50.6
2026-08-03 13:20:46.487,-0.02,0.32,0.86,0.12,8.06,61.04
2026-08-03 13:20:46.487,-0.12,0.17,1.06,-14.53,15.2,52.86
2026-08-03 13:20:46.488,-0.12,0.17,1.06,-14.53,15.2,52.86
2026-08-03 13:20:46.488,-0.2,0.15,1.02,-11.78,9.7,31.01
2026-08-03 13:20:46.532,-0.2,0.15,1.02,-11.78,9.7,31.01
2026-08-03 13:20:46.533,-0.18,0.23,0.99,3.11,-28.08,-18.86
2026-08-03 13:20:46.533,-0.18,0.23,0.99,3.11,-28.08,-18.86
2026-08-03 13:20:46.653,-0.09,0.26,1.01,13.43,-83.68,-88.68
2026-08-03 13:20:46.654,-0.09,0.26,1.01,13.43,-83.68,-88.68
2026-08-03 13:20:46.654,-0.03,0.28,1.01,20.57,-84.29,-104.25
2026-08-03 13:20:46.654,-0.0,0.32,0.99,22.4,-21.73,-49.07
2026-08-03 13:20:46.654,-0.0,0.32,0.99,22.4,-21.73,-49.07
2026-08-03 13:20:46.836,-0.02,0.32,0.96,9.89,45.96,23.13
2026-08-03 13:20:46.837,-0.02,0.32,0.96,9.89,45.96,23.13
2026-08-03 13:20:46.837,-0.07,0.3,0.92,-14.65,83.8,78.86
2026-08-03 13:20:46.838,-0.12,0.3,0.91,-27.77,77.21,89.36
2026-08-03 13:20:46.838,-0.12,0.3,0.91,-27.77,77.21,89.36
2026-08-03 13:20:46.838,-0.12,0.32,0.94,-16.17,42.42,57.56
2026-08-03 13:20:46.838,-0.12,0.32,0.94,-16.17,42.42,57.56
2026-08-03 13:20:46.839,-0.08,0.36,0.92,11.05,12.02,19.9
2026-08-03 13:20:46.892,-0.08,0.36,0.92,11.05,12.02,19.9
2026-08-03 13:20:46.893,-0.05,0.4,0.86,42.36,-2.32,-3.48
2026-08-03 13:20:46.893,-0.05,0.4,0.86,42.36,-2.32,-3.48
2026-08-03 13:20:47.134,-0.05,0.45,0.8,60.97,-0.85,-3.78
2026-08-03 13:20:47.134,-0.06,0.47,0.83,52.19,7.75,22.09
2026-08-03 13:20:47.134,-0.06,0.47,0.83,52.19,7.75,22.09
2026-08-03 13:20:47.135,-0.09,0.47,0.9,27.4,13.85,52.31
2026-08-03 13:20:47.135,-0.09,0.47,0.9,27.4,13.85,52.31
2026-08-03 13:20:47.136,-0.1,0.44,0.91,6.35,13.98,63.48
2026-08-03 13:20:47.136,-0.1,0.44,0.91,6.35,13.98,63.48
2026-08-03 13:20:47.136,-0.09,0.41,0.88,-6.04,11.84,59.39
2026-08-03 13:20:47.136,-0.09,0.41,0.88,-13.55,10.01,49.99
2026-08-03 13:20:47.137,-0.08,0.37,0.88,-13.55,10.01,49.99
2026-08-03 13:20:47.194,-0.08,0.36,0.9,-20.87,6.29,38.27
2026-08-03 13:20:47.194,-0.08,0.36,0.9,-20.87,6.29,38.27
2026-08-03 13:20:47.194,-0.08,0.35,0.89,-25.45,1.34,25.88
2026-08-03 13:20:47.372,-0.08,0.35,0.89,-25.45,1.34,25.88
2026-08-03 13:20:47.373,-0.05,0.35,0.89,-20.26,-2.01,12.94
2026-08-03 13:20:47.373,-0.05,0.35,0.89,-20.26,-2.01,12.94
2026-08-03 13:20:47.373,-0.03,0.37,0.91,-9.34,-3.11,0.24
2026-08-03 13:20:47.374,-0.03,0.38,0.93,-1.65,-4.21,-9.52
2026-08-03 13:20:47.374,-0.03,0.38,0.93,-1.65,-4.21,-9.52
2026-08-03 13:20:47.374,-0.05,0.39,0.93,1.16,-5.98,-18.19
2026-08-03 13:20:47.374,-0.05,0.39,0.93,1.16,-5.98,-18.19
2026-08-03 13:20:47.431,-0.06,0.41,0.92,3.11,-9.7,-27.59
2026-08-03 13:20:47.432,-0.06,0.41,0.92,3.11,-9.7,-27.59
2026-08-03 13:20:47.731,-0.05,0.44,0.9,7.93,-15.5,-31.56
2026-08-03 13:20:47.731,-0.05,0.44,0.9,7.93,-15.5,-31.56
2026-08-03 13:20:47.732,-0.03,0.45,0.92,11.78,-17.88,-26.12
2026-08-03 13:20:47.733,-0.01,0.42,0.93,10.8,-15.2,-14.4
2026-08-03 13:20:47.733,-0.01,0.42,0.93,10.8,-15.2,-14.4
2026-08-03 13:20:47.733,0.0,0.36,0.88,11.41,-15.2,-2.5
2026-08-03 13:20:47.734,0.0,0.36,0.88,11.41,-15.2,-2.5
2026-08-03 13:20:47.734,0.04,0.34,0.87,16.48,-17.76,0.67
2026-08-03 13:20:47.734,0.04,0.34,0.87,16.48,-17.76,0.67
2026-08-03 13:20:47.735,0.07,0.35,0.92,15.56,-13.31,-4.76
2026-08-03 13:20:47.735,0.07,0.35,0.92,15.56,-13.31,-4.76
2026-08-03 13:20:47.736,0.05,0.34,0.97,5.07,1.4,-8.97
2026-08-03 13:20:47.736,-0.01,0.3,1.03,-3.66,19.47,-8.79
2026-08-03 13:20:47.737,-0.01,0.3,1.03,-3.66,19.47,-8.79
2026-08-03 13:20:47.971,-0.1,0.23,1.05,-3.05,28.63,-15.99
2026-08-03 13:20:47.972,-0.1,0.23,1.05,-3.05,28.63,-15.99
2026-08-03 13:20:47.972,-0.14,0.16,0.99,10.38,15.32,-41.75
2026-08-03 13:20:47.973,-0.14,0.16,0.99,10.38,15.32,-41.75
2026-08-03 13:20:47.974,-0.13,0.17,0.85,34.91,-11.66,-89.97
2026-08-03 13:20:47.975,-0.13,0.17,0.85,34.91,-11.66,-89.97
2026-08-03 13:20:47.975,-0.14,0.28,0.78,45.29,-21.85,-140.87
2026-08-03 13:20:47.975,-0.19,0.43,0.93,21.0,2.01,-157.65
2026-08-03 13:20:47.975,-0.19,0.43,0.93,21.0,2.01,-157.65
2026-08-03 13:20:47.976,-0.3,0.54,1.19,-19.04,35.03,-140.5
2026-08-03 13:20:47.977,-0.3,0.54,1.19,-19.04,35.03,-140.5
2026-08-03 13:20:48.035,-0.39,0.6,1.31,-39.67,45.96,-100.59
2026-08-03 13:20:48.035,-0.39,0.6,1.31,-39.67,45.96,-100.59
2026-08-03 13:20:48.095,-0.41,0.66,1.28,-32.23,37.54,-45.35
2026-08-03 13:20:48.095,-0.35,0.71,1.18,-26.67,23.5,5.19
2026-08-03 13:20:48.095,-0.35,0.71,1.18,-26.67,23.5,5.19
2026-08-03 13:20:48.164,-0.29,0.71,1.08,-35.03,17.33,32.04
2026-08-03 13:20:48.164,-0.29,0.71,1.08,-35.03,17.33,32.04
2026-08-03 13:20:48.212,-0.28,0.69,1.01,-42.05,21.55,32.47
2026-08-03 13:20:48.212,-0.28,0.69,1.01,-42.05,21.55,32.47
2026-08-03 13:20:48.213,-0.29,0.67,0.96,-40.47,23.38,28.87
2026-08-03 13:20:48.271,-0.29,0.67,0.96,-32.47,14.04,38.94
2026-08-03 13:20:48.272,-0.27,0.62,0.86,-32.47,14.04,38.94
2026-08-03 13:20:48.272,-0.25,0.54,0.79,-27.28,2.56,57.8
2026-08-03 13:20:48.333,-0.25,0.54,0.79,-27.28,2.56,57.8
2026-08-03 13:20:48.334,-0.24,0.46,0.76,-31.92,-1.16,73.0
2026-08-03 13:20:48.392,-0.24,0.46,0.76,-31.92,-1.16,73.0
2026-08-03 13:20:48.393,-0.25,0.36,0.75,-37.96,-0.31,79.9
2026-08-03 13:20:48.393,-0.25,0.36,0.75,-37.96,-0.31,79.9
2026-08-03 13:20:48.456,-0.27,0.29,0.78,-35.22,-2.99,75.07
2026-08-03 13:20:48.456,-0.27,0.29,0.78,-25.82,-16.66,60.79
2026-08-03 13:20:48.456,-0.27,0.29,0.78,-25.82,-16.66,60.79
2026-08-03 13:20:48.512,-0.24,0.29,0.73,-23.19,-35.64,51.45
2026-08-03 13:20:48.512,-0.24,0.29,0.73,-23.19,-35.64,51.45
2026-08-03 13:20:48.632,-0.22,0.23,0.69,-37.54,-43.15,56.64
2026-08-03 13:20:48.632,-0.22,0.23,0.69,-37.54,-43.15,56.64
2026-08-03 13:20:48.633,-0.22,0.16,0.7,-50.29,-39.31,62.87
2026-08-03 13:20:48.633,-0.22,0.15,0.72,-42.48,-37.48,58.04
2026-08-03 13:20:48.633,-0.22,0.15,0.72,-42.48,-37.48,58.04
2026-08-03 13:20:48.694,-0.2,0.14,0.74,-28.93,-36.68,51.09
2026-08-03 13:20:48.694,-0.2,0.14,0.74,-28.93,-36.68,51.09
2026-08-03 13:20:48.694,-0.18,0.1,0.78,-25.57,-33.26,48.34
2026-08-03 13:20:48.754,-0.16,0.06,0.84,-25.88,-29.3,46.51
2026-08-03 13:20:48.754,-0.16,0.06,0.84,-25.88,-29.3,46.51
2026-08-03 13:20:48.872,-0.11,0.07,0.87,-22.09,-23.5,42.91
2026-08-03 13:20:48.884,-0.11,0.07,0.87,-22.09,-23.5,42.91
2026-08-03 13:20:48.884,-0.06,0.11,0.88,-23.93,-13.55,41.87
2026-08-03 13:20:48.885,-0.06,0.11,0.88,-23.93,-13.55,41.87
2026-08-03 13:20:48.885,-0.04,0.09,0.88,-39.98,5.0,54.5
2026-08-03 13:20:48.885,-0.04,0.09,0.88,-39.98,5.0,54.5
2026-08-03 13:20:48.933,-0.04,0.03,0.85,-50.96,25.15,74.16
2026-08-03 13:20:48.933,-0.04,-0.0,0.83,-39.49,34.0,81.3
2026-08-03 13:20:49.003,-0.04,-0.0,0.83,-39.49,34.0,81.3
2026-08-03 13:20:49.004,-0.03,0.01,0.87,-20.69,35.34,75.07
2026-08-03 13:20:49.004,-0.03,0.01,0.87,-20.69,35.34,75.07
2026-08-03 13:20:49.052,-0.03,0.02,0.96,-8.54,36.5,66.59
2026-08-03 13:20:49.052,-0.03,0.02,0.96,-8.54,36.5,66.59
2026-08-03 13:20:49.053,-0.04,0.05,1.06,-3.23,37.48,60.61
2026-08-03 13:20:49.113,-0.07,0.07,1.12,-4.64,35.52,57.5
2026-08-03 13:20:49.114,-0.07,0.07,1.12,-4.64,35.52,57.5
2026-08-03 13:20:49.231,-0.11,0.05,1.11,-10.07,27.22,56.95
2026-08-03 13:20:49.232,-0.11,0.05,1.11,-10.07,27.22,56.95
2026-08-03 13:20:49.233,-0.14,0.03,1.05,-13.61,12.15,54.38
2026-08-03 13:20:49.234,-0.14,0.03,1.05,-13.61,12.15,54.38
2026-08-03 13:20:49.234,-0.16,0.02,1.0,-12.15,-5.37,47.06
2026-08-03 13:20:49.236,-0.16,0.02,1.0,-12.15,-5.37,47.06
2026-08-03 13:20:49.300,-0.17,0.02,0.95,-2.38,-21.79,38.21
2026-08-03 13:20:49.300,-0.16,0.07,0.94,15.5,-31.8,28.38
2026-08-03 13:20:49.411,-0.16,0.07,0.94,15.5,-31.8,28.38
2026-08-03 13:20:49.412,-0.16,0.17,1.0,26.31,-26.12,18.43
2026-08-03 13:20:49.413,-0.16,0.17,1.0,26.31,-26.12,18.43
2026-08-03 13:20:49.413,-0.13,0.22,0.99,24.66,-13.98,14.83
2026-08-03 13:20:49.413,-0.13,0.22,0.99,24.66,-13.98,14.83
2026-08-03 13:20:49.414,-0.1,0.23,0.91,17.58,-10.38,20.32
2026-08-03 13:20:49.658,-0.15,0.21,0.93,-4.52,-4.39,30.15
2026-08-03 13:20:49.659,-0.15,0.21,0.93,-4.52,-4.39,30.15
2026-08-03 13:20:49.659,-0.27,0.18,1.06,-36.01,16.05,38.7
2026-08-03 13:20:49.660,-0.27,0.18,1.06,-36.01,16.05,38.7
2026-08-03 13:20:49.660,-0.37,0.15,1.15,-53.71,40.95,42.3
2026-08-03 13:20:49.660,-0.37,0.15,1.15,-53.71,40.95,42.3
2026-08-03 13:20:49.661,-0.33,0.08,1.03,-51.51,44.49,38.94
2026-08-03 13:20:49.661,-0.33,0.08,1.03,-51.51,44.49,38.94
2026-08-03 13:20:49.661,-0.22,0.01,0.8,-37.05,21.67,35.52
2026-08-03 13:20:49.662,-0.19,-0.01,0.68,-12.76,-4.64,43.46
2026-08-03 13:20:49.662,-0.19,-0.01,0.68,-12.76,-4.64,43.46
2026-08-03 13:20:49.772,-0.23,-0.03,0.73,17.52,-25.76,51.39
2026-08-03 13:20:49.774,-0.23,-0.03,0.73,17.52,-25.76,51.39
2026-08-03 13:20:50.025,-0.25,-0.03,0.89,33.57,-37.6,36.01
2026-08-03 13:20:50.029,-0.25,-0.03,0.89,33.57,-37.6,36.01
2026-08-03 13:20:50.031,-0.22,0.01,1.01,33.51,-39.61,0.12
2026-08-03 13:20:50.033,-0.22,0.01,1.01,33.51,-39.61,0.12
2026-08-03 13:20:50.035,-0.22,0.01,1.01,33.51,-39.61,0.12
2026-08-03 13:20:50.035,-0.22,0.01,1.01,33.51,-39.61,0.12
2026-08-03 13:20:50.036,-0.11,0.02,0.98,37.17,-37.9,-57.62
2026-08-03 13:20:50.036,-0.11,0.02,0.98,37.17,-37.9,-57.62
2026-08-03 13:20:50.036,-0.03,0.09,0.98,40.22,-43.09,-77.03
2026-08-03 13:20:50.036,0.07,0.18,1.04,32.35,-41.02,-95.95
2026-08-03 13:20:50.042,0.07,0.18,1.04,32.35,-41.02,-95.95
2026-08-03 13:20:50.044,0.12,0.24,1.17,15.08,-17.27,-104.19
2026-08-03 13:20:50.044,0.12,0.24,1.17,15.08,-17.27,-104.19
2026-08-03 13:20:50.045,0.09,0.3,1.3,4.03,15.26,-96.25
2026-08-03 13:20:50.132,0.09,0.3,1.3,4.03,15.26,-96.25
2026-08-03 13:20:50.132,0.03,0.33,1.28,11.72,30.88,-84.23
2026-08-03 13:20:50.133,0.03,0.33,1.28,11.72,30.88,-84.23
2026-08-03 13:20:50.133,-0.02,0.35,1.04,34.55,24.23,-73.24
2026-08-03 13:20:50.134,-0.11,0.29,0.77,45.29,13.92,-53.22
2026-08-03 13:20:50.192,-0.11,0.29,0.77,45.29,13.92,-53.22
2026-08-03 13:20:50.193,-0.25,0.18,0.66,29.17,14.1,-28.2
2026-08-03 13:20:50.193,-0.25,0.18,0.66,29.17,14.1,-28.2
2026-08-03 13:20:50.253,-0.38,0.13,0.69,11.78,21.42,-21.61
2026-08-03 13:20:50.253,-0.38,0.13,0.69,11.78,21.42,-21.61
2026-08-03 13:20:50.377,-0.43,0.19,0.79,9.09,28.38,-38.82
2026-08-03 13:20:50.377,-0.38,0.24,0.82,19.1,29.17,-54.57
2026-08-03 13:20:50.378,-0.38,0.24,0.82,19.1,29.17,-54.57
2026-08-03 13:20:50.378,-0.32,0.23,0.79,33.39,26.86,-53.28
2026-08-03 13:20:50.552,-0.32,0.23,0.79,33.39,26.86,-53.28
2026-08-03 13:20:50.553,-0.3,0.18,0.83,29.11,32.17,-45.35
2026-08-03 13:20:50.558,-0.3,0.18,0.83,29.11,32.17,-45.35
2026-08-03 13:20:50.558,-0.36,0.15,0.9,7.75,41.2,-38.15
2026-08-03 13:20:50.558,-0.36,0.15,0.9,7.75,41.2,-38.15
2026-08-03 13:20:50.558,-0.45,0.16,0.95,-8.54,41.08,-31.92
2026-08-03 13:20:50.672,-0.52,0.16,0.95,-16.72,31.25,-26.37
2026-08-03 13:20:50.672,-0.52,0.16,0.95,-16.72,31.25,-26.37
2026-08-03 13:20:50.673,-0.52,0.12,0.88,-14.77,14.04,-23.8
2026-08-03 13:20:50.674,-0.52,0.12,0.88,-14.77,14.04,-23.8
2026-08-03 13:20:50.678,-0.46,0.09,0.82,0.61,-5.8,-28.93
2026-08-03 13:20:50.678,-0.46,0.09,0.82,0.61,-5.8,-28.93
2026-08-03 13:20:50.679,-0.4,0.11,0.79,15.14,-16.17,-40.16
2026-08-03 13:20:50.679,-0.34,0.14,0.78,22.83,-17.94,-49.32
2026-08-03 13:20:50.679,-0.34,0.14,0.78,22.83,-17.94,-49.32
2026-08-03 13:20:50.792,-0.28,0.13,0.76,26.73,-21.61,-49.56
2026-08-03 13:20:50.793,-0.28,0.13,0.76,26.73,-21.61,-49.56
2026-08-03 13:20:50.793,-0.2,0.07,0.72,28.44,-30.21,-42.54
2026-08-03 13:20:50.794,-0.2,0.07,0.72,28.44,-30.21,-42.54
2026-08-03 13:20:50.794,-0.11,0.1,0.72,31.74,-34.67,-35.28
2026-08-03 13:20:50.851,-0.04,0.21,0.79,25.94,-21.85,-24.11
2026-08-03 13:20:50.852,-0.04,0.21,0.79,25.94,-21.85,-24.11
2026-08-03 13:20:50.855,-0.05,0.27,0.84,7.02,-0.31,0.92
2026-08-03 13:20:50.921,-0.05,0.27,0.84,7.02,-0.31,0.92
2026-08-03 13:20:50.921,-0.12,0.24,0.81,-9.52,7.45,36.44
2026-08-03 13:20:50.923,-0.12,0.24,0.81,-9.52,7.45,36.44
2026-08-03 13:20:51.212,-0.22,0.16,0.73,-18.62,-2.26,67.08
2026-08-03 13:20:51.271,-0.22,0.16,0.73,-18.62,-2.26,67.08
2026-08-03 13:20:51.272,-0.22,0.16,0.73,-18.62,-2.26,67.08
2026-08-03 13:20:51.272,-0.22,0.16,0.73,-18.62,-2.26,67.08
2026-08-03 13:20:51.284,-0.32,0.14,0.63,-13.37,-48.52,71.84
2026-08-03 13:20:51.285,-0.32,0.14,0.63,-13.37,-48.52,71.84
2026-08-03 13:20:51.285,-0.31,0.23,0.69,2.08,-71.29,54.44
2026-08-03 13:20:51.285,-0.31,0.42,1.07,13.55,-67.44,30.94
2026-08-03 13:20:51.286,-0.31,0.42,1.07,13.55,-67.44,30.94
2026-08-03 13:20:51.286,-0.39,0.65,1.76,6.41,-30.4,-4.33
2026-08-03 13:20:51.287,-0.39,0.65,1.76,6.41,-30.4,-4.33
2026-08-03 13:20:51.287,-0.46,0.66,2.1,-14.47,-3.36,-47.36
2026-08-03 13:20:51.287,-0.46,0.66,2.1,-14.47,-3.36,-47.36
2026-08-03 13:20:51.287,-0.36,0.48,1.65,-0.31,-33.69,-83.25
2026-08-03 13:20:51.287,-0.36,0.48,1.65,-0.31,-33.69,-83.25
2026-08-03 13:20:51.288,-0.13,0.35,0.94,43.21,-84.96,-99.98
2026-08-03 13:20:51.332,0.02,0.31,0.58,58.96,-92.47,-95.7
2026-08-03 13:20:51.332,0.02,0.31,0.58,58.96,-92.47,-95.7
2026-08-03 13:20:51.451,0.05,0.36,0.65,46.02,-56.21,-80.69
2026-08-03 13:20:51.451,0.05,0.36,0.65,46.02,-56.21,-80.69
2026-08-03 13:20:51.452,0.07,0.44,0.77,24.35,-17.52,-58.41
2026-08-03 13:20:51.452,0.07,0.44,0.77,24.35,-17.52,-58.41
2026-08-03 13:20:51.452,0.01,0.4,0.74,-17.76,13.98,-25.33
2026-08-03 13:20:51.453,-0.16,0.26,0.73,-73.36,47.06,-0.24
2026-08-03 13:20:51.512,-0.16,0.26,0.73,-73.36,47.06,-0.24
2026-08-03 13:20:51.512,-0.31,0.12,0.79,-94.67,71.72,-8.54
2026-08-03 13:20:51.512,-0.31,0.12,0.79,-94.67,71.72,-8.54
2026-08-03 13:20:51.646,-0.26,0.14,0.85,-52.19,80.14,-57.92
2026-08-03 13:20:51.646,-0.26,0.14,0.85,-52.19,80.14,-57.92
2026-08-03 13:20:51.648,-0.03,0.36,0.83,15.81,80.32,-126.46
2026-08-03 13:20:51.695,-0.03,0.36,0.83,47.79,80.51,-151.73
2026-08-03 13:20:51.695,0.17,0.43,0.71,47.79,80.51,-151.73
2026-08-03 13:20:51.695,0.23,0.17,0.58,41.81,73.61,-109.56
2026-08-03 13:20:51.695,0.23,0.17,0.58,41.81,73.61,-109.56
2026-08-03 13:20:51.813,0.12,-0.18,0.54,29.97,43.52,-56.15
2026-08-03 13:20:51.813,0.12,-0.18,0.54,29.97,43.52,-56.15
2026-08-03 13:20:51.813,-0.09,-0.35,0.65,27.53,-14.04,-45.65
2026-08-03 13:20:51.814,-0.09,-0.35,0.65,27.53,-14.04,-45.65
2026-08-03 13:20:51.814,-0.22,0.04,1.2,46.45,-72.45,-86.49
2026-08-03 13:20:51.815,-0.27,0.82,2.15,55.18,-91.92,-127.62
2026-08-03 13:20:51.871,-0.27,0.82,2.15,55.18,-91.92,-127.62
2026-08-03 13:20:51.872,-0.33,1.11,2.5,23.19,-76.84,-86.61
2026-08-03 13:20:52.051,-0.33,1.11,2.5,23.19,-76.84,-86.61
2026-08-03 13:20:52.052,-0.47,0.67,1.94,-35.28,-51.88,28.87
2026-08-03 13:20:52.052,-0.47,0.67,1.94,-35.28,-51.88,28.87
2026-08-03 13:20:52.052,-0.59,0.04,1.16,-91.06,-23.74,120.18
2026-08-03 13:20:52.052,-0.53,-0.29,0.6,-89.72,-13.43,129.39
2026-08-03 13:20:52.053,-0.53,-0.29,0.6,-89.72,-13.43,129.39
2026-08-03 13:20:52.053,-0.33,-0.21,0.3,-30.58,-27.16,81.36
2026-08-03 13:20:52.053,-0.33,-0.21,0.3,-30.58,-27.16,81.36
2026-08-03 13:20:52.171,-0.18,0.02,0.21,18.13,-34.0,36.56
2026-08-03 13:20:52.172,-0.18,0.02,0.21,18.13,-34.0,36.56
2026-08-03 13:20:52.172,-0.17,0.08,0.26,23.44,-19.47,31.01
2026-08-03 13:20:52.421,-0.22,0.02,0.36,18.74,2.56,48.58
2026-08-03 13:20:52.422,-0.22,0.02,0.36,18.74,2.56,48.58
2026-08-03 13:20:52.422,-0.28,0.03,0.53,27.4,29.97,55.3
2026-08-03 13:20:52.424,-0.28,0.03,0.53,27.4,29.97,55.3
2026-08-03 13:20:52.424,-0.37,0.17,0.98,20.14,78.74,34.18
2026-08-03 13:20:52.424,-0.37,0.17,0.98,20.14,78.74,34.18
2026-08-03 13:20:52.424,-0.44,0.3,1.44,-10.99,124.02,-1.34
2026-08-03 13:20:52.426,-0.44,0.3,1.44,-10.99,124.02,-1.34
2026-08-03 13:20:52.426,-0.3,0.23,1.21,2.01,89.29,-9.52
2026-08-03 13:20:52.426,0.03,-0.01,0.44,58.78,-3.23,22.95
2026-08-03 13:20:52.426,0.03,-0.01,0.44,58.78,-3.23,22.95
2026-08-03 13:20:52.426,0.26,-0.3,-0.07,45.47,-43.33,58.59
2026-08-03 13:20:52.427,0.26,-0.3,-0.07,45.47,-43.33,58.59
2026-08-03 13:20:52.472,0.28,-0.52,-0.1,-36.32,-25.63,72.33
2026-08-03 13:20:52.472,0.28,-0.52,-0.1,-36.32,-25.63,72.33
2026-08-03 13:20:52.473,0.04,-0.24,0.57,-82.95,-3.85,54.93
2026-08-03 13:20:52.651,-0.45,0.6,2.07,-106.51,20.39,-2.99
2026-08-03 13:20:52.652,-0.45,0.6,2.07,-106.51,20.39,-2.99
2026-08-03 13:20:52.652,-0.78,1.13,2.87,-73.61,3.72,-55.54
2026-08-03 13:20:52.652,-0.78,1.13,2.87,-73.61,3.72,-55.54
2026-08-03 13:20:52.718,-0.75,0.97,2.16,39.67,-74.52,-59.08
2026-08-03 13:20:52.718,-0.75,0.97,2.16,39.67,-74.52,-59.08
2026-08-03 13:20:52.719,-0.6,0.57,1.14,101.07,-116.82,-40.16
2026-08-03 13:20:52.719,-0.44,0.26,0.57,87.65,-89.48,-27.77
2026-08-03 13:20:52.719,-0.44,0.26,0.57,87.65,-89.48,-27.77
2026-08-03 13:20:52.720,-0.27,0.13,0.43,68.36,-44.13,-20.26
2026-08-03 13:20:52.831,-0.27,0.13,0.43,68.36,-44.13,-20.26
2026-08-03 13:20:52.839,-0.2,0.03,0.54,42.05,5.68,-17.76
2026-08-03 13:20:52.849,-0.2,0.03,0.54,42.05,5.68,-17.76
2026-08-03 13:20:52.851,-0.26,-0.17,0.67,5.31,51.21,-21.48
2026-08-03 13:20:52.851,-0.22,-0.33,0.63,-5.19,56.64,-26.25
2026-08-03 13:20:52.891,-0.22,-0.33,0.63,-5.19,56.64,-26.25
2026-08-03 13:20:52.892,-0.08,-0.28,0.49,11.11,28.69,-51.88
2026-08-03 13:20:52.892,-0.08,-0.28,0.49,11.11,28.69,-51.88
2026-08-03 13:20:53.012,0.02,-0.06,0.57,19.84,18.43,-106.51
2026-08-03 13:20:53.013,0.02,-0.06,0.57,19.84,18.43,-106.51
2026-08-03 13:20:53.013,0.03,0.21,0.91,17.94,29.24,-155.64
2026-08-03 13:20:53.013,0.08,0.5,1.2,33.75,7.14,-168.58
2026-08-03 13:20:53.014,0.08,0.5,1.2,33.75,7.14,-168.58
2026-08-03 13:20:53.071,0.18,0.75,1.36,65.92,-55.11,-129.52
2026-08-03 13:20:53.072,0.18,0.75,1.36,65.92,-55.11,-129.52
2026-08-03 13:20:53.072,0.08,1.11,1.59,60.3,-84.47,-56.64
2026-08-03 13:20:53.136,0.08,1.11,1.59,60.3,-84.47,-56.64
2026-08-03 13:20:53.136,-0.34,1.47,1.75,-7.75,-37.96,17.46
2026-08-03 13:20:53.193,-0.34,1.47,1.75,-74.89,37.78,104.0
2026-08-03 13:20:53.200,-0.75,1.26,1.42,-74.89,37.78,104.0
2026-08-03 13:20:53.200,-0.89,0.48,0.78,-92.59,85.27,192.81
2026-08-03 13:20:53.251,-0.89,0.48,0.78,-92.59,85.27,192.81
2026-08-03 13:20:53.252,-0.78,-0.16,0.36,-80.69,93.99,228.58
2026-08-03 13:20:53.252,-0.78,-0.16,0.36,-80.69,93.99,228.58
2026-08-03 13:20:53.313,-0.54,-0.3,0.31,-61.58,82.82,195.43
2026-08-03 13:20:53.371,-0.35,-0.08,0.47,-40.77,61.77,132.57
2026-08-03 13:20:53.371,-0.35,-0.08,0.47,-40.77,61.77,132.57
2026-08-03 13:20:53.372,-0.28,0.19,0.65,-23.32,33.14,86.0
2026-08-03 13:20:53.372,-0.28,0.19,0.65,-23.32,33.14,86.0
2026-08-03 13:20:53.492,-0.32,0.29,0.74,-12.94,7.69,71.72
2026-08-03 13:20:53.492,-0.32,0.29,0.74,-12.94,7.69,71.72
2026-08-03 13:20:53.493,-0.39,0.27,0.81,-4.94,-7.57,74.58
2026-08-03 13:20:53.493,-0.39,0.27,0.81,-4.94,-7.57,74.58
2026-08-03 13:20:53.493,-0.43,0.33,0.89,-1.95,-11.35,79.47
2026-08-03 13:20:53.735,-0.49,0.42,0.99,-10.8,-4.46,84.05
2026-08-03 13:20:53.735,-0.49,0.42,0.99,-10.8,-4.46,84.05
2026-08-03 13:20:53.735,-0.55,0.39,1.01,-16.72,7.14,80.14
2026-08-03 13:20:53.735,-0.55,0.39,1.01,-16.72,7.14,80.14
2026-08-03 13:20:53.737,-0.52,0.38,0.92,10.8,6.77,61.34
2026-08-03 13:20:53.737,-0.52,0.38,0.92,10.8,6.77,61.34
2026-08-03 13:20:53.737,-0.4,0.49,0.85,56.58,3.78,39.06
2026-08-03 13:20:53.737,-0.4,0.49,0.85,56.58,3.78,39.06
2026-08-03 13:20:53.737,-0.28,0.58,0.78,91.13,31.92,29.91
2026-08-03 13:20:54.153,-0.18,0.64,0.63,142.7,83.25,34.0
2026-08-03 13:20:54.154,-0.18,0.64,0.63,142.7,83.25,34.0
2026-08-03 13:20:54.154,-0.1,0.64,0.48,190.19,118.16,28.93
2026-08-03 13:20:54.154,-0.1,0.64,0.48,190.19,118.16,28.93
2026-08-03 13:20:54.155,-0.11,0.61,0.48,165.04,129.7,0.31
2026-08-03 13:20:54.155,-0.11,0.61,0.48,165.04,129.7,0.31
2026-08-03 13:20:54.155,-0.14,0.68,0.54,102.6,106.99,-26.61
2026-08-03 13:20:54.155,-0.22,0.82,0.61,43.95,47.12,-32.59
2026-08-03 13:20:54.156,-0.22,0.82,0.61,43.95,47.12,-32.59
2026-08-03 13:20:54.156,-0.37,0.83,0.72,-33.94,-0.98,-28.14
2026-08-03 13:20:54.156,-0.37,0.83,0.72,-33.94,-0.98,-28.14
2026-08-03 13:20:54.156,-0.49,0.66,0.8,-127.01,-33.39,-23.01
2026-08-03 13:20:54.156,-0.49,0.66,0.8,-127.01,-33.39,-23.01
2026-08-03 13:20:54.157,-0.48,0.49,0.85,-197.88,-84.29,-24.9
2026-08-03 13:20:54.157,-0.48,0.49,0.85,-197.88,-84.29,-24.9
2026-08-03 13:20:54.158,-0.48,0.49,0.85,-197.88,-84.29,-24.9
2026-08-03 13:20:54.159,-0.48,0.49,0.85,-197.88,-84.29,-24.9
2026-08-03 13:20:54.160,-0.4,0.4,0.98,-99.37,-85.75,-26.49
2026-08-03 13:20:54.160,-0.4,0.4,0.98,-20.08,-21.18,-30.7
2026-08-03 13:20:54.160,-0.41,0.38,1.09,-20.08,-21.18,-30.7
2026-08-03 13:20:54.161,-0.32,0.41,1.05,32.1,-3.54,-41.44
2026-08-03 13:20:54.212,-0.32,0.41,1.05,32.1,-3.54,-41.44
2026-08-03 13:20:54.212,-0.17,0.53,0.92,62.26,-37.29,-50.9
2026-08-03 13:20:54.512,-0.17,0.53,0.92,62.26,-37.29,-50.9
2026-08-03 13:20:54.512,-0.18,0.61,0.9,49.38,-54.08,-34.3
2026-08-03 13:20:54.513,-0.18,0.61,0.9,49.38,-54.08,-34.3
2026-08-03 13:20:54.513,-0.31,0.58,0.94,10.86,-42.3,6.53
2026-08-03 13:20:54.513,-0.36,0.54,0.93,-3.91,-48.03,30.88
2026-08-03 13:20:54.514,-0.36,0.54,0.93,-3.91,-48.03,30.88
2026-08-03 13:20:54.514,-0.29,0.51,0.93,-1.28,-61.28,21.61
2026-08-03 13:20:54.515,-0.29,0.51,0.93,-1.28,-61.28,21.61
2026-08-03 13:20:54.515,-0.21,0.47,1.0,-10.38,-54.5,-0.24
2026-08-03 13:20:54.515,-0.21,0.47,1.0,-10.38,-54.5,-0.24
2026-08-03 13:20:54.516,-0.16,0.41,1.07,-31.56,-41.38,-10.25
2026-08-03 13:20:54.516,-0.16,0.41,1.07,-31.56,-41.38,-10.25
2026-08-03 13:20:54.517,-0.15,0.34,1.05,-55.42,-28.63,5.0
2026-08-03 13:20:54.517,-0.16,0.27,0.96,-77.39,-13.92,36.13
2026-08-03 13:20:54.632,-0.16,0.27,0.96,-77.39,-13.92,36.13
2026-08-03 13:20:54.632,-0.18,0.23,0.91,-93.51,-0.43,56.52
2026-08-03 13:20:54.754,-0.18,0.23,0.91,-93.51,-0.43,56.52
2026-08-03 13:20:54.754,-0.17,0.2,0.89,-97.96,4.58,55.85
2026-08-03 13:20:54.754,-0.17,0.2,0.89,-97.96,4.58,55.85
2026-08-03 13:20:54.754,-0.14,0.17,0.91,-92.16,-2.2,52.98
2026-08-03 13:20:54.755,-0.14,0.17,0.96,-84.72,-12.21,59.39
2026-08-03 13:20:54.755,-0.14,0.17,0.96,-84.72,-12.21,59.39
2026-08-03 13:20:54.756,-0.16,0.15,1.0,-81.24,-17.33,48.71
2026-08-03 13:20:54.756,-0.16,0.15,1.0,-81.24,-17.33,48.71
2026-08-03 13:20:54.875,-0.14,0.08,0.97,-74.1,-20.81,15.62
2026-08-03 13:20:54.875,-0.14,0.08,0.97,-74.1,-20.81,15.62
2026-08-03 13:20:54.875,-0.08,0.01,0.89,-55.97,-28.26,-9.89
2026-08-03 13:20:54.876,-0.02,-0.06,0.84,-38.51,-29.91,-16.36
2026-08-03 13:20:54.876,-0.02,-0.06,0.84,-38.51,-29.91,-16.36
2026-08-03 13:20:54.932,-0.01,-0.13,0.84,-29.3,-20.02,-12.27
2026-08-03 13:20:54.932,-0.01,-0.13,0.84,-29.3,-20.02,-12.27
2026-08-03 13:20:54.932,-0.03,-0.18,0.88,-26.67,-8.36,-7.87
2026-08-03 13:20:55.052,-0.03,-0.18,0.88,-26.67,-8.36,-7.87
2026-08-03 13:20:55.053,-0.06,-0.22,0.93,-29.54,-0.85,-5.25
2026-08-03 13:20:55.057,-0.06,-0.22,0.93,-31.43,-1.53,-3.54
2026-08-03 13:20:55.057,-0.05,-0.25,0.94,-31.43,-1.53,-3.54
2026-08-03 13:20:55.058,-0.01,-0.28,0.91,-27.16,-8.61,-2.93
2026-08-03 13:20:55.058,-0.01,-0.28,0.91,-27.16,-8.61,-2.93
2026-08-03 13:20:55.113,0.03,-0.31,0.87,-18.13,-13.67,-2.01
2026-08-03 13:20:55.114,0.03,-0.31,0.87,-18.13,-13.67,-2.01
2026-08-03 13:20:55.292,0.07,-0.32,0.87,-9.95,-13.12,0.49
2026-08-03 13:20:55.293,0.07,-0.32,0.87,-9.95,-13.12,0.49
2026-08-03 13:20:55.298,0.08,-0.31,0.9,-6.16,-7.81,4.64
2026-08-03 13:20:55.298,0.08,-0.31,0.9,-5.92,-0.61,9.46
2026-08-03 13:20:55.298,0.05,-0.29,0.95,-5.92,-0.61,9.46
2026-08-03 13:20:55.299,0.0,-0.26,0.99,-6.23,3.42,11.78
2026-08-03 13:20:55.299,0.0,-0.26,0.99,-6.23,3.42,11.78
2026-08-03 13:20:55.299,-0.02,-0.25,0.99,-4.88,0.67,9.95
2026-08-03 13:20:55.354,-0.02,-0.25,0.99,-4.88,0.67,9.95
2026-08-03 13:20:55.354,-0.02,-0.25,0.96,-2.87,-5.49,6.53
2026-08-03 13:20:55.355,-0.02,-0.25,0.96,-2.87,-5.49,6.53
2026-08-03 13:20:55.411,-0.02,-0.27,0.89,-1.4,-10.13,4.21
2026-08-03 13:20:55.412,-0.02,-0.27,0.89,-1.4,-10.13,4.21
2026-08-03 13:20:55.413,-0.02,-0.28,0.84,1.65,-10.13,1.83
2026-08-03 13:20:55.474,-0.03,-0.25,0.87,6.96,-2.69,-2.69
2026-08-03 13:20:55.475,-0.03,-0.25,0.87,6.96,-2.69,-2.69
2026-08-03 13:20:55.599,-0.05,-0.23,0.96,11.41,8.24,-8.12
2026-08-03 13:20:55.601,-0.05,-0.23,0.96,11.41,8.24,-8.12
2026-08-03 13:20:55.601,-0.04,-0.21,1.01,14.59,11.96,-12.57
2026-08-03 13:20:55.601,-0.04,-0.21,1.01,14.59,11.96,-12.57
2026-08-03 13:20:55.602,-0.0,-0.21,0.97,17.09,6.41,-15.08
2026-08-03 13:20:55.602,-0.0,-0.21,0.97,17.09,6.41,-15.08
2026-08-03 13:20:55.711,0.04,-0.19,0.92,19.65,0.85,-15.69
2026-08-03 13:20:55.712,0.07,-0.15,0.9,24.17,0.73,-15.81
2026-08-03 13:20:55.712,0.07,-0.15,0.9,24.17,0.73,-15.81
2026-08-03 13:20:55.713,0.08,-0.08,0.91,28.81,3.85,-14.22
2026-08-03 13:20:55.713,0.08,-0.08,0.91,28.81,3.85,-14.22
2026-08-03 13:20:56.073,0.05,-0.05,0.92,30.33,7.08,-8.54
2026-08-03 13:20:56.073,0.05,-0.05,0.92,30.33,7.08,-8.54
2026-08-03 13:20:56.073,-0.01,-0.07,0.96,31.98,9.46,-1.77
2026-08-03 13:20:56.087,-0.01,-0.07,0.96,31.98,9.46,-1.77
2026-08-03 13:20:56.087,-0.05,-0.09,1.01,36.8,9.4,1.4
2026-08-03 13:20:56.087,-0.05,-0.1,1.04,42.24,5.98,0.73
2026-08-03 13:20:56.088,-0.05,-0.1,1.04,42.24,5.98,0.73
2026-08-03 13:20:56.089,-0.05,-0.09,1.04,43.21,2.81,-2.5
2026-08-03 13:20:56.089,-0.05,-0.09,1.04,43.21,2.81,-2.5
2026-08-03 13:20:56.092,-0.04,-0.08,1.03,38.27,1.16,-6.41
2026-08-03 13:20:56.092,-0.04,-0.08,1.03,38.27,1.16,-6.41
2026-08-03 13:20:56.092,-0.03,-0.06,1.01,30.88,0.55,-10.13
2026-08-03 13:20:56.093,-0.03,-0.06,1.01,30.88,0.55,-10.13
2026-08-03 13:20:56.097,-0.02,-0.03,1.01,22.89,2.01,-14.59
2026-08-03 13:20:56.097,-0.02,-0.03,1.01,17.15,3.11,-18.25
2026-08-03 13:20:56.097,-0.02,0.01,1.01,17.15,3.11,-18.25
2026-08-03 13:20:56.255,-0.03,0.03,0.99,15.44,1.59,-19.53
2026-08-03 13:20:56.433,-0.03,0.03,0.99,15.44,1.59,-19.53
2026-08-03 13:20:56.434,-0.03,0.04,0.98,16.48,-0.85,-19.04
2026-08-03 13:20:56.434,-0.03,0.04,0.98,16.48,-0.85,-19.04
2026-08-03 13:20:56.434,-0.03,0.06,0.99,17.94,-2.32,-18.07
2026-08-03 13:20:56.435,-0.03,0.06,0.99,17.94,-2.32,-18.07
2026-08-03 13:20:56.435,-0.03,0.07,0.98,18.49,-2.69,-17.27
2026-08-03 13:20:56.435,-0.04,0.08,0.97,18.62,-1.95,-16.91
2026-08-03 13:20:56.614,-0.04,0.08,0.97,18.62,-1.95,-16.91
2026-08-03 13:20:56.614,-0.06,0.09,0.97,19.29,0.06,-16.85
2026-08-03 13:20:56.615,-0.06,0.09,0.97,19.29,0.06,-16.85
2026-08-03 13:20:56.615,-0.09,0.11,0.97,22.03,0.31,-16.91
2026-08-03 13:20:56.615,-0.09,0.11,0.97,22.03,0.31,-16.91
2026-08-03 13:20:56.615,-0.12,0.14,0.95,27.77,-3.3,-17.46
2026-08-03 13:20:56.615,-0.12,0.14,0.95,27.77,-3.3,-17.46
2026-08-03 13:20:56.616,-0.16,0.19,0.95,35.03,-7.81,-19.84
2026-08-03 13:20:56.616,-0.19,0.28,0.98,43.4,-13.06,-25.02
2026-08-03 13:20:56.617,-0.19,0.28,0.98,43.4,-13.06,-25.02
2026-08-03 13:20:56.618,-0.21,0.4,1.05,51.76,-21.42,-32.65
2026-08-03 13:20:56.671,-0.21,0.4,1.05,51.76,-21.42,-32.65
2026-08-03 13:20:56.671,-0.23,0.51,1.13,57.37,-31.56,-41.87
2026-08-03 13:20:56.672,-0.23,0.51,1.13,57.37,-31.56,-41.87
2026-08-03 13:20:56.672,-0.23,0.59,1.13,57.5,-43.09,-51.82
2026-08-03 13:20:56.673,-0.23,0.59,1.13,57.5,-43.09,-51.82
2026-08-03 13:20:56.673,-0.18,0.6,1.05,53.47,-55.79,-57.5
2026-08-03 13:20:56.673,-0.14,0.59,1.01,48.22,-60.18,-55.66
2026-08-03 13:20:56.673,-0.14,0.59,1.01,48.22,-60.18,-55.66
2026-08-03 13:20:56.731,-0.15,0.57,1.05,43.82,-53.65,-51.51
2026-08-03 13:20:56.732,-0.15,0.57,1.05,43.82,-53.65,-51.51
2026-08-03 13:20:56.794,-0.15,0.56,1.06,40.47,-47.3,-50.9
2026-08-03 13:20:56.794,-0.12,0.55,0.99,32.78,-42.85,-55.36
2026-08-03 13:20:56.794,-0.12,0.55,0.99,32.78,-42.85,-55.36
2026-08-03 13:20:56.912,-0.08,0.52,0.88,20.08,-34.0,-62.74
2026-08-03 13:20:56.913,-0.08,0.52,0.88,20.08,-34.0,-62.74
2026-08-03 13:20:56.914,-0.03,0.48,0.75,8.12,-19.23,-73.49
2026-08-03 13:20:56.914,-0.03,0.48,0.75,8.12,-19.23,-73.49
2026-08-03 13:20:56.915,0.01,0.5,0.72,-0.12,2.08,-91.49
2026-08-03 13:20:56.972,0.02,0.56,0.82,-6.35,22.64,-113.34
2026-08-03 13:20:56.974,0.02,0.56,0.82,-6.35,22.64,-113.34
2026-08-03 13:20:56.974,0.03,0.6,0.89,-8.61,19.65,-126.1
2026-08-03 13:20:57.091,0.03,0.6,0.89,-8.61,19.65,-126.1
2026-08-03 13:20:57.092,0.09,0.62,0.87,-5.92,-9.58,-127.99
2026-08-03 13:20:57.093,0.09,0.62,0.87,-5.92,-9.58,-127.99
2026-08-03 13:20:57.094,0.13,0.62,0.83,-6.9,-39.37,-124.27
2026-08-03 13:20:57.094,0.13,0.62,0.83,-6.9,-39.37,-124.27
2026-08-03 13:20:57.405,0.12,0.52,0.75,-15.32,-59.57,-111.51
2026-08-03 13:20:57.406,0.1,0.39,0.66,-23.44,-70.8,-93.57
2026-08-03 13:20:57.571,0.1,0.39,0.66,-23.44,-70.8,-93.57
2026-08-03 13:20:57.572,0.09,0.29,0.67,-24.9,-67.14,-81.67
2026-08-03 13:20:57.572,0.09,0.29,0.67,-24.9,-67.14,-81.67
2026-08-03 13:20:57.810,0.09,0.29,0.79,-16.66,-53.71,-75.01
2026-08-03 13:20:57.811,0.09,0.29,0.79,-16.66,-53.71,-75.01
2026-08-03 13:20:57.812,0.06,0.37,0.95,-6.47,-37.9,-66.89
2026-08-03 13:20:57.812,0.01,0.4,1.01,-9.34,-23.62,-51.39
2026-08-03 13:20:57.812,0.01,0.4,1.01,-9.34,-23.62,-51.39
2026-08-03 13:20:58.055,-0.06,0.32,0.9,-24.9,-17.09,-25.63
2026-08-03 13:20:58.055,-0.06,0.32,0.9,-24.9,-17.09,-25.63
2026-08-03 13:20:58.056,-0.14,0.18,0.73,-43.09,-9.28,-1.1
2026-08-03 13:20:58.056,-0.14,0.18,0.73,-43.09,-9.28,-1.1
2026-08-03 13:20:58.057,-0.27,0.04,0.66,-55.36,12.45,3.66
2026-08-03 13:20:58.057,-0.27,0.04,0.66,-55.36,12.45,3.66
2026-08-03 13:20:58.058,-0.44,0.01,0.8,-45.84,41.14,-16.66
2026-08-03 13:20:58.058,-0.57,0.22,1.1,-7.45,62.68,-57.25
2026-08-03 13:20:58.059,-0.57,0.22,1.1,-7.45,62.68,-57.25
2026-08-03 13:20:58.059,-0.62,0.61,1.38,36.68,61.52,-102.23
2026-08-03 13:20:58.059,-0.62,0.61,1.38,36.68,61.52,-102.23
2026-08-03 13:20:58.059,-0.52,0.79,1.25,48.4,21.73,-115.54
2026-08-03 13:20:58.060,-0.52,0.79,1.25,48.4,21.73,-115.54
2026-08-03 13:20:58.060,-0.35,0.52,0.73,15.5,-36.99,-81.79
2026-08-03 13:20:58.061,-0.35,0.52,0.73,15.5,-36.99,-81.79
2026-08-03 13:20:58.061,-0.27,0.08,0.4,-28.69,-61.28,-47.12
2026-08-03 13:20:58.061,-0.23,-0.04,0.53,-41.08,-41.14,-60.49
2026-08-03 13:20:58.062,-0.23,-0.04,0.53,-41.08,-41.14,-60.49
2026-08-03 13:20:58.064,-0.08,0.13,0.79,-19.23,-21.97,-99.43
2026-08-03 13:20:58.064,-0.08,0.13,0.79,-19.23,-21.97,-99.43
2026-08-03 13:20:58.471,0.14,0.23,0.88,5.8,-25.39,-109.8
2026-08-03 13:20:58.472,0.14,0.23,0.88,5.8,-25.39,-109.8
2026-08-03 13:20:58.473,0.29,0.18,0.86,9.22,-24.66,-80.81
2026-08-03 13:20:58.474,0.29,0.18,0.86,9.22,-24.66,-80.81
2026-08-03 13:20:58.474,0.32,0.13,0.92,-0.55,-4.82,-36.68
2026-08-03 13:20:58.474,0.28,0.19,1.08,-8.36,17.94,4.52
2026-08-03 13:20:58.475,0.28,0.19,1.08,-8.36,17.94,4.52
2026-08-03 13:20:58.476,0.21,0.27,1.16,-16.17,28.69,42.36
2026-08-03 13:20:58.476,0.21,0.27,1.16,-16.17,28.69,42.36
2026-08-03 13:20:58.477,0.13,0.3,1.14,-24.23,25.02,81.54
2026-08-03 13:20:58.531,0.13,0.3,1.14,-24.23,25.02,81.54
2026-08-03 13:20:58.532,0.02,0.34,1.14,-30.7,16.05,114.56
2026-08-03 13:20:58.533,0.02,0.34,1.14,-30.7,16.05,114.56
2026-08-03 13:20:58.533,-0.07,0.39,1.15,-28.81,9.09,136.84
2026-08-03 13:20:58.534,-0.09,0.47,1.08,-14.89,3.17,154.79
2026-08-03 13:20:58.534,-0.09,0.47,1.08,-14.89,3.17,154.79
2026-08-03 13:20:58.535,-0.08,0.52,0.91,-2.26,-2.14,172.79
2026-08-03 13:20:58.535,-0.08,0.52,0.91,-2.26,-2.14,172.79
2026-08-03 13:20:58.536,-0.08,0.5,0.74,-1.28,-3.36,191.22
2026-08-03 13:20:58.536,-0.08,0.5,0.74,-1.28,-3.36,191.22
2026-08-03 13:20:58.653,-0.12,0.43,0.74,-10.44,4.82,206.3
2026-08-03 13:20:58.654,-0.12,0.43,0.74,-10.44,4.82,206.3
2026-08-03 13:20:58.655,-0.2,0.37,0.93,-18.8,16.97,213.68
2026-08-03 13:20:58.655,-0.23,0.32,1.11,-14.47,20.75,220.58
2026-08-03 13:20:58.655,-0.23,0.32,1.11,-14.47,20.75,220.58
2026-08-03 13:20:58.656,-0.14,0.26,1.06,-0.06,4.15,235.84
2026-08-03 13:20:58.656,-0.14,0.26,1.06,-0.06,4.15,235.84
2026-08-03 13:20:58.656,0.0,0.21,0.87,14.53,-30.82,241.21
2026-08-03 13:20:58.657,0.0,0.21,0.87,14.53,-30.82,241.21
2026-08-03 13:20:58.657,0.11,0.19,0.77,13.37,-51.27,215.82
2026-08-03 13:20:58.658,0.11,0.19,0.77,13.37,-51.27,215.82
2026-08-03 13:20:58.658,0.13,0.16,0.84,-8.06,-33.75,170.29
2026-08-03 13:20:58.658,0.07,0.15,0.98,-29.17,3.23,119.26
2026-08-03 13:20:58.659,0.07,0.15,0.98,-29.17,3.23,119.26
2026-08-03 13:20:58.660,-0.05,0.16,1.08,-37.96,28.44,70.86
2026-08-03 13:20:58.663,-0.05,0.16,1.08,-37.96,28.44,70.86
2026-08-03 13:20:58.663,-0.11,0.16,1.08,-30.94,23.8,30.94
2026-08-03 13:20:58.664,-0.11,0.16,1.08,-30.94,23.8,30.94
2026-08-03 13:20:58.664,-0.08,0.26,1.03,-10.38,1.1,-5.74
2026-08-03 13:20:58.665,-0.08,0.26,1.03,-10.38,1.1,-5.74
2026-08-03 13:20:58.832,-0.08,0.26,1.03,-10.38,1.1,-5.74
2026-08-03 13:20:58.833,-0.16,0.42,1.06,-6.23,4.39,-64.21
2026-08-03 13:20:58.833,-0.16,0.42,1.06,-6.23,4.39,-64.21
2026-08-03 13:20:58.834,-0.2,0.33,0.96,-9.28,-3.05,-70.62
2026-08-03 13:20:58.834,-0.2,0.33,0.96,-9.28,-3.05,-70.62
2026-08-03 13:20:58.834,-0.14,0.24,0.89,-0.73,-28.69,-67.5
2026-08-03 13:20:58.835,-0.14,0.24,0.89,-0.73,-28.69,-67.5
2026-08-03 13:20:58.835,-0.03,0.17,0.92,13.12,-50.84,-68.91
2026-08-03 13:20:59.132,-0.03,0.17,0.92,13.12,-50.84,-68.91
2026-08-03 13:20:59.133,0.1,0.16,0.95,27.59,-62.01,-84.78
2026-08-03 13:20:59.262,0.23,0.18,0.91,32.17,-66.71,-103.33
2026-08-03 13:20:59.263,0.23,0.18,0.91,32.17,-66.71,-103.33
2026-08-03 13:20:59.263,0.33,0.15,0.8,25.39,-67.75,-105.96
2026-08-03 13:20:59.263,0.33,0.15,0.8,25.39,-67.75,-105.96
2026-08-03 13:20:59.263,0.42,0.15,0.72,14.89,-61.16,-92.59
2026-08-03 13:20:59.263,0.42,0.15,0.72,14.89,-61.16,-92.59
2026-08-03 13:20:59.264,0.52,0.21,0.74,2.81,-46.26,-72.2
2026-08-03 13:20:59.264,0.52,0.21,0.74,-11.54,-28.08,-48.16
2026-08-03 13:20:59.264,0.58,0.29,0.82,-11.54,-28.08,-48.16
2026-08-03 13:20:59.264,0.59,0.37,0.92,-29.97,-12.02,-21.85
2026-08-03 13:20:59.265,0.59,0.37,0.92,-29.97,-12.02,-21.85
2026-08-03 13:20:59.265,0.52,0.42,1.02,-53.71,-2.26,3.6
2026-08-03 13:20:59.265,0.52,0.42,1.02,-53.71,-2.26,3.6
2026-08-03 13:20:59.266,0.4,0.37,1.09,-74.77,-1.46,24.29
2026-08-03 13:20:59.267,0.4,0.37,1.09,-74.77,-1.46,24.29
2026-08-03 13:20:59.268,0.28,0.25,1.11,-81.18,-7.08,33.45
2026-08-03 13:20:59.268,0.28,0.25,1.11,-74.16,-9.22,28.5
2026-08-03 13:20:59.436,0.24,0.12,1.11,-74.16,-9.22,28.5
2026-08-03 13:20:59.436,0.29,0.01,1.03,-51.64,-10.07,18.25
2026-08-03 13:20:59.436,0.29,0.01,1.03,-51.64,-10.07,18.25
2026-08-03 13:20:59.437,0.37,-0.03,0.87,-19.35,-12.88,10.8
2026-08-03 13:20:59.437,0.37,-0.03,0.87,-19.35,-12.88,10.8
2026-08-03 13:20:59.437,0.45,-0.02,0.83,-5.86,-3.78,7.45
2026-08-03 13:20:59.438,0.45,-0.02,0.83,-5.86,-3.78,7.45
2026-08-03 13:20:59.491,0.48,0.01,0.95,-22.71,17.52,5.74
2026-08-03 13:20:59.492,0.43,0.03,1.06,-47.3,29.36,5.55
2026-08-03 13:20:59.492,0.43,0.03,1.06,-47.3,29.36,5.55
2026-08-03 13:20:59.551,0.34,-0.02,0.99,-52.92,18.13,11.47
2026-08-03 13:20:59.551,0.34,-0.02,0.99,-52.92,18.13,11.47
2026-08-03 13:20:59.552,0.27,-0.06,0.83,-38.82,-4.09,22.77
2026-08-03 13:20:59.735,0.27,-0.06,0.83,-38.82,-4.09,22.77
2026-08-03 13:20:59.736,0.24,-0.09,0.72,-21.48,-15.32,34.42
2026-08-03 13:20:59.736,0.24,-0.09,0.72,-15.01,-7.26,42.66
2026-08-03 13:20:59.737,0.21,-0.16,0.71,-15.01,-7.26,42.66
2026-08-03 13:20:59.737,0.17,-0.21,0.77,-20.94,11.84,40.22
2026-08-03 13:20:59.737,0.17,-0.21,0.77,-20.94,11.84,40.22
2026-08-03 13:20:59.737,0.1,-0.23,0.85,-29.42,24.84,21.79
2026-08-03 13:20:59.738,0.1,-0.23,0.85,-29.42,24.84,21.79
2026-08-03 13:20:59.791,0.09,-0.23,0.88,-30.64,3.17,-18.25
2026-08-03 13:20:59.792,0.09,-0.23,0.88,-30.64,3.17,-18.25
2026-08-03 13:20:59.913,0.16,-0.23,0.89,-21.12,-26.61,-48.89
2026-08-03 13:20:59.913,0.28,-0.16,0.96,-4.03,-19.9,-48.4
2026-08-03 13:20:59.913,0.28,-0.16,0.96,-4.03,-19.9,-48.4
2026-08-03 13:20:59.914,0.39,-0.03,1.17,1.04,16.78,-32.71
2026-08-03 13:20:59.914,0.39,-0.03,1.17,1.04,16.78,-32.71
2026-08-03 13:20:59.972,0.37,0.01,1.27,1.1,54.32,-6.59
2026-08-03 13:20:59.972,0.37,0.01,1.27,1.1,54.32,-6.59
2026-08-03 13:20:59.973,0.23,-0.07,1.04,17.27,57.13,14.1
2026-08-03 13:21:00.212,0.23,-0.07,1.04,17.27,57.13,14.1
2026-08-03 13:21:00.212,0.08,-0.17,0.79,31.07,31.19,10.8
2026-08-03 13:21:00.212,0.08,-0.17,0.72,33.63,5.19,-17.33
2026-08-03 13:21:00.213,0.08,-0.17,0.72,33.63,5.19,-17.33
2026-08-03 13:21:00.213,0.21,-0.05,0.73,42.11,-11.47,-47.18
2026-08-03 13:21:00.214,0.21,-0.05,0.73,42.11,-11.47,-47.18
2026-08-03 13:21:00.214,0.37,0.06,0.69,61.28,-15.56,-50.17
2026-08-03 13:21:00.214,0.37,0.06,0.69,61.28,-15.56,-50.17
2026-08-03 13:21:00.215,0.45,0.08,0.7,72.88,-0.85,-21.3
2026-08-03 13:21:00.215,0.45,0.08,0.7,66.65,25.39,25.15
2026-08-03 13:21:00.217,0.48,0.07,0.84,66.65,25.39,25.15
2026-08-03 13:21:00.454,0.48,0.1,1.0,60.12,43.27,71.35
2026-08-03 13:21:00.472,0.48,0.1,1.0,60.12,43.27,71.35
2026-08-03 13:21:00.473,0.46,0.22,1.12,57.19,49.56,109.86
2026-08-03 13:21:00.473,0.46,0.22,1.12,57.19,49.56,109.86
2026-08-03 13:21:00.693,0.36,0.34,1.12,50.48,50.96,144.29
2026-08-03 13:21:00.693,0.36,0.34,1.12,50.48,50.96,144.29
2026-08-03 13:21:00.693,0.22,0.35,0.96,57.19,48.16,170.9
2026-08-03 13:21:00.693,0.17,0.37,0.79,77.76,53.96,179.93
2026-08-03 13:21:00.694,0.17,0.37,0.79,77.76,53.96,179.93
2026-08-03 13:21:00.694,0.23,0.52,0.91,74.04,81.67,177.43
2026-08-03 13:21:00.695,0.23,0.52,0.91,74.04,81.67,177.43
2026-08-03 13:21:00.695,0.27,0.66,1.31,34.24,118.84,175.6
2026-08-03 13:21:00.695,0.27,0.66,1.31,34.24,118.84,175.6
2026-08-03 13:21:00.696,0.25,0.64,1.58,-5.0,124.27,170.59
2026-08-03 13:21:00.696,0.25,0.52,1.38,-11.29,69.34,156.01
2026-08-03 13:21:00.696,0.25,0.52,1.38,-11.29,69.34,156.01
2026-08-03 13:21:00.697,0.28,0.38,0.84,10.56,-16.48,138.37
2026-08-03 13:21:00.698,0.28,0.38,0.84,10.56,-16.48,138.37
2026-08-03 13:21:00.698,0.31,0.31,0.43,27.16,-64.94,126.46
2026-08-03 13:21:00.700,0.31,0.31,0.43,27.16,-64.94,126.46
2026-08-03 13:21:00.700,0.33,0.31,0.41,12.33,-44.92,119.81
2026-08-03 13:21:00.811,0.32,0.34,0.62,-14.83,1.95,112.73
2026-08-03 13:21:00.812,0.32,0.34,0.62,-14.83,1.95,112.73
2026-08-03 13:21:00.813,0.31,0.38,0.84,-23.8,29.48,101.75
2026-08-03 13:21:00.813,0.31,0.38,0.84,-23.8,29.48,101.75
2026-08-03 13:21:00.814,0.3,0.39,0.98,-13.24,31.68,88.75
2026-08-03 13:21:01.112,0.3,0.38,1.0,10.13,14.53,79.22
2026-08-03 13:21:01.114,0.3,0.38,1.0,10.13,14.53,79.22
2026-08-03 13:21:01.115,0.34,0.41,0.92,37.17,-8.67,77.15
2026-08-03 13:21:01.115,0.34,0.41,0.92,37.17,-8.67,77.15
2026-08-03 13:21:01.115,0.35,0.47,0.83,50.9,-15.75,89.23
2026-08-03 13:21:01.123,0.35,0.47,0.83,50.9,-15.75,89.23
2026-08-03 13:21:01.124,0.28,0.46,0.81,50.23,-0.98,116.52
2026-08-03 13:21:01.129,0.28,0.46,0.81,50.23,-0.98,116.52
2026-08-03 13:21:01.130,0.22,0.42,0.86,52.86,21.42,140.75
2026-08-03 13:21:01.131,0.2,0.52,1.01,55.97,48.22,146.12
2026-08-03 13:21:01.131,0.2,0.52,1.01,55.97,48.22,146.12
2026-08-03 13:21:01.131,0.12,0.6,1.17,33.63,83.07,145.94
2026-08-03 13:21:01.131,0.12,0.6,1.17,33.63,83.07,145.94
2026-08-03 13:21:01.292,-0.03,0.46,1.1,3.78,97.96,156.07
2026-08-03 13:21:01.293,-0.03,0.46,1.1,3.78,97.96,156.07
2026-08-03 13:21:01.293,-0.11,0.24,0.88,0.24,80.38,164.67
2026-08-03 13:21:01.293,-0.11,0.24,0.88,6.16,66.77,158.14
2026-08-03 13:21:01.294,-0.09,0.12,0.72,6.16,66.77,158.14
2026-08-03 13:21:01.294,-0.03,0.1,0.71,3.91,74.71,140.38
2026-08-03 13:21:01.295,-0.03,0.1,0.71,3.91,74.71,140.38
2026-08-03 13:21:01.295,0.01,0.15,0.78,-1.04,89.84,118.84
2026-08-03 13:21:01.367,0.01,0.15,0.78,-1.04,89.84,118.84
2026-08-03 13:21:01.374,0.03,0.23,0.92,-9.4,103.39,98.94
2026-08-03 13:21:01.375,0.03,0.23,0.92,-9.4,103.39,98.94
2026-08-03 13:21:01.773,0.06,0.27,1.06,-21.85,106.38,85.45
2026-08-03 13:21:01.774,0.1,0.28,1.11,-28.69,86.0,77.33
2026-08-03 13:21:01.775,0.1,0.28,1.11,-28.69,86.0,77.33
2026-08-03 13:21:01.892,0.14,0.28,1.06,-26.12,45.9,71.53
2026-08-03 13:21:01.892,0.14,0.28,1.06,-26.12,45.9,71.53
2026-08-03 13:21:01.893,0.19,0.28,0.97,-12.94,1.53,68.18
2026-08-03 13:21:01.894,0.19,0.28,0.97,-12.94,1.53,68.18
2026-08-03 13:21:01.894,0.28,0.42,1.0,7.81,-21.91,64.7
2026-08-03 13:21:01.894,0.28,0.42,1.0,7.81,-21.91,64.7
2026-08-03 13:21:01.895,0.3,0.68,1.24,7.57,-6.1,67.32
2026-08-03 13:21:01.896,0.16,0.81,1.46,-20.69,20.14,87.83
2026-08-03 13:21:01.896,0.16,0.81,1.46,-20.69,20.14,87.83
2026-08-03 13:21:01.896,-0.03,0.81,1.43,-44.92,20.14,112.61
2026-08-03 13:21:01.897,-0.03,0.81,1.43,-44.92,20.14,112.61
2026-08-03 13:21:01.897,-0.16,0.75,1.16,-49.62,-3.23,126.83
2026-08-03 13:21:01.897,-0.16,0.75,1.16,-49.62,-3.23,126.83
2026-08-03 13:21:01.897,-0.21,0.61,0.8,-39.43,-27.28,139.89
2026-08-03 13:21:01.898,-0.21,0.61,0.8,-39.43,-27.28,139.89
2026-08-03 13:21:01.899,-0.22,0.41,0.53,-14.04,-44.01,156.74
2026-08-03 13:21:02.791,-0.18,0.24,0.36,26.49,-58.59,167.85
2026-08-03 13:21:03.158,-0.18,0.24,0.36,26.49,-58.59,167.85
2026-08-03 13:21:03.160,-0.15,0.17,0.35,45.47,-44.8,161.8
2026-08-03 13:21:03.161,-0.15,0.17,0.35,45.47,-44.8,161.8
2026-08-03 13:21:03.165,-0.21,0.14,0.54,11.54,11.05,135.25
2026-08-03 13:21:03.331,-0.21,0.14,0.54,11.54,11.05,135.25
2026-08-03 13:21:03.332,-0.3,0.12,0.72,-29.72,54.99,93.69
2026-08-03 13:21:03.334,-0.36,0.18,0.86,-26.18,57.92,43.09
2026-08-03 13:21:03.335,-0.36,0.18,0.86,-26.18,57.92,43.09
2026-08-03 13:21:03.336,-0.38,0.33,1.11,4.09,55.6,-11.9
2026-08-03 13:21:03.336,-0.38,0.33,1.11,4.09,55.6,-11.9
2026-08-03 13:21:03.337,-0.43,0.45,1.41,26.79,63.66,-60.73
2026-08-03 13:21:03.337,-0.43,0.45,1.41,26.79,63.66,-60.73
2026-08-03 13:21:03.337,-0.49,0.46,1.47,39.79,55.66,-88.44
2026-08-03 13:21:03.338,-0.49,0.46,1.47,39.79,55.66,-88.44
2026-08-03 13:21:03.338,-0.53,0.33,1.19,41.69,21.42,-90.88
2026-08-03 13:21:03.339,-0.53,0.14,0.83,35.16,-14.34,-82.82
2026-08-03 13:21:03.341,-0.53,0.14,0.83,35.16,-14.34,-82.82
2026-08-03 13:21:03.342,-0.48,0.05,0.73,33.45,-21.79,-92.16
2026-08-03 13:21:03.342,-0.48,0.05,0.73,33.45,-21.79,-92.16
2026-08-03 13:21:03.343,-0.36,0.15,0.84,36.68,-7.26,-131.77
2026-08-03 13:21:03.343,-0.36,0.15,0.84,36.68,-7.26,-131.77
2026-08-03 13:21:03.343,-0.19,0.33,0.89,40.71,-6.29,-177.37
2026-08-03 13:21:03.344,-0.19,0.33,0.89,40.65,-26.43,-195.74
2026-08-03 13:21:03.345,-0.03,0.41,0.8,40.65,-26.43,-195.74
2026-08-03 13:21:03.346,0.09,0.38,0.7,36.93,-44.25,-188.6
2026-08-03 13:21:03.347,0.09,0.38,0.7,36.93,-44.25,-188.6
2026-08-03 13:21:03.348,0.21,0.39,0.69,37.78,-49.07,-177.25
2026-08-03 13:21:03.348,0.21,0.39,0.69,37.78,-49.07,-177.25
2026-08-03 13:21:03.349,0.35,0.44,0.74,44.68,-45.41,-164.55
2026-08-03 13:21:03.350,0.35,0.44,0.74,44.68,-45.41,-164.55
2026-08-03 13:21:03.350,0.46,0.47,0.8,53.71,-34.06,-140.62
2026-08-03 13:21:03.351,0.52,0.52,0.86,63.23,-15.99,-103.39
2026-08-03 13:21:03.351,0.52,0.52,0.86,63.23,-15.99,-103.39
2026-08-03 13:21:03.352,0.51,0.57,0.91,65.0,12.02,-58.47
2026-08-03 13:21:03.352,0.51,0.57,0.91,65.0,12.02,-58.47
2026-08-03 13:21:03.353,0.4,0.61,1.0,61.83,45.17,-11.41
2026-08-03 13:21:03.353,0.4,0.61,1.0,61.83,45.17,-11.41
2026-08-03 13:21:03.353,0.23,0.82,1.17,53.47,69.76,26.37
2026-08-03 13:21:03.354,0.23,0.82,1.17,53.47,69.76,26.37
2026-08-03 13:21:03.354,-0.01,1.14,1.39,6.65,84.96,57.07
2026-08-03 13:21:03.355,-0.33,1.23,1.46,-75.93,83.62,108.22
2026-08-03 13:21:03.355,-0.33,1.23,1.46,-75.93,83.62,108.22
2026-08-03 13:21:03.355,-0.6,1.0,1.3,-143.13,59.39,172.67
2026-08-03 13:21:03.392,-0.6,1.0,1.3,-143.13,59.39,172.67
2026-08-03 13:21:03.393,-0.71,0.7,1.03,-172.67,28.81,204.16
2026-08-03 13:21:03.512,-0.71,0.7,1.03,-172.67,28.81,204.16
2026-08-03 13:21:03.513,-0.65,0.47,0.8,-171.33,5.68,189.58
2026-08-03 13:21:03.514,-0.52,0.33,0.55,-149.9,-18.31,156.92
2026-08-03 13:21:03.514,-0.52,0.33,0.55,-149.9,-18.31,156.92
2026-08-03 13:21:03.515,-0.42,0.23,0.31,-122.99,-44.07,132.87
2026-08-03 13:21:03.516,-0.42,0.23,0.31,-122.99,-44.07,132.87
2026-08-03 13:21:03.517,-0.39,0.11,0.2,-98.75,-51.64,117.43
2026-08-03 13:21:03.517,-0.39,0.11,0.2,-98.75,-51.64,117.43
2026-08-03 13:21:03.532,-0.42,0.04,0.23,-68.24,-36.01,90.45
2026-08-03 13:21:03.764,-0.42,0.04,0.23,-68.24,-36.01,90.45
2026-08-03 13:21:03.767,-0.44,0.08,0.39,-25.33,-7.87,41.93
2026-08-03 13:21:03.768,-0.46,0.18,0.65,16.17,22.89,-16.17
2026-08-03 13:21:03.768,-0.46,0.18,0.65,16.17,22.89,-16.17
2026-08-03 13:21:03.769,-0.48,0.25,0.91,49.8,39.67,-65.25
2026-08-03 13:21:03.771,-0.48,0.25,0.91,49.8,39.67,-65.25
2026-08-03 13:21:03.771,-0.47,0.31,1.12,87.65,33.75,-99.43
2026-08-03 13:21:03.772,-0.47,0.31,1.12,87.65,33.75,-99.43
2026-08-03 13:21:03.772,-0.39,0.44,1.32,122.13,20.87,-129.21
2026-08-03 13:21:03.773,-0.39,0.44,1.32,122.13,20.87,-129.21
2026-08-03 13:21:03.774,-0.27,0.57,1.42,129.15,12.94,-149.72
2026-08-03 13:21:03.774,-0.21,0.35,1.06,60.42,-22.28,-82.58
2026-08-03 13:21:03.776,-0.21,0.35,1.06,60.42,-22.28,-82.58
2026-08-03 13:21:03.776,-0.29,0.12,0.94,8.67,-21.42,-30.82
2026-08-03 13:21:03.777,-0.31,-0.03,0.89,-18.25,-5.55,-15.75
2026-08-03 13:21:03.778,-0.31,-0.03,0.89,-18.25,-5.55,-15.75
2026-08-03 13:21:03.778,-0.21,-0.01,0.77,0.92,-1.28,-37.9
2026-08-03 13:21:03.780,-0.21,-0.01,0.77,0.92,-1.28,-37.9
2026-08-03 13:21:03.780,-0.06,0.12,0.64,36.56,-8.42,-67.32
2026-08-03 13:21:03.781,-0.06,0.12,0.64,36.56,-8.42,-67.32
2026-08-03 13:21:03.781,0.06,0.23,0.62,48.52,-9.28,-79.83
2026-08-03 13:21:03.811,0.06,0.23,0.62,48.52,-9.28,-79.83
2026-08-03 13:21:03.812,0.14,0.31,0.73,36.56,-0.18,-76.29
2026-08-03 13:21:03.812,0.17,0.44,0.96,21.06,11.23,-62.13
2026-08-03 13:21:03.813,0.17,0.44,0.96,21.06,11.23,-62.13
2026-08-03 13:21:03.814,0.15,0.59,1.22,6.65,17.33,-36.8
2026-08-03 13:21:03.814,0.15,0.59,1.22,6.65,17.33,-36.8
2026-08-03 13:21:03.816,0.09,0.67,1.34,-10.31,16.3,-1.77
2026-08-03 13:21:03.816,0.09,0.67,1.34,-10.31,16.3,-1.77
2026-08-03 13:21:03.817,-0.0,0.61,1.27,-22.16,10.5,38.33
2026-08-03 13:21:04.053,-0.0,0.61,1.27,-22.16,10.5,38.33
2026-08-03 13:21:04.054,-0.08,0.48,1.13,-24.9,7.63,74.04
2026-08-03 13:21:04.055,-0.12,0.44,1.05,-34.12,16.6,95.58
2026-08-03 13:21:04.055,-0.12,0.44,1.05,-34.12,16.6,95.58
2026-08-03 13:21:04.055,-0.15,0.48,1.03,-56.27,29.11,108.52
2026-08-03 13:21:04.056,-0.15,0.48,1.03,-56.27,29.11,108.52
2026-08-03 13:21:04.059,-0.23,0.53,1.11,-86.85,35.34,121.64
2026-08-03 13:21:04.060,-0.23,0.53,1.11,-86.85,35.34,121.64
2026-08-03 13:21:04.060,-0.37,0.53,1.28,-128.97,38.64,129.58
2026-08-03 13:21:04.060,-0.47,0.47,1.35,-158.33,25.15,125.24
2026-08-03 13:21:04.060,-0.47,0.47,1.35,-158.33,25.15,125.24
2026-08-03 13:21:04.061,-0.46,0.39,1.1,-137.82,-22.09,110.47
2026-08-03 13:21:04.061,-0.46,0.39,1.1,-137.82,-22.09,110.47
2026-08-03 13:21:04.231,-0.34,0.31,0.68,-80.02,-82.21,94.85
2026-08-03 13:21:04.232,-0.34,0.31,0.68,-80.02,-82.21,94.85
2026-08-03 13:21:04.232,-0.23,0.25,0.38,-35.95,-110.84,85.57
2026-08-03 13:21:04.413,-0.2,0.2,0.34,-32.35,-89.72,78.92
2026-08-03 13:21:04.414,-0.2,0.2,0.34,-32.35,-89.72,78.92
2026-08-03 13:21:04.415,-0.24,0.18,0.49,-44.8,-46.02,69.7
2026-08-03 13:21:04.416,-0.24,0.18,0.49,-44.8,-46.02,69.7
2026-08-03 13:21:04.418,-0.35,0.16,0.7,-47.67,-12.21,58.35
2026-08-03 13:21:04.531,-0.35,0.16,0.7,-47.67,-12.21,58.35
2026-08-03 13:21:04.532,-0.45,0.07,0.81,-38.39,1.28,46.33
2026-08-03 13:21:04.534,-0.45,0.07,0.81,-38.39,1.28,46.33
2026-08-03 13:21:04.534,-0.44,-0.05,0.72,-1.59,-6.71,29.85
2026-08-03 13:21:04.535,-0.37,-0.07,0.65,62.13,-13.49,3.05
2026-08-03 13:21:04.535,-0.37,-0.07,0.65,62.13,-13.49,3.05
2026-08-03 13:21:04.535,-0.34,0.03,0.97,107.54,16.17,-30.27
2026-08-03 13:21:04.536,-0.34,0.03,0.97,107.54,16.17,-30.27
2026-08-03 13:21:04.536,-0.32,0.15,1.42,111.82,60.18,-59.08
2026-08-03 13:21:04.537,-0.32,0.15,1.42,111.82,60.18,-59.08
2026-08-03 13:21:04.539,-0.22,0.21,1.44,100.16,62.01,-70.13
2026-08-03 13:21:04.539,-0.22,0.21,1.44,81.12,28.14,-56.64
2026-08-03 13:21:04.540,-0.12,0.19,1.15,81.12,28.14,-56.64
2026-08-03 13:21:04.726,-0.11,0.13,0.99,43.46,10.93,-32.47
2026-08-03 13:21:04.728,-0.11,0.13,0.99,43.46,10.93,-32.47
2026-08-03 13:21:04.729,-0.14,0.12,1.03,6.59,20.02,-18.25
2026-08-03 13:21:04.729,-0.14,0.12,1.03,6.59,20.02,-18.25
2026-08-03 13:21:04.730,-0.12,0.16,1.04,-4.52,25.88,-17.4
2026-08-03 13:21:04.730,-0.12,0.16,1.04,-4.52,25.88,-17.4
2026-08-03 13:21:04.731,-0.08,0.18,0.93,-0.12,17.21,-17.58
2026-08-03 13:21:05.271,-0.08,0.18,0.93,-0.92,6.29,-10.19
2026-08-03 13:21:05.272,-0.07,0.17,0.81,-0.92,6.29,-10.19
2026-08-03 13:21:05.273,-0.09,0.15,0.79,-9.7,5.74,0.12
2026-08-03 13:21:05.276,-0.09,0.15,0.79,-9.7,5.74,0.12
2026-08-03 13:21:05.280,-0.12,0.16,0.85,-17.46,13.55,6.65
2026-08-03 13:21:05.281,-0.12,0.16,0.85,-17.46,13.55,6.65
2026-08-03 13:21:05.281,-0.13,0.17,0.9,-13.49,17.03,9.95
2026-08-03 13:21:05.672,-0.13,0.17,0.9,-13.49,17.03,9.95
2026-08-03 13:21:05.673,-0.11,0.21,0.91,4.39,11.84,13.73
2026-08-03 13:21:05.674,-0.1,0.28,0.92,20.51,9.83,23.13
2026-08-03 13:21:05.674,-0.1,0.28,0.92,20.51,9.83,23.13
2026-08-03 13:21:05.675,-0.12,0.33,0.95,25.27,17.7,41.2
2026-08-03 13:21:05.675,-0.12,0.33,0.95,25.27,17.7,41.2
2026-08-03 13:21:05.676,-0.18,0.39,1.06,22.58,33.94,62.32
2026-08-03 13:21:05.679,-0.18,0.39,1.06,22.58,33.94,62.32
2026-08-03 13:21:05.680,-0.25,0.47,1.21,7.87,58.29,79.77
2026-08-03 13:21:05.680,-0.25,0.47,1.21,-3.3,68.24,93.26
2026-08-03 13:21:05.681,-0.27,0.49,1.16,-3.3,68.24,93.26
2026-08-03 13:21:05.681,-0.25,0.45,0.9,3.42,49.5,104.68
2026-08-03 13:21:05.682,-0.25,0.45,0.9,3.42,49.5,104.68
2026-08-03 13:21:05.682,-0.21,0.42,0.66,4.52,31.49,111.21
2026-08-03 13:21:05.683,-0.21,0.42,0.66,4.52,31.49,111.21
2026-08-03 13:21:05.683,-0.2,0.47,0.63,-12.7,37.05,108.22
2026-08-03 13:21:05.684,-0.2,0.47,0.63,-12.7,37.05,108.22
2026-08-03 13:21:05.684,-0.22,0.58,0.8,-37.54,54.44,99.0
2026-08-03 13:21:05.684,-0.22,0.58,0.8,-57.43,60.42,88.07
2026-08-03 13:21:05.684,-0.24,0.66,0.98,-57.43,60.42,88.07
2026-08-03 13:21:05.684,-0.24,0.67,1.01,-59.75,40.41,76.66
2026-08-03 13:21:05.684,-0.24,0.67,1.01,-59.75,40.41,76.66
2026-08-03 13:21:05.685,-0.21,0.63,0.85,-44.37,2.81,68.73
2026-08-03 13:21:05.685,-0.21,0.63,0.85,-44.37,2.81,68.73
2026-08-03 13:21:05.686,-0.21,0.57,0.68,-28.5,-26.06,66.41
2026-08-03 13:21:05.686,-0.21,0.57,0.68,-28.5,-26.06,66.41
2026-08-03 13:21:05.686,-0.21,0.52,0.63,-21.36,-30.82,66.16
2026-08-03 13:21:05.688,-0.21,0.51,0.72,-19.65,-17.4,64.45
2026-08-03 13:21:05.688,-0.21,0.51,0.72,-19.65,-17.4,64.45
2026-08-03 13:21:05.689,-0.24,0.54,0.9,-24.23,2.93,63.84
2026-08-03 13:21:06.152,-0.24,0.54,0.9,-24.23,2.93,63.84
2026-08-03 13:21:06.153,-0.26,0.51,1.04,-36.87,19.17,67.26
2026-08-03 13:21:06.156,-0.26,0.51,1.04,-36.87,19.17,67.26
2026-08-03 13:21:06.157,-0.25,0.46,0.94,-40.53,12.7,71.47
2026-08-03 13:21:06.157,-0.25,0.46,0.94,-40.53,12.7,71.47
2026-08-03 13:21:06.158,-0.22,0.47,0.68,-27.71,-12.21,75.68
2026-08-03 13:21:06.158,-0.22,0.47,0.68,-27.71,-12.21,75.68
2026-08-03 13:21:06.159,-0.26,0.5,0.59,-28.99,-12.51,85.21
2026-08-03 13:21:06.160,-0.37,0.45,0.76,-51.09,21.06,96.31
2026-08-03 13:21:06.163,-0.37,0.45,0.76,-51.09,21.06,96.31
2026-08-03 13:21:06.163,-0.44,0.34,0.99,-59.14,49.56,92.96
2026-08-03 13:21:06.274,-0.44,0.34,0.99,-59.14,49.56,92.96
2026-08-03 13:21:06.275,-0.36,0.28,1.1,-38.21,51.21,67.69
2026-08-03 13:21:06.277,-0.36,0.28,1.1,-1.46,29.85,36.56
2026-08-03 13:21:06.279,-0.22,0.29,1.02,-1.46,29.85,36.56
2026-08-03 13:21:06.279,-0.16,0.31,0.91,20.63,8.67,23.01
2026-08-03 13:21:06.280,-0.16,0.31,0.91,20.63,8.67,23.01
2026-08-03 13:21:06.280,-0.19,0.29,0.88,11.66,5.0,27.22
2026-08-03 13:21:06.282,-0.19,0.29,0.88,11.66,5.0,27.22
2026-08-03 13:21:06.282,-0.26,0.29,0.87,-6.96,5.74,32.23
2026-08-03 13:21:06.282,-0.26,0.29,0.87,-6.96,5.74,32.23
2026-08-03 13:21:06.282,-0.3,0.28,0.88,-17.88,3.48,31.01
2026-08-03 13:21:06.283,-0.3,0.28,0.88,-18.8,0.98,22.28
2026-08-03 13:21:06.283,-0.3,0.26,0.9,-18.8,0.98,22.28
2026-08-03 13:21:06.283,-0.28,0.31,0.91,-12.15,-4.46,7.32
2026-08-03 13:21:06.283,-0.28,0.31,0.91,-12.15,-4.46,7.32
2026-08-03 13:21:06.284,-0.27,0.37,0.88,-10.8,-9.7,-1.89
2026-08-03 13:21:06.284,-0.27,0.37,0.88,-10.8,-9.7,-1.89
2026-08-03 13:21:06.285,-0.33,0.36,0.82,-19.41,-8.73,0.31
2026-08-03 13:21:06.455,-0.33,0.36,0.82,-19.41,-8.73,0.31
2026-08-03 13:21:06.455,-0.39,0.3,0.81,-26.61,0.31,1.77
2026-08-03 13:21:06.456,-0.39,0.3,0.81,-26.61,0.31,1.77
2026-08-03 13:21:06.457,-0.36,0.24,0.81,-23.44,7.57,-7.2
2026-08-03 13:21:06.457,-0.26,0.2,0.75,-10.01,2.62,-19.96
2026-08-03 13:21:06.460,-0.26,0.2,0.75,-10.01,2.62,-19.96
2026-08-03 13:21:06.460,-0.16,0.18,0.71,5.55,-1.83,-26.43
2026-08-03 13:21:06.460,-0.16,0.18,0.71,5.55,-1.83,-26.43
2026-08-03 13:21:06.462,-0.13,0.22,0.83,11.54,12.33,-23.5
2026-08-03 13:21:06.463,-0.13,0.22,0.83,11.54,12.33,-23.5
2026-08-03 13:21:06.464,-0.22,0.23,1.09,0.43,43.09,-12.76
2026-08-03 13:21:06.464,-0.22,0.23,1.09,0.43,43.09,-12.76
2026-08-03 13:21:06.464,-0.33,0.17,1.24,-13.31,59.88,-3.85
2026-08-03 13:21:06.512,-0.35,0.13,1.18,-9.34,42.54,-7.39
2026-08-03 13:21:06.513,-0.35,0.13,1.18,-9.34,42.54,-7.39
2026-08-03 13:21:06.571,-0.31,0.12,1.06,2.14,15.44,-18.31
2026-08-03 13:21:06.572,-0.31,0.12,1.06,2.14,15.44,-18.31
2026-08-03 13:21:06.573,-0.26,0.08,0.95,9.7,-3.36,-26.06
2026-08-03 13:21:06.754,-0.26,0.08,0.95,9.7,-3.36,-26.06
2026-08-03 13:21:06.754,-0.22,0.04,0.83,21.85,-18.86,-30.52
2026-08-03 13:21:06.755,-0.22,0.04,0.83,21.85,-18.86,-30.52
2026-08-03 13:21:06.755,-0.18,0.03,0.81,35.83,-23.07,-34.0
2026-08-03 13:21:06.756,-0.18,0.05,0.94,40.28,-11.96,-35.95
2026-08-03 13:21:06.757,-0.18,0.05,0.94,40.28,-11.96,-35.95
2026-08-03 13:21:06.757,-0.18,0.07,1.06,42.36,-7.45,-36.13
2026-08-03 13:21:06.758,-0.18,0.07,1.06,42.36,-7.45,-36.13
2026-08-03 13:21:06.813,-0.14,0.11,1.04,49.56,-20.75,-35.52
2026-08-03 13:21:06.813,-0.08,0.16,0.96,48.83,-29.91,-32.29
2026-08-03 13:21:06.814,-0.08,0.16,0.96,48.83,-29.91,-32.29
2026-08-03 13:21:06.872,-0.07,0.21,0.96,29.66,-16.24,-21.97
2026-08-03 13:21:06.872,-0.07,0.21,0.96,29.66,-16.24,-21.97
2026-08-03 13:21:06.934,-0.14,0.24,1.04,-2.2,13.12,-4.33
2026-08-03 13:21:06.935,-0.14,0.24,1.04,-2.2,13.12,-4.33
2026-08-03 13:21:06.935,-0.24,0.23,1.11,-32.29,37.9,15.75
2026-08-03 13:21:06.993,-0.24,0.23,1.11,-32.29,37.9,15.75
2026-08-03 13:21:06.994,-0.3,0.2,1.07,-43.03,39.0,30.64
2026-08-03 13:21:07.064,-0.33,0.2,0.96,-35.16,21.0,37.6
2026-08-03 13:21:07.065,-0.33,0.2,0.96,-35.16,21.0,37.6
2026-08-03 13:21:07.065,-0.38,0.2,0.9,-30.94,10.25,39.12
2026-08-03 13:21:07.353,-0.38,0.2,0.9,-30.94,10.25,39.12
2026-08-03 13:21:07.354,-0.45,0.19,0.94,-36.99,14.4,33.63
2026-08-03 13:21:07.355,-0.45,0.19,0.94,-36.99,14.4,33.63
2026-08-03 13:21:07.355,-0.45,0.22,0.92,-36.99,12.94,18.13
2026-08-03 13:21:07.355,-0.4,0.29,0.83,-23.8,-2.38,0.85
2026-08-03 13:21:07.356,-0.4,0.29,0.83,-23.8,-2.38,0.85
2026-08-03 13:21:07.356,-0.36,0.34,0.77,-14.16,-13.92,-5.8
2026-08-03 13:21:07.412,-0.36,0.34,0.77,-14.16,-13.92,-5.8
2026-08-03 13:21:07.413,-0.35,0.35,0.73,-15.2,-15.32,-1.95
2026-08-03 13:21:07.413,-0.35,0.35,0.73,-15.2,-15.32,-1.95
2026-08-03 13:21:07.413,-0.34,0.35,0.69,-17.09,-15.01,5.43
2026-08-03 13:21:07.413,-0.34,0.35,0.69,-17.09,-15.01,5.43
2026-08-03 13:21:07.414,-0.36,0.33,0.71,-18.13,-11.23,15.38
2026-08-03 13:21:07.713,-0.38,0.28,0.81,-19.47,-1.65,25.02
2026-08-03 13:21:07.714,-0.38,0.28,0.81,-19.47,-1.65,25.02
2026-08-03 13:21:07.714,-0.38,0.25,0.92,-19.96,6.47,29.54
2026-08-03 13:21:07.715,-0.38,0.25,0.92,-19.96,6.47,29.54
2026-08-03 13:21:07.738,-0.35,0.25,1.0,-18.68,3.54,33.39
2026-08-03 13:21:07.742,-0.35,0.25,1.0,-18.68,3.54,33.39
2026-08-03 13:21:07.742,-0.33,0.25,1.05,-15.5,-7.81,42.6
2026-08-03 13:21:07.743,-0.33,0.25,1.05,-10.86,-21.3,53.53
2026-08-03 13:21:07.743,-0.31,0.2,1.11,-10.86,-21.3,53.53
2026-08-03 13:21:07.743,-0.23,0.14,1.13,1.34,-41.14,59.69
2026-08-03 13:21:07.744,-0.23,0.14,1.13,1.34,-41.14,59.69
2026-08-03 13:21:07.744,-0.1,0.11,1.11,19.41,-63.35,61.4
2026-08-03 13:21:07.744,-0.1,0.11,1.11,19.41,-63.35,61.4
2026-08-03 13:21:07.744,0.01,0.1,1.16,25.02,-68.42,63.9
2026-08-03 13:21:07.745,0.01,0.1,1.16,25.02,-68.42,63.9
2026-08-03 13:21:07.745,0.07,0.06,1.25,8.54,-54.14,67.87
2026-08-03 13:21:07.745,0.07,0.06,1.25,8.54,-54.14,67.87
2026-08-03 13:21:07.784,0.12,0.03,1.23,-9.16,-46.51,67.63
2026-08-03 13:21:07.784,0.19,0.04,1.1,-15.75,-52.61,62.19
2026-08-03 13:21:08.193,0.19,0.04,1.1,-15.75,-52.61,62.19
2026-08-03 13:21:08.195,0.24,0.05,0.96,-21.55,-54.69,57.31
2026-08-03 13:21:08.195,0.24,0.05,0.96,-21.55,-54.69,57.31
2026-08-03 13:21:08.196,0.28,0.08,0.86,-25.7,-47.49,54.63
2026-08-03 13:21:08.197,0.28,0.08,0.86,-25.7,-47.49,54.63
2026-08-03 13:21:08.197,0.28,0.1,0.77,-26.98,-36.87,55.85
2026-08-03 13:21:08.375,0.24,0.08,0.67,-30.64,-25.94,62.87
2026-08-03 13:21:08.376,0.24,0.08,0.67,-30.64,-25.94,62.87
2026-08-03 13:21:08.378,0.17,0.02,0.59,-38.64,-10.8,66.65
2026-08-03 13:21:08.379,0.17,0.02,0.59,-38.64,-10.8,66.65
2026-08-03 13:21:08.380,0.07,-0.04,0.52,-49.5,10.56,57.74
2026-08-03 13:21:08.381,0.07,-0.04,0.52,-49.5,10.56,57.74
2026-08-03 13:21:08.382,-0.08,-0.17,0.48,-60.97,42.3,38.64
2026-08-03 13:21:08.382,-0.08,-0.17,0.48,-74.83,96.5,10.99
2026-08-03 13:21:08.382,-0.33,-0.38,0.49,-74.83,96.5,10.99
2026-08-03 13:21:08.446,-0.7,-0.46,0.53,-74.46,165.04,-36.68
2026-08-03 13:21:08.446,-0.7,-0.46,0.53,-74.46,165.04,-36.68
2026-08-03 13:21:08.447,-1.09,-0.4,0.7,-49.8,232.3,-98.08
2026-08-03 13:21:08.447,-1.09,-0.4,0.7,-49.8,232.3,-98.08
2026-08-03 13:21:08.447,-1.36,-0.37,0.73,-3.36,272.34,-155.94
2026-08-03 13:21:08.447,-1.36,-0.37,0.73,-3.36,272.34,-155.94
2026-08-03 13:21:08.448,-1.36,-0.37,0.73,-3.36,272.34,-155.94
2026-08-03 13:21:08.449,-1.36,-0.37,0.73,-3.36,272.34,-155.94
2026-08-03 13:21:08.449,-1.25,-0.18,0.55,98.63,238.65,-235.96
2026-08-03 13:21:08.449,-1.02,-0.16,0.56,141.3,173.65,-195.62
2026-08-03 13:21:08.450,-1.02,-0.16,0.56,141.3,173.65,-195.62
2026-08-03 13:21:08.450,-0.92,-0.24,0.57,172.73,102.17,-136.17
2026-08-03 13:21:08.451,-0.92,-0.24,0.57,172.73,102.17,-136.17
2026-08-03 13:21:08.451,-0.88,-0.18,0.57,167.42,65.67,-118.23
2026-08-03 13:21:08.451,-0.88,-0.18,0.57,167.42,65.67,-118.23
2026-08-03 13:21:08.491,-0.77,0.37,0.95,128.54,57.74,-131.47
2026-08-03 13:21:08.492,-0.67,0.59,0.99,62.44,51.39,-121.03
2026-08-03 13:21:08.912,-0.67,0.59,0.99,62.44,51.39,-121.03
2026-08-03 13:21:08.915,-0.71,0.21,0.55,29.17,73.97,-70.5
2026-08-03 13:21:08.915,-0.71,0.21,0.55,29.17,73.97,-70.5
2026-08-03 13:21:08.916,-0.84,-0.29,0.69,34.24,107.85,-23.56
2026-08-03 13:21:08.916,-0.84,-0.29,0.69,34.24,107.85,-23.56
2026-08-03 13:21:08.917,-0.87,-0.8,0.88,-1.89,101.32,-29.54
2026-08-03 13:21:08.918,-0.71,-0.65,0.57,-31.31,47.67,-76.05
2026-08-03 13:21:08.918,-0.71,-0.65,0.57,-31.31,47.67,-76.05
2026-08-03 13:21:08.919,-0.62,-0.26,0.31,-15.93,-0.49,-93.75
2026-08-03 13:21:08.919,-0.62,-0.26,0.31,-15.93,-0.49,-93.75
2026-08-03 13:21:08.921,-0.67,-0.31,0.36,-8.12,14.47,-60.91
2026-08-03 13:21:08.922,-0.73,-0.51,0.44,7.75,45.53,-21.73
2026-08-03 13:21:08.922,-0.73,-0.51,0.44,7.75,45.53,-21.73
2026-08-03 13:21:08.924,-0.71,-0.51,0.47,53.77,52.61,0.92
2026-08-03 13:21:08.926,-0.71,-0.51,0.47,53.77,52.61,0.92
2026-08-03 13:21:09.032,-0.61,-0.26,0.45,92.71,42.79,3.97
2026-08-03 13:21:09.039,-0.61,-0.26,0.45,92.71,42.79,3.97
2026-08-03 13:21:09.039,-0.56,-0.09,0.42,71.35,43.33,-5.0
2026-08-03 13:21:09.040,-0.56,-0.09,0.42,71.35,43.33,-5.0
2026-08-03 13:21:09.692,-0.55,-0.14,0.42,9.22,60.18,-6.47
2026-08-03 13:21:09.692,-0.55,-0.28,0.54,-4.58,66.41,16.97
2026-08-03 13:21:09.693,-0.55,-0.28,0.54,-4.58,66.41,16.97
2026-08-03 13:21:09.706,-0.68,-0.55,0.56,36.07,45.96,53.71
2026-08-03 13:21:09.707,-0.68,-0.55,0.56,36.07,45.96,53.71
2026-08-03 13:21:09.707,-0.79,-0.69,0.49,117.0,14.71,62.38
2026-08-03 13:21:09.708,-0.79,-0.69,0.49,117.0,14.71,62.38
2026-08-03 13:21:09.709,-0.77,-0.52,0.75,164.98,8.42,30.03
2026-08-03 13:21:09.709,-0.77,-0.52,0.75,129.58,15.38,-5.07
2026-08-03 13:21:09.709,-0.68,-0.28,1.02,129.58,15.38,-5.07
2026-08-03 13:21:09.709,-0.61,-0.13,1.09,93.32,-0.49,-8.3
2026-08-03 13:21:09.710,-0.61,-0.13,1.09,93.32,-0.49,-8.3
2026-08-03 13:21:09.710,-0.63,-0.11,1.05,66.77,-30.4,14.71
2026-08-03 13:21:09.710,-0.63,-0.11,1.05,66.77,-30.4,14.71
2026-08-03 13:21:09.710,-0.69,-0.15,0.96,26.49,-59.08,43.09
2026-08-03 13:21:09.710,-0.69,-0.15,0.96,26.49,-59.08,43.09
2026-08-03 13:21:09.710,-0.71,-0.21,0.87,-1.83,-83.07,63.17
2026-08-03 13:21:09.710,-0.71,-0.21,0.87,-1.83,-83.07,63.17
2026-08-03 13:21:09.992,-0.71,-0.21,0.87,-1.83,-83.07,63.17
2026-08-03 13:21:09.994,-0.71,-0.21,0.87,-1.83,-83.07,63.17
2026-08-03 13:21:09.995,-0.67,-0.0,0.8,-11.9,-105.65,75.99
2026-08-03 13:21:09.998,-0.67,-0.0,0.8,-11.9,-105.65,75.99
2026-08-03 13:21:09.998,-0.75,0.07,1.02,-47.49,-80.99,78.0
2026-08-03 13:21:10.414,-0.74,0.12,1.1,-64.88,-60.18,65.55
2026-08-03 13:21:10.414,-0.74,0.12,1.1,-64.88,-60.18,65.55
2026-08-03 13:21:10.414,-0.61,0.25,0.92,-50.66,-65.31,47.36
2026-08-03 13:21:10.421,-0.61,0.25,0.92,-50.66,-65.31,47.36
2026-08-03 13:21:10.436,-0.52,0.3,0.78,-47.12,-70.86,52.25
2026-08-03 13:21:10.442,-0.52,0.3,0.78,-47.12,-70.86,52.25
2026-08-03 13:21:10.446,-0.49,0.21,0.75,-58.59,-63.23,74.95
2026-08-03 13:21:10.446,-0.49,0.21,0.75,-58.59,-63.23,74.95
2026-08-03 13:21:10.447,-0.44,0.16,0.67,-56.52,-56.64,87.89
2026-08-03 13:21:10.447,-0.4,0.13,0.58,-53.28,-46.87,88.2
2026-08-03 13:21:10.447,-0.4,0.13,0.58,-53.28,-46.87,88.2
2026-08-03 13:21:10.449,-0.41,0.06,0.56,-65.0,-26.49,83.19
2026-08-03 13:21:10.449,-0.41,0.06,0.56,-65.0,-26.49,83.19
2026-08-03 13:21:10.449,-0.44,-0.0,0.54,-67.38,-12.63,70.56
2026-08-03 13:21:10.449,-0.44,-0.0,0.54,-67.38,-12.63,70.56
2026-08-03 13:21:10.450,-0.48,-0.0,0.56,-45.35,-6.59,47.55
2026-08-03 13:21:10.450,-0.55,0.06,0.71,-22.95,10.01,17.82
2026-08-03 13:21:10.450,-0.55,0.06,0.71,-22.95,10.01,17.82
2026-08-03 13:21:10.450,-0.64,0.12,0.88,-12.33,31.43,-11.17
2026-08-03 13:21:10.450,-0.64,0.12,0.88,-12.33,31.43,-11.17
2026-08-03 13:21:10.451,-0.66,0.18,0.94,4.82,37.96,-34.85
2026-08-03 13:21:10.452,-0.66,0.18,0.94,4.82,37.96,-34.85
2026-08-03 13:21:10.452,-0.64,0.23,0.91,30.46,31.68,-47.36
2026-08-03 13:21:10.455,-0.64,0.23,0.91,30.46,31.68,-47.36
2026-08-03 13:21:10.456,-0.64,0.24,0.94,45.84,32.59,-42.79
2026-08-03 13:21:10.456,-0.63,0.19,1.05,43.76,44.49,-23.19
2026-08-03 13:21:10.456,-0.63,0.19,1.05,43.76,44.49,-23.19
2026-08-03 13:21:10.471,-0.59,0.1,1.03,29.72,44.74,7.81
2026-08-03 13:21:10.472,-0.59,0.1,1.03,29.72,44.74,7.81
2026-08-03 13:21:11.071,-0.57,-0.02,0.81,4.52,29.79,45.78
2026-08-03 13:21:11.072,-0.57,-0.02,0.81,4.52,29.79,45.78
2026-08-03 13:21:11.072,-0.58,-0.15,0.63,-27.1,24.84,78.0
2026-08-03 13:21:11.072,-0.58,-0.15,0.63,-27.1,24.84,78.0
2026-08-03 13:21:11.072,-0.57,-0.25,0.64,-41.69,39.98,82.28
2026-08-03 13:21:11.072,-0.57,-0.25,0.64,-41.69,39.98,82.28
2026-08-03 13:21:11.075,-0.49,-0.21,0.83,-27.89,53.16,48.71
2026-08-03 13:21:11.075,-0.38,-0.03,1.05,16.17,29.79,0.79
2026-08-03 13:21:11.075,-0.38,-0.03,1.05,16.17,29.79,0.79
2026-08-03 13:21:11.075,-0.25,0.23,1.14,84.41,-35.83,-27.22
2026-08-03 13:21:11.075,-0.25,0.23,1.14,84.41,-35.83,-27.22
2026-08-03 13:21:11.077,-0.14,0.5,1.11,121.89,-95.46,-18.86
2026-08-03 13:21:11.077,-0.14,0.5,1.11,121.89,-95.46,-18.86
2026-08-03 13:21:11.077,-0.09,0.61,1.04,73.67,-98.94,17.4
2026-08-03 13:21:11.079,-0.09,0.61,1.04,73.67,-98.94,17.4
2026-08-03 13:21:11.079,-0.09,0.56,0.91,-16.05,-68.48,58.53
2026-08-03 13:21:11.079,-0.1,0.52,0.79,-73.55,-49.93,91.25
2026-08-03 13:21:11.079,-0.1,0.52,0.79,-73.55,-49.93,91.25
2026-08-03 13:21:11.081,-0.16,0.49,0.8,-94.12,-38.88,108.22
2026-08-03 13:21:11.081,-0.16,0.49,0.8,-94.12,-38.88,108.22
2026-08-03 13:21:11.081,-0.22,0.49,0.88,-80.99,-24.9,102.36
2026-08-03 13:21:11.082,-0.22,0.49,0.88,-80.99,-24.9,102.36
2026-08-03 13:21:11.082,-0.19,0.6,0.99,-39.92,-13.92,89.17
2026-08-03 13:21:11.085,-0.15,0.75,1.09,-8.85,-5.19,91.98
2026-08-03 13:21:11.085,-0.15,0.75,1.09,-8.85,-5.19,91.98
2026-08-03 13:21:11.086,-0.17,0.83,1.12,-5.25,0.18,118.47
2026-08-03 13:21:11.086,-0.17,0.83,1.12,-5.25,0.18,118.47
2026-08-03 13:21:11.086,-0.24,0.85,1.18,-18.62,10.19,152.59
2026-08-03 13:21:11.086,-0.24,0.85,1.18,-18.62,10.19,152.59
2026-08-03 13:21:11.087,-0.39,0.78,1.26,-46.94,28.38,167.42
2026-08-03 13:21:11.087,-0.39,0.78,1.26,-46.94,28.38,167.42
2026-08-03 13:21:11.087,-0.39,0.78,1.26,-46.94,28.38,167.42
2026-08-03 13:21:11.088,-0.39,0.78,1.26,-46.94,28.38,167.42
2026-08-03 13:21:11.088,-0.44,0.4,0.79,-63.29,-0.37,139.4
2026-08-03 13:21:11.089,-0.44,0.4,0.79,-51.76,-29.97,122.92
2026-08-03 13:21:11.090,-0.34,0.32,0.48,-51.76,-29.97,122.92
2026-08-03 13:21:11.091,-0.29,0.27,0.35,-57.92,-39.0,115.72
2026-08-03 13:21:11.091,-0.29,0.27,0.35,-57.92,-39.0,115.72
2026-08-03 13:21:11.091,-0.32,0.23,0.37,-75.5,-28.44,110.47
2026-08-03 13:21:11.092,-0.32,0.23,0.37,-75.5,-28.44,110.47
2026-08-03 13:21:11.101,-0.41,0.19,0.5,-95.15,-2.93,96.56
2026-08-03 13:21:11.101,-0.41,0.19,0.5,-95.15,-2.93,96.56
2026-08-03 13:21:11.101,-0.48,0.13,0.66,-97.72,26.49,67.63
2026-08-03 13:21:11.101,-0.48,0.13,0.66,-57.19,43.33,26.06
2026-08-03 13:21:11.102,-0.47,0.13,0.75,-57.19,43.33,26.06
2026-08-03 13:21:11.192,-0.42,0.19,0.83,14.89,49.87,-12.33
2026-08-03 13:21:11.850,-0.42,0.19,0.83,14.89,49.87,-12.33
2026-08-03 13:21:11.851,-0.39,0.24,0.96,74.52,55.85,-33.75
2026-08-03 13:21:11.852,-0.39,0.24,0.96,74.52,55.85,-33.75
2026-08-03 13:21:11.852,-0.36,0.3,1.12,100.16,58.59,-40.95
2026-08-03 13:21:11.853,-0.36,0.31,1.23,88.38,57.25,-36.13
2026-08-03 13:21:11.854,-0.36,0.31,1.23,88.38,57.25,-36.13
2026-08-03 13:21:11.855,-0.33,0.26,1.25,62.01,49.19,-20.39
2026-08-03 13:21:11.857,-0.33,0.26,1.25,62.01,49.19,-20.39
2026-08-03 13:21:11.857,-0.24,0.26,1.2,52.31,31.92,-3.48
2026-08-03 13:21:12.030,-0.24,0.26,1.2,52.31,31.92,-3.48
2026-08-03 13:21:12.150,-0.16,0.27,1.07,46.02,15.99,11.78
2026-08-03 13:21:12.543,-0.16,0.27,1.07,46.02,15.99,11.78
2026-08-03 13:21:12.544,-0.12,0.18,0.88,26.37,8.0,29.24
2026-08-03 13:21:12.544,-0.13,0.04,0.68,-3.66,8.42,44.19
2026-08-03 13:21:12.544,-0.13,0.04,0.68,-3.66,8.42,44.19
2026-08-03 13:21:12.544,-0.14,-0.08,0.54,-32.04,12.45,48.46
2026-08-03 13:21:12.545,-0.14,-0.08,0.54,-32.04,12.45,48.46
2026-08-03 13:21:12.545,-0.11,-0.1,0.45,-46.08,11.29,43.4
2026-08-03 13:21:12.546,-0.11,-0.1,0.45,-46.08,11.29,43.4
2026-08-03 13:21:12.546,-0.06,-0.08,0.48,-54.44,9.7,36.74
2026-08-03 13:21:12.546,-0.06,-0.08,0.48,-54.44,9.7,36.74
2026-08-03 13:21:12.547,-0.06,-0.05,0.65,-61.77,18.31,33.26
2026-08-03 13:21:12.547,-0.07,0.08,1.03,-48.71,33.26,33.2
2026-08-03 13:21:12.547,-0.07,0.08,1.03,-48.71,33.26,33.2
2026-08-03 13:21:12.547,-0.08,0.25,1.49,-24.41,40.04,41.14
2026-08-03 13:21:12.548,-0.08,0.25,1.49,-24.41,40.04,41.14
2026-08-03 13:21:12.548,-0.01,0.33,1.65,-3.72,18.31,58.78
2026-08-03 13:21:12.549,-0.01,0.33,1.65,-3.72,18.31,58.78
2026-08-03 13:21:12.550,0.08,0.49,1.61,2.14,-25.09,83.62
2026-08-03 13:21:12.550,0.08,0.49,1.61,2.14,-25.09,83.62
2026-08-03 13:21:12.550,-0.08,0.66,1.85,-53.04,-43.52,117.61
2026-08-03 13:21:12.551,-0.08,0.66,1.85,-133.42,-42.54,148.68
2026-08-03 13:21:12.552,-0.5,0.67,2.2,-133.42,-42.54,148.68
2026-08-03 13:21:12.552,-0.76,0.57,2.06,-139.53,-67.44,153.99
2026-08-03 13:21:12.554,-0.76,0.57,2.06,-139.53,-67.44,153.99
2026-08-03 13:21:12.555,-0.67,0.48,1.46,-73.61,-93.81,128.36
2026-08-03 13:21:12.555,-0.67,0.48,1.46,-73.61,-93.81,128.36
2026-08-03 13:21:12.556,-0.43,0.35,0.83,-12.33,-71.59,89.42
2026-08-03 13:21:12.631,-0.43,0.35,0.83,-12.33,-71.59,89.42
2026-08-03 13:21:12.632,-0.27,0.15,0.3,13.98,-16.97,58.23
2026-08-03 13:21:12.633,-0.26,-0.02,-0.12,28.08,18.49,42.36
2026-08-03 13:21:12.634,-0.26,-0.02,-0.12,28.08,18.49,42.36
