Timestamp,AccX,AccY,AccZ,GyroX,GyroY,GyroZ
2026-07-27 13:53:01.420,-0.12,0.14,0.86,193.73,-188.17,93.08
2026-07-27 13:53:01.447,0.09,0.25,0.82,160.28,-145.26,78.86
2026-07-27 13:53:01.461,0.09,0.25,0.82,77.39,-80.87,42.54
2026-07-27 13:53:01.491,0.18,0.27,0.9,77.39,-80.87,42.54
2026-07-27 13:53:01.516,0.19,0.25,0.97,3.66,-32.65,12.63
2026-07-27 13:53:01.530,0.19,0.25,0.97,3.66,-32.65,12.63
2026-07-27 13:53:01.557,0.15,0.25,0.96,-36.62,-23.19,1.53
2026-07-27 13:53:01.595,0.1,0.22,0.91,-57.31,-19.71,2.87
2026-07-27 13:53:01.613,0.1,0.22,0.91,-57.31,-19.71,2.87
2026-07-27 13:53:01.640,0.08,0.17,0.89,-65.61,1.04,5.25
2026-07-27 13:53:01.653,0.08,0.17,0.89,-65.61,1.04,5.25
2026-07-27 13:53:01.680,0.12,0.15,0.89,-47.55,17.58,7.69
2026-07-27 13:53:01.709,0.16,0.15,0.91,-9.83,12.88,28.87
2026-07-27 13:53:01.721,0.16,0.15,0.91,-9.83,12.88,28.87
2026-07-27 13:53:01.749,0.2,0.13,0.93,24.23,-15.08,65.37
2026-07-27 13:53:01.782,0.2,0.13,0.93,24.23,-15.08,65.37
2026-07-27 13:53:01.804,0.27,0.13,1.0,46.63,-51.09,83.62
2026-07-27 13:53:01.832,0.32,0.15,1.08,46.45,-61.16,85.45
2026-07-27 13:53:01.846,0.32,0.15,1.08,46.45,-61.16,85.45
2026-07-27 13:53:01.874,0.33,0.13,1.08,47.79,-41.5,114.87
2026-07-27 13:53:01.902,0.33,0.13,1.08,47.79,-41.5,114.87
2026-07-27 13:53:01.915,0.3,0.08,1.03,52.25,3.23,145.57
2026-07-27 13:53:01.942,0.25,0.06,1.09,18.13,72.88,118.77
2026-07-27 13:53:01.971,0.25,0.06,1.09,18.13,72.88,118.77
2026-07-27 13:53:01.997,0.16,0.1,1.33,-26.31,158.94,68.97
2026-07-27 13:53:02.024,0.01,0.18,1.46,-27.65,206.73,77.09
2026-07-27 13:53:02.038,0.01,0.18,1.46,-27.65,206.73,77.09
2026-07-27 13:53:02.066,-0.14,0.22,1.3,-14.59,186.4,134.03
2026-07-27 13:53:02.093,-0.14,0.22,1.3,-14.59,186.4,134.03
2026-07-27 13:53:02.120,-0.26,0.24,1.09,-20.81,130.0,163.27
2026-07-27 13:53:02.155,-0.31,0.28,0.94,-20.08,46.14,149.78
2026-07-27 13:53:02.162,-0.31,0.28,0.94,-20.08,46.14,149.78
2026-07-27 13:53:02.189,-0.32,0.34,0.89,10.31,-36.07,107.24
2026-07-27 13:53:02.203,-0.32,0.34,0.89,10.31,-36.07,107.24
2026-07-27 13:53:02.231,-0.18,0.42,0.95,57.13,-99.18,53.77
2026-07-27 13:53:02.258,0.03,0.45,0.99,79.41,-159.06,28.14
2026-07-27 13:53:02.286,0.03,0.45,0.99,79.41,-159.06,28.14
2026-07-27 13:53:02.313,0.27,0.4,0.85,47.91,-277.34,61.89
2026-07-27 13:53:02.349,0.74,0.25,0.63,-34.48,-460.08,171.08
2026-07-27 13:53:02.396,0.74,0.25,0.63,-34.48,-460.08,171.08
2026-07-27 13:53:02.396,1.06,0.13,0.48,-81.05,-444.09,176.94
2026-07-27 13:53:02.423,0.95,0.15,0.46,-75.93,-161.93,-27.83
2026-07-27 13:53:02.446,0.95,0.15,0.46,-75.93,-161.93,-27.83
2026-07-27 13:53:02.479,0.72,0.18,0.55,-93.87,99.55,-214.48
2026-07-27 13:53:02.479,0.72,0.18,0.55,-93.87,99.55,-214.48
2026-07-27 13:53:02.505,0.48,0.14,0.73,-147.4,194.89,-228.27
2026-07-27 13:53:02.548,0.39,0.04,0.78,-181.4,142.52,-126.34
2026-07-27 13:53:02.560,0.39,0.04,0.78,-181.4,142.52,-126.34
2026-07-27 13:53:02.602,0.37,-0.03,0.6,-146.55,49.8,-26.79
2026-07-27 13:53:02.602,0.37,-0.03,0.6,-86.91,25.7,8.24
2026-07-27 13:53:02.657,0.32,-0.01,0.4,-86.91,25.7,8.24
2026-07-27 13:53:02.658,0.3,0.09,0.36,-57.62,67.99,2.62
2026-07-27 13:53:02.748,0.3,0.09,0.36,-57.62,67.99,2.62
2026-07-27 13:53:02.749,0.36,0.13,0.52,-55.73,101.56,-13.85
2026-07-27 13:53:02.749,0.51,0.12,0.79,-37.6,81.3,-49.87
2026-07-27 13:53:02.752,0.51,0.12,0.79,-37.6,81.3,-49.87
2026-07-27 13:53:02.792,0.66,0.11,0.96,-4.94,29.3,-93.69
2026-07-27 13:53:02.792,0.66,0.11,0.96,-4.94,29.3,-93.69
2026-07-27 13:53:02.837,0.7,0.13,0.98,5.62,-24.9,-112.18
2026-07-27 13:53:02.880,0.62,0.16,0.94,-5.86,-58.11,-95.52
2026-07-27 13:53:02.880,0.62,0.16,0.94,-5.86,-58.11,-95.52
2026-07-27 13:53:02.967,0.48,0.2,0.89,-27.89,-58.35,-61.16
2026-07-27 13:53:02.968,0.48,0.2,0.89,-27.89,-58.35,-61.16
2026-07-27 13:53:02.968,0.32,0.24,0.84,-54.08,-36.44,-39.86
2026-07-27 13:53:02.968,0.23,0.29,0.84,-65.12,-9.4,-47.79
2026-07-27 13:53:03.056,0.23,0.29,0.84,-65.12,-9.4,-47.79
2026-07-27 13:53:03.056,0.27,0.35,0.91,-48.65,12.88,-88.62
2026-07-27 13:53:03.056,0.27,0.35,0.91,-48.65,12.88,-88.62
2026-07-27 13:53:03.056,0.42,0.39,0.91,-27.28,17.46,-166.99
2026-07-27 13:53:03.146,0.53,0.46,0.8,-20.26,-15.01,-270.51
2026-07-27 13:53:03.146,0.53,0.46,0.8,-20.26,-15.01,-270.51
2026-07-27 13:53:03.146,0.55,0.6,0.73,-39.31,-49.26,-336.79
2026-07-27 13:53:03.146,0.55,0.6,0.73,-39.31,-49.26,-336.79
2026-07-27 13:53:03.185,0.53,0.37,0.74,-154.11,-27.65,-259.46
2026-07-27 13:53:03.272,0.51,-0.31,0.84,-308.65,59.75,-85.69
2026-07-27 13:53:03.273,0.51,-0.31,0.84,-308.65,59.75,-85.69
2026-07-27 13:53:03.275,0.55,-0.72,0.94,-263.49,163.09,-17.82
2026-07-27 13:53:03.275,0.55,-0.72,0.94,-263.49,163.09,-17.82
2026-07-27 13:53:03.317,0.56,-0.69,0.92,-58.9,193.54,-59.88
2026-07-27 13:53:03.406,0.44,-0.47,0.77,70.92,105.47,-89.97
2026-07-27 13:53:03.406,0.44,-0.47,0.77,70.92,105.47,-89.97
2026-07-27 13:53:03.407,0.3,-0.24,0.66,106.45,-48.77,-78.25
2026-07-27 13:53:03.407,0.3,-0.24,0.66,106.45,-48.77,-78.25
2026-07-27 13:53:03.447,0.27,-0.01,0.73,126.59,-164.25,-35.58
2026-07-27 13:53:03.492,0.27,0.15,0.9,127.87,-167.79,9.28
2026-07-27 13:53:03.493,0.27,0.15,0.9,127.87,-167.79,9.28
2026-07-27 13:53:03.493,0.21,0.13,1.01,83.5,-81.79,30.09
2026-07-27 13:53:03.535,0.21,0.13,1.01,83.5,-81.79,30.09
2026-07-27 13:53:03.536,0.19,0.05,1.02,44.25,-4.46,18.62
2026-07-27 13:53:03.580,0.29,0.03,0.94,46.81,15.08,-10.8
2026-07-27 13:53:03.580,0.29,0.03,0.94,46.81,15.08,-10.8
2026-07-27 13:53:03.622,0.42,0.06,0.87,58.11,2.01,-20.69
2026-07-27 13:53:03.623,0.42,0.06,0.87,58.11,2.01,-20.69
2026-07-27 13:53:03.667,0.44,0.05,0.85,45.78,-10.19,0.67
2026-07-27 13:53:03.710,0.42,0.05,0.87,11.35,-13.98,17.94
2026-07-27 13:53:03.710,0.42,0.05,0.87,11.35,-13.98,17.94
2026-07-27 13:53:03.842,0.39,0.14,0.85,-41.75,-7.87,7.14
2026-07-27 13:53:03.842,0.39,0.14,0.85,-41.75,-7.87,7.14
2026-07-27 13:53:03.843,0.25,0.09,0.87,-176.82,24.11,8.12
2026-07-27 13:53:03.843,0.03,-0.39,1.06,-398.62,88.01,47.0
2026-07-27 13:53:03.845,0.03,-0.39,1.06,-398.62,88.01,47.0
2026-07-27 13:53:03.846,-0.12,-0.69,1.34,-366.46,170.47,59.27
2026-07-27 13:53:03.887,-0.12,-0.69,1.34,-366.46,170.47,59.27
2026-07-27 13:53:03.887,-0.1,-0.45,1.42,-34.3,196.78,8.18
2026-07-27 13:53:03.973,0.01,-0.17,1.26,158.81,143.98,-54.08
2026-07-27 13:53:03.973,0.01,-0.17,1.26,158.81,143.98,-54.08
2026-07-27 13:53:03.974,0.03,-0.01,1.02,116.76,80.87,-96.68
2026-07-27 13:53:03.974,0.03,-0.01,1.02,116.76,80.87,-96.68
2026-07-27 13:53:04.016,0.03,0.12,0.79,40.95,33.57,-131.41
2026-07-27 13:53:04.062,0.05,0.24,0.7,37.48,18.19,-144.65
2026-07-27 13:53:04.063,0.05,0.24,0.7,37.48,18.19,-144.65
2026-07-27 13:53:04.104,0.09,0.19,0.86,66.28,41.02,-124.27
2026-07-27 13:53:04.104,0.09,0.19,0.86,66.28,41.02,-124.27
2026-07-27 13:53:04.147,0.07,0.03,1.13,76.84,64.21,-100.71
2026-07-27 13:53:04.149,0.08,0.05,1.17,101.26,53.83,-91.49
2026-07-27 13:53:04.191,0.08,0.05,1.17,101.26,53.83,-91.49
2026-07-27 13:53:04.192,0.19,0.23,0.99,137.33,25.82,-72.75
2026-07-27 13:53:04.235,0.19,0.23,0.99,137.33,25.82,-72.75
2026-07-27 13:53:04.236,0.27,0.38,0.91,127.87,19.59,-42.97
2026-07-27 13:53:04.366,0.21,0.39,0.93,84.59,30.15,-18.62
2026-07-27 13:53:04.367,0.21,0.39,0.93,84.59,30.15,-18.62
2026-07-27 13:53:04.367,0.06,0.32,0.9,60.3,27.65,-0.61
2026-07-27 13:53:04.368,0.06,0.32,0.9,60.3,27.65,-0.61
2026-07-27 13:53:04.369,-0.04,0.31,0.87,60.24,23.32,11.23
2026-07-27 13:53:04.412,-0.07,0.39,0.9,62.74,31.25,16.91
2026-07-27 13:53:04.412,-0.07,0.39,0.9,62.74,31.25,16.91
2026-07-27 13:53:04.461,-0.1,0.47,0.89,71.53,37.54,23.8
2026-07-27 13:53:04.542,-0.13,0.48,0.84,76.29,35.89,39.92
2026-07-27 13:53:04.542,-0.13,0.48,0.84,76.29,35.89,39.92
2026-07-27 13:53:04.542,-0.17,0.46,0.82,66.16,35.46,54.69
2026-07-27 13:53:04.543,-0.17,0.46,0.82,66.16,35.46,54.69
2026-07-27 13:53:04.586,-0.22,0.46,0.81,60.12,37.23,55.18
2026-07-27 13:53:04.586,-0.25,0.47,0.8,43.64,34.3,52.0
2026-07-27 13:53:04.630,-0.25,0.47,0.8,43.64,34.3,52.0
2026-07-27 13:53:04.630,-0.23,0.42,0.81,-20.75,23.74,58.23
2026-07-27 13:53:04.672,-0.23,0.42,0.81,-20.75,23.74,58.23
2026-07-27 13:53:04.673,-0.18,0.36,0.87,-89.17,7.63,61.95
2026-07-27 13:53:04.760,-0.09,0.37,0.95,-78.06,-8.73,49.13
2026-07-27 13:53:04.761,-0.09,0.37,0.95,-78.06,-8.73,49.13
2026-07-27 13:53:04.761,-0.03,0.47,1.01,-9.95,-17.94,19.84
2026-07-27 13:53:04.762,-0.03,0.47,1.01,-9.95,-17.94,19.84
2026-07-27 13:53:04.804,0.01,0.63,1.03,35.28,-16.6,-12.27
2026-07-27 13:53:04.804,0.01,0.63,1.03,35.28,-16.6,-12.27
2026-07-27 13:53:04.847,0.02,0.7,1.01,34.12,-7.93,-26.73
2026-07-27 13:53:04.892,-0.01,0.66,0.93,15.81,10.38,-21.48
2026-07-27 13:53:04.892,-0.01,0.66,0.93,15.81,10.38,-21.48
2026-07-27 13:53:04.935,-0.01,0.6,0.74,-2.14,39.92,2.5
2026-07-27 13:53:04.935,-0.01,0.6,0.74,-2.14,39.92,2.5
2026-07-27 13:53:04.979,-0.02,0.51,0.55,-21.55,64.45,34.24
2026-07-27 13:53:04.979,-0.07,0.5,0.49,-30.27,67.69,54.63
2026-07-27 13:53:05.115,-0.07,0.5,0.49,-30.27,67.69,54.63
2026-07-27 13:53:05.115,-0.11,0.6,0.57,-39.25,52.43,63.35
2026-07-27 13:53:05.115,-0.11,0.6,0.57,-39.25,52.43,63.35
2026-07-27 13:53:05.115,-0.12,0.69,0.75,-58.23,38.45,68.24
2026-07-27 13:53:05.115,-0.12,0.68,0.91,-75.93,38.09,76.17
2026-07-27 13:53:05.116,-0.12,0.68,0.91,-75.93,38.09,76.17
2026-07-27 13:53:05.156,-0.13,0.59,0.94,-75.01,41.93,92.1
2026-07-27 13:53:05.156,-0.13,0.59,0.94,-75.01,41.93,92.1
2026-07-27 13:53:05.200,-0.12,0.49,0.84,-52.37,40.59,114.26
2026-07-27 13:53:05.242,-0.15,0.4,0.74,-31.98,35.16,126.53
2026-07-27 13:53:05.243,-0.15,0.4,0.74,-31.98,35.16,126.53
2026-07-27 13:53:05.289,-0.17,0.36,0.75,-33.08,27.77,144.04
2026-07-27 13:53:05.289,-0.17,0.36,0.75,-44.43,19.65,180.24
2026-07-27 13:53:05.329,-0.11,0.34,0.86,-44.43,19.65,180.24
2026-07-27 13:53:05.329,-0.03,0.31,0.96,-62.19,13.06,197.75
2026-07-27 13:53:05.375,-0.03,0.31,0.96,-62.19,13.06,197.75
2026-07-27 13:53:05.375,0.03,0.27,0.98,-76.48,10.74,179.87
2026-07-27 13:53:05.460,0.03,0.27,0.98,-65.86,13.55,148.86
2026-07-27 13:53:05.461,0.03,0.24,0.97,-65.86,13.55,148.86
2026-07-27 13:53:05.461,-0.03,0.21,0.96,-41.08,15.14,124.15
2026-07-27 13:53:05.505,-0.03,0.21,0.96,-41.08,15.14,124.15
2026-07-27 13:53:05.505,-0.07,0.2,0.99,-11.23,13.0,114.2
2026-07-27 13:53:05.548,-0.07,0.2,0.99,31.43,10.68,123.05
2026-07-27 13:53:05.548,-0.06,0.21,1.0,31.43,10.68,123.05
2026-07-27 13:53:05.593,-0.04,0.22,0.97,75.5,8.79,137.94
2026-07-27 13:53:05.593,-0.04,0.22,0.97,75.5,8.79,137.94
2026-07-27 13:53:05.680,-0.06,0.33,0.96,111.15,15.44,143.13
2026-07-27 13:53:05.680,-0.06,0.33,0.96,108.89,19.53,157.04
2026-07-27 13:53:05.680,-0.12,0.48,0.96,108.89,19.53,157.04
2026-07-27 13:53:05.729,-0.03,0.59,0.89,58.47,5.49,187.5
2026-07-27 13:53:05.729,-0.03,0.59,0.89,58.47,5.49,187.5
2026-07-27 13:53:05.771,0.21,0.64,0.83,13.55,5.92,205.14
2026-07-27 13:53:05.771,0.21,0.64,0.83,2.62,46.45,174.87
2026-07-27 13:53:05.818,0.43,0.6,0.93,2.62,46.45,174.87
2026-07-27 13:53:05.819,0.56,0.57,1.06,28.93,93.2,100.28
2026-07-27 13:53:05.854,0.56,0.57,1.06,28.93,93.2,100.28
2026-07-27 13:53:05.854,0.59,0.55,0.94,71.04,93.69,36.07
2026-07-27 13:53:05.908,0.59,0.55,0.94,106.69,40.65,15.26
2026-07-27 13:53:05.908,0.52,0.53,0.58,106.69,40.65,15.26
2026-07-27 13:53:05.941,0.47,0.55,0.27,122.25,-16.66,25.7
2026-07-27 13:53:05.941,0.47,0.55,0.27,122.25,-16.66,25.7
2026-07-27 13:53:05.994,0.46,0.62,0.2,94.18,-30.03,43.95
2026-07-27 13:53:06.029,0.47,0.76,0.38,28.14,-4.94,51.51
2026-07-27 13:53:06.029,0.47,0.76,0.38,28.14,-4.94,51.51
2026-07-27 13:53:06.078,0.45,0.8,0.65,-15.62,16.11,28.99
2026-07-27 13:53:06.078,0.45,0.8,0.65,-15.62,16.11,28.99
2026-07-27 13:53:06.116,0.36,0.66,0.83,-24.41,25.7,-6.1
2026-07-27 13:53:06.119,0.36,0.66,0.83,-30.64,38.64,-6.53
2026-07-27 13:53:06.204,0.24,0.52,0.84,-30.64,38.64,-6.53
2026-07-27 13:53:06.204,0.15,0.46,0.74,-39.61,37.17,25.02
2026-07-27 13:53:06.205,0.15,0.46,0.74,-39.61,37.17,25.02
2026-07-27 13:53:06.205,0.21,0.56,0.81,-59.94,-5.07,64.94
2026-07-27 13:53:06.258,0.21,0.56,0.81,-67.57,-64.58,78.55
2026-07-27 13:53:06.258,0.37,0.62,1.09,-67.57,-64.58,78.55
2026-07-27 13:53:06.291,0.35,0.44,1.17,-50.23,-80.32,53.04
2026-07-27 13:53:06.292,0.35,0.44,1.17,-50.23,-80.32,53.04
2026-07-27 13:53:06.335,0.21,0.28,0.88,-33.26,-51.21,20.45
2026-07-27 13:53:06.380,0.21,0.28,0.88,-26.67,-14.59,-3.48
2026-07-27 13:53:06.380,0.18,0.33,0.56,-26.67,-14.59,-3.48
2026-07-27 13:53:06.423,0.27,0.43,0.53,-21.61,14.16,-3.91
2026-07-27 13:53:06.423,0.27,0.43,0.53,-21.61,14.16,-3.91
2026-07-27 13:53:06.467,0.37,0.44,0.76,5.07,21.42,12.21
2026-07-27 13:53:06.467,0.43,0.46,0.95,41.56,2.38,11.05
2026-07-27 13:53:06.510,0.43,0.46,0.95,41.56,2.38,11.05
2026-07-27 13:53:06.554,0.4,0.55,0.95,63.29,-15.5,-24.17
2026-07-27 13:53:06.555,0.4,0.55,0.95,63.29,-15.5,-24.17
2026-07-27 13:53:06.597,0.26,0.48,0.83,47.79,17.76,-125.49
2026-07-27 13:53:06.598,0.13,0.36,0.7,-1.28,92.77,-210.51
2026-07-27 13:53:06.641,0.13,0.36,0.7,-1.28,92.77,-210.51
2026-07-27 13:53:06.642,0.11,0.47,0.61,-12.02,112.43,-152.22
2026-07-27 13:53:06.695,0.11,0.47,0.61,-12.02,112.43,-152.22
2026-07-27 13:53:06.695,0.14,0.63,0.58,15.69,65.61,-26.18
2026-07-27 13:53:06.729,0.09,0.66,0.58,26.31,32.29,55.18
2026-07-27 13:53:06.729,0.09,0.66,0.58,26.31,32.29,55.18
2026-07-27 13:53:06.772,0.01,0.63,0.55,25.94,27.28,76.23
2026-07-27 13:53:06.773,0.01,0.63,0.55,25.94,27.28,76.23
2026-07-27 13:53:06.818,0.01,0.64,0.56,24.41,33.51,67.02
2026-07-27 13:53:06.860,0.06,0.69,0.61,28.81,49.07,77.03
2026-07-27 13:53:06.860,0.06,0.69,0.61,28.81,49.07,77.03
2026-07-27 13:53:06.904,0.03,0.74,0.69,51.33,91.61,129.39
2026-07-27 13:53:06.904,0.03,0.74,0.69,51.33,91.61,129.39
2026-07-27 13:53:06.948,-0.06,0.71,0.67,70.8,153.93,164.67
2026-07-27 13:53:06.948,-0.19,0.59,0.6,57.01,168.76,122.74
2026-07-27 13:53:06.995,-0.19,0.59,0.6,57.01,168.76,122.74
2026-07-27 13:53:06.996,-0.26,0.48,0.64,27.71,95.89,46.81
2026-07-27 13:53:07.035,-0.26,0.48,0.64,27.71,95.89,46.81
2026-07-27 13:53:07.036,-0.19,0.47,0.82,31.07,-14.71,2.14
2026-07-27 13:53:07.080,-0.04,0.58,1.01,48.34,-71.41,-0.49
2026-07-27 13:53:07.080,-0.04,0.58,1.01,48.34,-71.41,-0.49
2026-07-27 13:53:07.123,0.15,0.72,1.01,17.27,-41.93,10.01
2026-07-27 13:53:07.123,0.15,0.72,1.01,17.27,-41.93,10.01
2026-07-27 13:53:07.169,0.29,0.81,0.78,-47.3,12.02,12.27
2026-07-27 13:53:07.214,0.26,0.77,0.64,-71.96,35.77,17.03
2026-07-27 13:53:07.214,0.26,0.77,0.64,-71.96,35.77,17.03
2026-07-27 13:53:07.254,0.11,0.66,0.69,-44.31,32.53,30.03
2026-07-27 13:53:07.254,0.11,0.66,0.69,-44.31,32.53,30.03
2026-07-27 13:53:07.298,0.01,0.62,0.77,-6.84,15.38,36.56
2026-07-27 13:53:07.298,0.03,0.65,0.77,6.1,-6.71,30.4
2026-07-27 13:53:07.342,0.03,0.65,0.77,6.1,-6.71,30.4
2026-07-27 13:53:07.342,0.12,0.69,0.72,-3.6,-20.75,17.82
2026-07-27 13:53:07.386,0.12,0.69,0.72,-3.6,-20.75,17.82
2026-07-27 13:53:07.386,0.17,0.71,0.77,-14.34,-16.24,4.39
2026-07-27 13:53:07.429,0.15,0.71,0.81,-23.93,-6.41,-6.96
2026-07-27 13:53:07.429,0.15,0.71,0.81,-23.93,-6.41,-6.96
2026-07-27 13:53:07.476,0.13,0.72,0.83,-31.19,-5.74,-14.89
2026-07-27 13:53:07.517,0.13,0.72,0.83,-31.19,-5.74,-14.89
2026-07-27 13:53:07.517,0.16,0.71,0.83,-34.06,-9.89,-20.69
2026-07-27 13:53:07.561,0.16,0.71,0.83,-37.35,-11.23,-30.15
2026-07-27 13:53:07.562,0.17,0.65,0.81,-37.35,-11.23,-30.15
2026-07-27 13:53:07.604,0.1,0.58,0.82,-39.55,-2.99,-44.37
2026-07-27 13:53:07.604,0.1,0.58,0.82,-39.55,-2.99,-44.37
2026-07-27 13:53:07.648,0.04,0.53,0.88,-47.0,16.54,-46.39
2026-07-27 13:53:07.648,0.04,0.53,0.88,-47.0,16.54,-46.39
2026-07-27 13:53:07.691,0.05,0.51,0.95,-63.84,35.71,-29.48
2026-07-27 13:53:07.691,0.01,0.49,1.03,-72.45,36.32,-11.96
2026-07-27 13:53:07.778,0.01,0.49,1.03,-72.45,36.32,-11.96
2026-07-27 13:53:07.779,-0.03,0.45,1.02,-72.2,18.13,-9.77
2026-07-27 13:53:07.779,-0.03,0.45,1.02,-72.2,18.13,-9.77
2026-07-27 13:53:07.780,0.01,0.33,0.93,-76.35,-0.73,-13.73
2026-07-27 13:53:07.822,0.05,0.18,0.89,-75.93,-10.99,-6.16
2026-07-27 13:53:07.867,0.05,0.18,0.89,-75.93,-10.99,-6.16
2026-07-27 13:53:07.910,0.05,0.13,0.89,-55.48,-19.59,2.26
2026-07-27 13:53:07.910,0.05,0.13,0.89,-55.48,-19.59,2.26
2026-07-27 13:53:07.911,0.04,0.19,0.89,-17.21,-17.88,-4.58
2026-07-27 13:53:07.954,0.02,0.31,0.93,21.36,10.38,-22.58
2026-07-27 13:53:07.954,0.02,0.31,0.93,21.36,10.38,-22.58
2026-07-27 13:53:07.998,-0.03,0.41,1.04,47.73,43.88,-35.95
2026-07-27 13:53:07.998,-0.03,0.41,1.04,47.73,43.88,-35.95
2026-07-27 13:53:08.086,-0.08,0.48,1.1,58.11,42.66,-33.45
2026-07-27 13:53:08.086,-0.04,0.58,1.02,61.16,-1.28,-23.93
2026-07-27 13:53:08.087,-0.04,0.58,1.02,61.16,-1.28,-23.93
2026-07-27 13:53:08.088,0.03,0.69,0.88,74.28,-48.28,-13.92
2026-07-27 13:53:08.129,0.03,0.69,0.88,74.28,-48.28,-13.92
2026-07-27 13:53:08.264,0.04,0.69,0.75,92.41,-59.14,3.17
2026-07-27 13:53:08.264,-0.0,0.61,0.69,89.97,-37.54,19.84
2026-07-27 13:53:08.264,-0.0,0.61,0.69,89.97,-37.54,19.84
2026-07-27 13:53:08.264,-0.07,0.52,0.7,39.43,-2.44,25.88
2026-07-27 13:53:08.265,-0.07,0.52,0.7,39.43,-2.44,25.88
2026-07-27 13:53:08.265,-0.15,0.45,0.72,-47.12,32.29,19.71
2026-07-27 13:53:08.309,-0.11,0.44,0.81,-97.96,48.89,-1.95
2026-07-27 13:53:08.309,-0.11,0.44,0.81,-97.96,48.89,-1.95
2026-07-27 13:53:08.396,0.0,0.46,0.98,-86.55,33.39,-26.25
2026-07-27 13:53:08.396,0.0,0.46,0.98,-86.55,33.39,-26.25
2026-07-27 13:53:08.396,0.02,0.43,1.03,-59.39,-1.04,-51.51
2026-07-27 13:53:08.438,-0.02,0.36,0.9,-51.82,-16.17,-76.48
2026-07-27 13:53:08.438,-0.02,0.36,0.9,-51.82,-16.17,-76.48
2026-07-27 13:53:08.523,-0.05,0.25,0.84,-51.51,-3.11,-78.25
2026-07-27 13:53:08.523,-0.05,0.25,0.84,-51.51,-3.11,-78.25
2026-07-27 13:53:08.523,-0.08,0.21,0.92,-35.71,12.27,-57.86
2026-07-27 13:53:08.524,-0.13,0.25,0.95,-15.75,21.42,-26.0
2026-07-27 13:53:08.566,-0.13,0.25,0.95,-15.75,21.42,-26.0
2026-07-27 13:53:08.568,-0.16,0.24,0.92,-20.02,21.3,9.22
2026-07-27 13:53:08.611,-0.16,0.24,0.92,-20.02,21.3,9.22
2026-07-27 13:53:08.611,-0.09,0.1,1.02,-69.09,-9.77,7.32
2026-07-27 13:53:08.698,0.05,0.0,1.12,-95.28,-54.2,-40.65
2026-07-27 13:53:08.698,0.05,0.0,1.12,-95.28,-54.2,-40.65
2026-07-27 13:53:08.699,0.1,0.06,1.03,-41.32,-75.13,-88.81
2026-07-27 13:53:08.699,0.1,0.06,1.03,-41.32,-75.13,-88.81
2026-07-27 13:53:08.741,0.04,0.12,0.87,27.59,-58.17,-114.44
2026-07-27 13:53:08.785,-0.04,0.18,0.89,66.41,-5.74,-103.94
2026-07-27 13:53:08.786,-0.04,0.18,0.89,66.41,-5.74,-103.94
2026-07-27 13:53:08.829,-0.06,0.26,1.04,74.52,27.89,-67.81
2026-07-27 13:53:08.829,-0.06,0.26,1.04,74.52,27.89,-67.81
2026-07-27 13:53:08.873,-0.09,0.33,1.06,76.29,33.45,-42.6
2026-07-27 13:53:08.873,-0.2,0.4,0.91,80.44,51.88,-26.79
2026-07-27 13:53:08.919,-0.2,0.4,0.91,80.44,51.88,-26.79
2026-07-27 13:53:08.919,-0.28,0.38,0.82,45.96,65.73,-3.11
2026-07-27 13:53:08.960,-0.28,0.38,0.82,45.96,65.73,-3.11
2026-07-27 13:53:09.004,-0.25,0.32,0.86,-5.31,53.28,21.91
2026-07-27 13:53:09.005,-0.19,0.31,0.94,-22.77,35.16,40.53
2026-07-27 13:53:09.047,-0.19,0.31,0.94,-22.77,35.16,40.53
2026-07-27 13:53:09.048,-0.19,0.31,0.97,-26.31,50.72,55.24
2026-07-27 13:53:09.092,-0.19,0.31,0.97,-26.31,50.72,55.24
2026-07-27 13:53:09.092,-0.25,0.33,0.86,-37.41,102.54,76.78
2026-07-27 13:53:09.135,-0.29,0.38,0.77,-45.78,123.54,86.24
2026-07-27 13:53:09.136,-0.29,0.38,0.77,-45.78,123.54,86.24
2026-07-27 13:53:09.223,-0.31,0.36,0.83,-34.91,84.47,62.07
2026-07-27 13:53:09.223,-0.31,0.36,0.83,-34.91,84.47,62.07
2026-07-27 13:53:09.223,-0.33,0.33,0.9,-3.11,25.82,32.41
2026-07-27 13:53:09.267,-0.31,0.35,0.88,27.4,-19.96,18.07
2026-07-27 13:53:09.267,-0.31,0.35,0.88,27.4,-19.96,18.07
2026-07-27 13:53:09.310,-0.26,0.39,0.84,34.0,-40.1,5.62
2026-07-27 13:53:09.311,-0.26,0.39,0.84,34.0,-40.1,5.62
2026-07-27 13:53:09.354,-0.29,0.41,0.84,20.32,-38.64,-20.26
2026-07-27 13:53:09.355,-0.36,0.4,0.85,4.64,-26.86,-37.23
2026-07-27 13:53:09.398,-0.36,0.4,0.85,4.64,-26.86,-37.23
2026-07-27 13:53:09.398,-0.35,0.39,0.86,-4.46,-10.68,-17.88
2026-07-27 13:53:09.442,-0.35,0.39,0.86,-4.46,-10.68,-17.88
2026-07-27 13:53:09.443,-0.33,0.36,0.88,-3.23,1.59,14.53
2026-07-27 13:53:09.572,-0.29,0.32,0.88,5.55,-5.13,21.67
2026-07-27 13:53:09.573,-0.29,0.32,0.88,5.55,-5.13,21.67
2026-07-27 13:53:09.574,-0.19,0.3,0.86,14.53,-19.1,5.25
2026-07-27 13:53:09.574,-0.19,0.3,0.86,14.53,-19.1,5.25
2026-07-27 13:53:09.575,-0.2,0.33,0.85,20.63,0.85,-6.53
2026-07-27 13:53:09.617,-0.33,0.43,0.87,25.21,46.75,5.49
2026-07-27 13:53:09.618,-0.33,0.43,0.87,25.21,46.75,5.49
2026-07-27 13:53:09.660,-0.36,0.45,0.88,21.55,64.51,25.39
2026-07-27 13:53:09.660,-0.36,0.45,0.88,21.55,64.51,25.39
2026-07-27 13:53:09.705,-0.32,0.42,0.84,10.25,41.93,33.69
2026-07-27 13:53:09.705,-0.3,0.45,0.78,2.2,1.77,34.79
2026-07-27 13:53:09.880,-0.3,0.45,0.78,2.2,1.77,34.79
2026-07-27 13:53:09.880,-0.28,0.51,0.76,4.09,-31.01,41.38
2026-07-27 13:53:09.881,-0.28,0.51,0.76,4.09,-31.01,41.38
2026-07-27 13:53:09.881,-0.25,0.57,0.75,10.74,-44.8,57.25
2026-07-27 13:53:09.881,-0.25,0.57,0.75,5.8,-45.17,74.77
2026-07-27 13:53:09.882,-0.21,0.58,0.78,5.8,-45.17,74.77
2026-07-27 13:53:09.883,-0.18,0.54,0.81,8.24,-28.08,88.07
2026-07-27 13:53:09.884,-0.18,0.54,0.81,8.24,-28.08,88.07
2026-07-27 13:53:09.924,-0.16,0.5,0.8,40.83,2.44,86.18
2026-07-27 13:53:09.924,-0.16,0.5,0.8,40.83,2.44,86.18
2026-07-27 13:53:09.969,-0.15,0.53,0.82,59.81,21.85,61.83
2026-07-27 13:53:10.012,-0.14,0.57,0.83,37.9,14.4,25.57
2026-07-27 13:53:10.012,-0.14,0.57,0.83,37.9,14.4,25.57
2026-07-27 13:53:10.102,-0.11,0.61,0.79,5.98,-5.68,-1.16
2026-07-27 13:53:10.102,-0.11,0.61,0.79,5.98,-5.68,-1.16
2026-07-27 13:53:10.103,-0.1,0.63,0.77,-10.74,-17.46,-11.78
2026-07-27 13:53:10.103,-0.11,0.64,0.77,-15.87,-21.42,-18.07
2026-07-27 13:53:10.185,-0.11,0.64,0.77,-15.87,-21.42,-18.07
2026-07-27 13:53:10.185,-0.1,0.62,0.77,-19.29,-24.96,-28.99
2026-07-27 13:53:10.191,-0.1,0.62,0.77,-19.29,-24.96,-28.99
2026-07-27 13:53:10.191,-0.1,0.58,0.78,-16.42,-27.22,-43.21
2026-07-27 13:53:10.237,-0.11,0.56,0.83,-3.91,-25.82,-51.09
2026-07-27 13:53:10.237,-0.11,0.56,0.83,-3.91,-25.82,-51.09
2026-07-27 13:53:10.277,-0.13,0.58,0.91,16.54,-15.99,-47.24
2026-07-27 13:53:10.277,-0.13,0.58,0.91,16.54,-15.99,-47.24
2026-07-27 13:53:10.323,-0.14,0.61,1.01,43.03,4.09,-35.28
2026-07-27 13:53:10.364,-0.16,0.67,0.98,73.18,20.08,-18.19
2026-07-27 13:53:10.365,-0.16,0.67,0.98,73.18,20.08,-18.19
2026-07-27 13:53:10.409,-0.15,0.76,0.89,91.25,21.55,-2.38
2026-07-27 13:53:10.410,-0.15,0.76,0.89,93.2,15.56,6.04
2026-07-27 13:53:10.451,-0.13,0.83,0.88,93.2,15.56,6.04
2026-07-27 13:53:10.579,-0.12,0.91,0.87,96.13,4.15,8.91
2026-07-27 13:53:10.579,-0.12,0.91,0.87,96.13,4.15,8.91
2026-07-27 13:53:10.580,-0.04,1.03,0.77,86.18,-23.74,20.87
2026-07-27 13:53:10.580,-0.04,1.03,0.77,33.14,-52.25,47.79
2026-07-27 13:53:10.581,0.07,1.16,0.65,33.14,-52.25,47.79
2026-07-27 13:53:10.582,0.15,1.27,0.66,1.59,-83.44,57.31
2026-07-27 13:53:10.668,0.15,1.27,0.66,1.59,-83.44,57.31
2026-07-27 13:53:10.668,0.17,1.34,0.76,92.04,-136.41,15.99
2026-07-27 13:53:10.668,0.17,1.34,0.76,92.04,-136.41,15.99
2026-07-27 13:53:10.669,0.12,1.31,0.65,192.81,-154.48,-32.29
2026-07-27 13:53:10.711,0.02,1.12,0.41,152.34,-117.86,-29.54
2026-07-27 13:53:10.711,0.02,1.12,0.41,152.34,-117.86,-29.54
2026-07-27 13:53:10.798,-0.04,0.8,0.31,22.4,-80.38,10.56
2026-07-27 13:53:10.798,-0.04,0.8,0.31,22.4,-80.38,10.56
2026-07-27 13:53:10.798,-0.02,0.5,0.33,-114.44,-59.33,55.36
2026-07-27 13:53:10.885,0.04,0.35,0.37,-192.87,-49.01,84.53
2026-07-27 13:53:10.886,0.04,0.35,0.37,-192.87,-49.01,84.53
2026-07-27 13:53:10.886,0.13,0.33,0.37,-103.33,-46.51,77.09
2026-07-27 13:53:10.887,0.13,0.33,0.37,-103.33,-46.51,77.09
2026-07-27 13:53:10.929,0.24,0.34,0.3,88.07,-28.2,40.34
2026-07-27 13:53:10.929,0.35,0.44,0.14,174.19,29.85,4.21
2026-07-27 13:53:10.973,0.35,0.44,0.14,174.19,29.85,4.21
2026-07-27 13:53:10.973,0.38,0.57,-0.13,160.46,105.1,-35.1
2026-07-27 13:53:11.017,0.38,0.57,-0.13,160.46,105.1,-35.1
2026-07-27 13:53:11.019,0.35,0.75,-0.36,170.72,132.87,-76.17
2026-07-27 13:53:11.060,0.31,0.97,-0.43,120.91,126.28,-80.57
2026-07-27 13:53:11.061,0.31,0.97,-0.43,120.91,126.28,-80.57
2026-07-27 13:53:11.104,0.16,1.13,-0.38,-8.0,120.73,-45.41
2026-07-27 13:53:11.105,0.16,1.13,-0.38,-8.0,120.73,-45.41
2026-07-27 13:53:11.148,0.16,1.13,-0.38,-8.0,120.73,-45.41
2026-07-27 13:53:11.148,0.16,1.13,-0.38,-8.0,120.73,-45.41
2026-07-27 13:53:11.192,0.03,0.86,0.0,-70.56,82.09,-11.54
2026-07-27 13:53:11.235,0.13,0.59,0.31,-14.04,14.22,-8.0
2026-07-27 13:53:11.235,0.13,0.59,0.31,-14.04,14.22,-8.0
2026-07-27 13:53:11.279,0.19,0.67,0.36,95.15,15.26,44.49
2026-07-27 13:53:11.279,0.19,0.67,0.36,95.15,15.26,44.49
2026-07-27 13:53:11.367,0.14,0.96,0.18,168.4,64.51,94.6
2026-07-27 13:53:11.368,0.1,1.19,0.08,101.38,53.04,31.43
2026-07-27 13:53:11.368,0.1,1.19,0.08,101.38,53.04,31.43
2026-07-27 13:53:11.368,0.05,1.22,0.06,-16.42,8.06,-64.09
2026-07-27 13:53:11.411,0.05,1.22,0.06,-16.42,8.06,-64.09
2026-07-27 13:53:11.411,-0.08,1.02,0.08,-26.86,-21.48,-74.34
2026-07-27 13:53:11.456,-0.18,0.69,0.13,22.83,-27.89,-51.03
2026-07-27 13:53:11.456,-0.18,0.69,0.13,22.83,-27.89,-51.03
2026-07-27 13:53:11.498,-0.24,0.56,0.09,11.6,-26.18,-50.42
2026-07-27 13:53:11.499,-0.24,0.56,0.09,11.6,-26.18,-50.42
2026-07-27 13:53:11.541,-0.23,0.75,0.03,-60.61,-28.75,-38.82
2026-07-27 13:53:11.629,-0.17,0.87,0.11,-172.67,-43.27,-12.51
2026-07-27 13:53:11.629,-0.17,0.87,0.11,-172.67,-43.27,-12.51
2026-07-27 13:53:11.630,-0.09,0.73,0.36,-285.83,-61.71,18.55
2026-07-27 13:53:11.632,-0.09,0.73,0.36,-285.83,-61.71,18.55
2026-07-27 13:53:11.672,-0.02,0.66,0.47,-240.54,-15.87,79.1
2026-07-27 13:53:11.673,0.01,0.72,0.37,-36.68,49.32,92.9
2026-07-27 13:53:11.760,0.01,0.72,0.37,-36.68,49.32,92.9
2026-07-27 13:53:11.760,0.0,0.69,0.35,99.73,42.48,13.0
2026-07-27 13:53:11.761,0.0,0.69,0.35,99.73,42.48,13.0
2026-07-27 13:53:11.762,0.02,0.73,0.41,85.27,23.44,-62.68
2026-07-27 13:53:11.850,0.05,0.78,0.57,23.19,45.78,-83.01
2026-07-27 13:53:11.850,0.05,0.78,0.57,23.19,45.78,-83.01
2026-07-27 13:53:11.850,-0.02,0.84,0.8,3.66,75.2,-88.99
2026-07-27 13:53:11.851,-0.02,0.84,0.8,3.66,75.2,-88.99
2026-07-27 13:53:11.894,-0.3,0.9,0.89,20.45,59.33,-104.13
2026-07-27 13:53:11.940,-0.8,1.0,0.79,51.03,-20.26,-123.17
2026-07-27 13:53:11.940,-0.8,1.0,0.79,51.03,-20.26,-123.17
2026-07-27 13:53:11.984,-1.12,1.13,0.57,85.21,-131.9,-146.67
2026-07-27 13:53:11.984,-1.12,1.13,0.57,85.21,-131.9,-146.67
2026-07-27 13:53:12.022,-0.89,1.19,0.33,81.42,-195.74,-177.43
2026-07-27 13:53:12.023,-0.46,1.18,0.17,46.69,-179.75,-182.62
2026-07-27 13:53:12.074,-0.46,1.18,0.17,46.69,-179.75,-182.62
2026-07-27 13:53:12.074,-0.33,1.03,0.16,34.55,-132.63,-117.43
2026-07-27 13:53:12.110,-0.33,1.03,0.16,34.55,-132.63,-117.43
2026-07-27 13:53:12.154,-0.51,0.79,0.25,31.56,-90.33,-11.66
2026-07-27 13:53:12.162,-0.76,0.6,0.41,-12.63,-71.9,47.85
2026-07-27 13:53:12.246,-0.76,0.6,0.41,-12.63,-71.9,47.85
2026-07-27 13:53:12.246,-0.86,0.47,0.59,-76.35,-88.01,20.57
2026-07-27 13:53:12.246,-0.86,0.47,0.59,-76.35,-88.01,20.57
2026-07-27 13:53:12.246,-0.79,0.45,0.61,-76.17,-107.18,-43.46
2026-07-27 13:53:12.287,-0.65,0.54,0.46,-10.56,-102.72,-81.73
2026-07-27 13:53:12.287,-0.65,0.54,0.46,-10.56,-102.72,-81.73
2026-07-27 13:53:12.332,-0.57,0.58,0.35,40.04,-83.98,-84.29
2026-07-27 13:53:12.333,-0.57,0.58,0.35,40.04,-83.98,-84.29
2026-07-27 13:53:12.372,-0.58,0.53,0.36,44.49,-61.22,-67.63
2026-07-27 13:53:12.460,-0.61,0.45,0.45,25.09,-38.45,-51.15
2026-07-27 13:53:12.460,-0.61,0.45,0.45,25.09,-38.45,-51.15
2026-07-27 13:53:12.461,-0.61,0.41,0.53,5.68,-19.78,-49.93
2026-07-27 13:53:12.462,-0.61,0.41,0.53,-2.56,-9.83,-66.96
2026-07-27 13:53:12.504,-0.58,0.41,0.58,-2.56,-9.83,-66.96
2026-07-27 13:53:12.504,-0.6,0.44,0.64,-0.49,-9.77,-91.31
2026-07-27 13:53:12.635,-0.6,0.44,0.64,-0.49,-9.77,-91.31
2026-07-27 13:53:12.635,-0.61,0.49,0.71,6.65,-19.84,-115.36
2026-07-27 13:53:12.636,-0.61,0.49,0.71,6.65,-19.84,-115.36
2026-07-27 13:53:12.637,-0.66,0.57,0.78,20.57,-44.68,-143.01
2026-07-27 13:53:12.638,-0.92,0.69,0.9,50.54,-87.59,-173.28
2026-07-27 13:53:12.638,-0.92,0.69,0.9,50.54,-87.59,-173.28
2026-07-27 13:53:12.683,-1.11,0.84,0.91,94.67,-140.14,-204.9
2026-07-27 13:53:12.683,-1.11,0.84,0.91,94.67,-140.14,-204.9
2026-07-27 13:53:12.722,-0.87,0.88,0.62,113.77,-183.72,-245.73
2026-07-27 13:53:12.769,-0.47,0.75,0.24,87.52,-190.73,-249.82
2026-07-27 13:53:12.769,-0.47,0.75,0.24,87.52,-190.73,-249.82
2026-07-27 13:53:12.810,-0.27,0.55,0.23,47.06,-137.94,-144.78
2026-07-27 13:53:12.810,-0.27,0.55,0.23,4.88,-57.07,29.42
2026-07-27 13:53:12.857,-0.3,0.29,0.59,4.88,-57.07,29.42
2026-07-27 13:53:12.857,-0.4,0.11,0.87,-26.73,-18.13,121.34
2026-07-27 13:53:12.898,-0.4,0.11,0.87,-26.73,-18.13,121.34
2026-07-27 13:53:12.898,-0.39,0.16,0.89,-1.77,-33.51,45.29
2026-07-27 13:53:12.943,-0.39,0.16,0.89,65.19,-48.77,-87.46
2026-07-27 13:53:12.985,-0.25,0.29,0.85,65.19,-48.77,-87.46
2026-07-27 13:53:12.985,-0.13,0.31,0.9,82.21,-26.25,-116.58
2026-07-27 13:53:13.029,-0.13,0.31,0.9,82.21,-26.25,-116.58
2026-07-27 13:53:13.029,-0.14,0.34,0.93,28.26,13.06,-49.62
2026-07-27 13:53:13.073,-0.2,0.46,0.93,-40.04,37.84,19.9
2026-07-27 13:53:13.073,-0.2,0.46,0.93,-40.04,37.84,19.9
2026-07-27 13:53:13.117,-0.18,0.56,0.92,-73.36,31.8,47.0
2026-07-27 13:53:13.117,-0.18,0.56,0.92,-73.36,31.8,47.0
2026-07-27 13:53:13.160,-0.14,0.6,0.86,-50.42,-0.37,34.79
2026-07-27 13:53:13.160,-0.13,0.55,0.81,-6.35,-26.49,26.61
2026-07-27 13:53:13.204,-0.13,0.55,0.81,-6.35,-26.49,26.61
2026-07-27 13:53:13.294,-0.15,0.42,0.85,12.39,-27.53,51.82
2026-07-27 13:53:13.294,-0.15,0.42,0.85,12.39,-27.53,51.82
2026-07-27 13:53:13.294,-0.29,0.37,0.96,8.73,-13.43,90.52
2026-07-27 13:53:13.294,-0.29,0.37,0.96,8.73,-13.43,90.52
2026-07-27 13:53:13.294,-0.29,0.37,0.96,8.73,-13.43,90.52
2026-07-27 13:53:13.339,-0.29,0.37,0.96,8.73,-13.43,90.52
2026-07-27 13:53:13.339,-0.47,0.38,1.23,-11.41,46.14,158.81
2026-07-27 13:53:13.381,-0.26,0.41,1.07,-46.26,46.26,162.72
2026-07-27 13:53:13.428,-0.26,0.41,1.07,-46.26,46.26,162.72
2026-07-27 13:53:13.428,-0.17,0.38,0.7,-43.27,5.74,131.65
2026-07-27 13:53:13.472,-0.17,0.38,0.7,-43.27,5.74,131.65
2026-07-27 13:53:13.472,-0.2,0.35,0.44,-13.73,-25.76,115.66
2026-07-27 13:53:13.517,-0.22,0.47,0.4,11.54,-24.78,127.69
2026-07-27 13:53:13.517,-0.22,0.47,0.4,11.54,-24.78,127.69
2026-07-27 13:53:13.557,-0.27,0.57,0.57,-9.03,-11.47,103.82
2026-07-27 13:53:13.558,-0.27,0.57,0.57,-9.03,-11.47,103.82
2026-07-27 13:53:13.605,-0.3,0.49,0.89,-75.26,1.59,28.5
2026-07-27 13:53:13.606,-0.28,0.42,1.07,-81.3,-0.31,-32.17
2026-07-27 13:53:13.645,-0.28,0.42,1.07,-81.3,-0.31,-32.17
2026-07-27 13:53:13.645,-0.28,0.41,1.0,-21.24,-19.71,-48.28
2026-07-27 13:53:13.729,-0.28,0.41,1.0,-21.24,-19.71,-48.28
2026-07-27 13:53:13.730,-0.3,0.36,0.86,23.8,-33.81,-43.58
2026-07-27 13:53:13.730,-0.25,0.32,0.84,40.71,-29.91,-40.95
2026-07-27 13:53:13.776,-0.25,0.32,0.84,40.71,-29.91,-40.95
2026-07-27 13:53:13.776,-0.13,0.3,0.95,44.8,-11.66,-40.95
2026-07-27 13:53:13.816,-0.13,0.3,0.95,44.8,-11.66,-40.95
2026-07-27 13:53:13.816,0.01,0.26,1.06,54.87,8.73,-29.11
2026-07-27 13:53:13.861,0.0,0.28,1.06,78.0,45.04,-3.48
2026-07-27 13:53:13.861,0.0,0.28,1.06,78.0,45.04,-3.48
2026-07-27 13:53:13.904,-0.15,0.47,0.96,93.26,86.0,13.98
2026-07-27 13:53:13.904,-0.15,0.47,0.96,93.26,86.0,13.98
2026-07-27 13:53:13.991,-0.21,0.67,0.82,71.72,66.89,9.4
2026-07-27 13:53:13.991,-0.18,0.73,0.73,30.03,5.37,-7.87
2026-07-27 13:53:13.992,-0.18,0.73,0.73,30.03,5.37,-7.87
2026-07-27 13:53:13.993,-0.16,0.72,0.74,2.2,-22.89,-19.9
2026-07-27 13:53:14.037,-0.16,0.72,0.74,2.2,-22.89,-19.9
2026-07-27 13:53:14.078,-0.14,0.68,0.82,-9.34,-12.27,-15.01
2026-07-27 13:53:14.080,-0.14,0.68,0.82,-1.83,2.38,-6.71
2026-07-27 13:53:14.125,-0.14,0.68,0.84,-1.83,2.38,-6.71
2026-07-27 13:53:14.125,-0.17,0.72,0.74,15.69,8.24,-5.19
2026-07-27 13:53:14.166,-0.17,0.72,0.74,15.69,8.24,-5.19
2026-07-27 13:53:14.166,-0.21,0.83,0.63,24.17,14.71,-4.82
2026-07-27 13:53:14.210,-0.21,0.83,0.63,24.17,14.71,-4.82
2026-07-27 13:53:14.210,-0.15,0.87,0.69,15.69,22.16,-6.23
2026-07-27 13:53:14.254,-0.05,0.72,0.7,-3.54,3.78,-7.57
2026-07-27 13:53:14.254,-0.05,0.72,0.7,-3.54,3.78,-7.57
2026-07-27 13:53:14.298,-0.04,0.57,0.58,-18.92,-29.91,10.01
2026-07-27 13:53:14.299,-0.04,0.57,0.58,-18.92,-29.91,10.01
2026-07-27 13:53:14.342,-0.14,0.5,0.53,-41.26,-28.32,45.35
2026-07-27 13:53:14.385,-0.36,0.38,0.58,-65.25,4.46,68.24
2026-07-27 13:53:14.386,-0.36,0.38,0.58,-65.25,4.46,68.24
2026-07-27 13:53:14.429,-0.56,0.26,0.62,-59.39,37.11,57.92
2026-07-27 13:53:14.429,-0.56,0.26,0.62,-59.39,37.11,57.92
2026-07-27 13:53:14.473,-0.56,0.4,0.66,-16.36,69.95,18.43
2026-07-27 13:53:14.473,-0.39,0.54,0.63,35.28,56.4,-32.59
2026-07-27 13:53:14.516,-0.39,0.54,0.63,35.28,56.4,-32.59
2026-07-27 13:53:14.516,-0.21,0.57,0.58,79.96,-4.03,-54.69
2026-07-27 13:53:14.560,-0.21,0.57,0.58,79.96,-4.03,-54.69
2026-07-27 13:53:14.561,-0.15,0.63,0.6,102.84,-4.88,-2.93
2026-07-27 13:53:14.604,-0.22,0.64,0.63,66.77,50.17,82.89
2026-07-27 13:53:14.604,-0.22,0.64,0.63,66.77,50.17,82.89
2026-07-27 13:53:14.651,-0.29,0.63,0.64,-13.49,83.25,132.63
2026-07-27 13:53:14.692,-0.29,0.63,0.64,-87.34,72.2,144.53
2026-07-27 13:53:14.692,-0.3,0.59,0.66,-87.34,72.2,144.53
2026-07-27 13:53:14.735,-0.21,0.47,0.71,-125.73,28.02,142.64
2026-07-27 13:53:14.735,-0.21,0.47,0.71,-125.73,28.02,142.64
2026-07-27 13:53:14.779,-0.1,0.29,0.86,-159.18,-32.04,106.75
2026-07-27 13:53:14.779,-0.1,0.29,0.86,-195.74,-70.68,34.24
2026-07-27 13:53:14.822,-0.06,0.16,1.04,-195.74,-70.68,34.24
2026-07-27 13:53:14.823,-0.07,0.16,1.08,-183.47,-56.4,-10.01
2026-07-27 13:53:14.866,-0.07,0.16,1.08,-183.47,-56.4,-10.01
2026-07-27 13:53:14.911,-0.1,0.23,1.03,-122.44,-18.31,-1.53
2026-07-27 13:53:14.911,-0.11,0.27,0.95,-69.82,8.54,10.01
2026-07-27 13:53:14.954,-0.11,0.27,0.95,-69.82,8.54,10.01
2026-07-27 13:53:14.954,-0.09,0.24,0.92,-63.6,17.21,-10.01
2026-07-27 13:53:15.001,-0.09,0.24,0.92,-63.6,17.21,-10.01
2026-07-27 13:53:15.001,-0.06,0.13,1.01,-90.88,7.08,-46.39
2026-07-27 13:53:15.041,0.01,-0.0,1.1,-106.2,-8.97,-65.86
2026-07-27 13:53:15.041,0.01,-0.0,1.1,-106.2,-8.97,-65.86
2026-07-27 13:53:15.085,0.09,-0.1,1.11,-84.47,-14.77,-49.87
2026-07-27 13:53:15.085,0.09,-0.1,1.11,-84.47,-14.77,-49.87
2026-07-27 13:53:15.129,0.17,-0.13,1.14,-49.99,-17.52,-14.1
2026-07-27 13:53:15.129,0.17,-0.13,1.14,-33.63,-26.92,9.83
2026-07-27 13:53:15.173,0.21,-0.1,1.22,-33.63,-26.92,9.83
2026-07-27 13:53:15.216,0.16,-0.02,1.24,-35.1,-21.0,11.6
2026-07-27 13:53:15.216,0.16,-0.02,1.24,-35.1,-21.0,11.6
2026-07-27 13:53:15.260,0.07,0.03,1.18,-39.37,-3.78,-7.75
2026-07-27 13:53:15.261,0.07,0.03,1.18,-39.37,-3.78,-7.75
2026-07-27 13:53:15.303,0.06,-0.05,0.85,-44.25,18.31,-42.36
2026-07-27 13:53:15.304,0.04,-0.13,0.41,-1.59,44.07,-46.63
2026-07-27 13:53:15.391,0.04,-0.13,0.41,-1.59,44.07,-46.63
2026-07-27 13:53:15.391,-0.0,-0.11,0.46,101.38,36.44,-3.54
2026-07-27 13:53:15.392,-0.0,-0.11,0.46,101.38,36.44,-3.54
2026-07-27 13:53:15.394,-0.0,-0.08,0.82,126.34,8.73,35.28
2026-07-27 13:53:15.435,-0.01,-0.03,1.05,51.88,-5.07,39.49
2026-07-27 13:53:15.435,-0.01,-0.03,1.05,51.88,-5.07,39.49
2026-07-27 13:53:15.479,-0.02,0.01,1.07,-5.68,-5.49,28.63
2026-07-27 13:53:15.479,-0.02,0.01,1.07,-5.68,-5.49,28.63
2026-07-27 13:53:15.522,-0.01,-0.04,1.03,-18.07,-1.77,22.83
2026-07-27 13:53:15.523,-0.01,-0.04,1.03,-18.07,-1.77,22.83
2026-07-27 13:53:15.567,-0.01,-0.04,1.03,-18.07,-1.77,22.83
2026-07-27 13:53:15.567,-0.01,-0.04,1.03,-18.07,-1.77,22.83
2026-07-27 13:53:15.610,-0.0,-0.0,0.98,0.24,0.37,30.09
2026-07-27 13:53:15.611,0.02,0.06,0.99,2.87,-0.31,30.27
2026-07-27 13:53:15.653,0.02,0.06,0.99,2.87,-0.31,30.27
2026-07-27 13:53:15.654,0.02,0.05,0.99,1.77,-0.49,6.1
2026-07-27 13:53:15.698,0.02,0.05,0.99,1.77,-0.49,6.1
2026-07-27 13:53:15.698,-0.02,0.02,0.99,0.49,-0.12,-52.8
2026-07-27 13:53:15.874,-0.02,0.01,0.99,0.0,0.24,-134.09
2026-07-27 13:53:15.874,-0.02,0.01,0.99,0.0,0.24,-134.09
2026-07-27 13:53:15.874,-0.01,-0.08,0.99,0.06,0.43,-179.38
2026-07-27 13:53:15.874,-0.01,-0.08,0.99,0.06,0.43,-179.38
2026-07-27 13:53:15.875,-0.0,-0.12,0.99,0.0,0.43,-93.32
2026-07-27 13:53:15.876,-0.0,-0.12,0.99,0.0,0.43,-93.32
2026-07-27 13:53:15.876,-0.04,0.03,1.0,-0.18,-0.06,85.69
2026-07-27 13:53:15.923,-0.09,0.14,1.0,-0.43,-0.55,202.7
2026-07-27 13:53:15.923,-0.09,0.14,1.0,-0.43,-0.55,202.7
2026-07-27 13:53:15.963,-0.03,0.07,0.99,-0.43,-0.43,181.64
2026-07-27 13:53:15.963,-0.03,0.07,0.99,-0.43,-0.43,181.64
2026-07-27 13:53:16.007,0.08,-0.04,0.99,0.0,-0.12,88.01
2026-07-27 13:53:16.007,0.12,-0.08,0.99,0.31,0.06,23.44
2026-07-27 13:53:16.048,0.12,-0.08,0.99,0.31,0.06,23.44
2026-07-27 13:53:16.049,0.11,-0.09,0.99,0.18,0.0,7.93
2026-07-27 13:53:16.092,0.11,-0.09,0.99,0.18,0.0,7.93
2026-07-27 13:53:16.092,0.08,-0.08,0.99,-0.06,0.0,11.72
2026-07-27 13:53:16.135,0.08,-0.08,0.99,-0.06,0.0,11.54
2026-07-27 13:53:16.135,0.04,-0.06,0.99,-0.06,0.0,11.54
2026-07-27 13:53:16.179,0.0,-0.03,0.99,0.06,-0.06,5.62
2026-07-27 13:53:16.179,0.0,-0.03,0.99,0.06,-0.06,5.62
2026-07-27 13:53:16.224,-0.01,-0.01,0.99,0.12,-0.12,0.31
2026-07-27 13:53:16.224,-0.01,-0.01,0.99,0.12,-0.12,0.31
2026-07-27 13:53:16.269,-0.01,-0.01,0.99,0.06,-0.12,-1.22
2026-07-27 13:53:16.354,-0.01,-0.02,0.99,-0.18,-0.12,-0.55
2026-07-27 13:53:16.354,-0.01,-0.02,0.99,-0.18,-0.12,-0.55
2026-07-27 13:53:16.355,0.0,-0.02,1.0,-0.31,-0.12,0.43
2026-07-27 13:53:16.356,0.0,-0.02,1.0,-0.31,-0.12,0.43
2026-07-27 13:53:16.397,0.01,-0.02,0.99,-0.18,-0.12,0.73
2026-07-27 13:53:16.398,0.01,-0.02,0.99,-0.18,-0.12,0.73
2026-07-27 13:53:16.442,0.01,-0.02,0.99,-0.12,-0.12,0.61
2026-07-27 13:53:16.442,0.0,-0.02,1.0,-0.06,-0.12,0.43
2026-07-27 13:53:16.485,0.0,-0.02,1.0,-0.06,-0.12,0.43
2026-07-27 13:53:16.485,0.01,-0.02,0.99,0.06,-0.12,0.37
2026-07-27 13:53:16.530,0.01,-0.02,0.99,0.06,-0.06,0.31
2026-07-27 13:53:16.530,0.01,-0.02,0.99,0.06,-0.06,0.31
2026-07-27 13:53:16.572,0.0,-0.02,0.99,-0.18,0.12,0.24
2026-07-27 13:53:16.572,0.0,-0.02,0.99,-0.18,0.12,0.24
2026-07-27 13:53:16.621,0.0,-0.02,1.0,-0.31,0.12,0.24
2026-07-27 13:53:16.622,0.0,-0.02,1.0,-0.31,0.12,0.24
2026-07-27 13:53:16.747,0.01,-0.02,0.99,-0.06,-0.06,0.24
2026-07-27 13:53:16.748,0.01,-0.02,0.99,0.06,-0.12,0.12
2026-07-27 13:53:16.748,0.01,-0.02,0.99,0.06,-0.12,0.12
2026-07-27 13:53:16.749,-0.0,-0.02,0.99,0.0,-0.06,0.06
2026-07-27 13:53:16.750,-0.0,-0.02,0.99,0.0,-0.06,0.06
2026-07-27 13:53:16.792,0.0,-0.02,0.99,-0.06,0.06,0.12
2026-07-27 13:53:16.792,0.0,-0.02,0.99,-0.06,0.06,0.12
2026-07-27 13:53:16.835,0.01,-0.02,0.99,-0.18,0.12,0.12
2026-07-27 13:53:16.835,0.0,-0.02,1.0,-0.18,0.24,0.06
2026-07-27 13:53:16.879,0.0,-0.02,1.0,-0.18,0.24,0.06
2026-07-27 13:53:16.879,-0.0,-0.02,0.99,-0.12,0.18,0.0
2026-07-27 13:53:16.923,-0.0,-0.02,0.99,-0.12,0.18,0.0
2026-07-27 13:53:16.923,0.0,-0.02,0.99,-0.06,0.12,0.06
2026-07-27 13:53:16.966,0.0,-0.02,0.99,-0.06,0.12,0.06
2026-07-27 13:53:16.967,0.0,-0.02,0.99,-0.06,0.06,0.06
2026-07-27 13:53:17.098,0.0,-0.02,0.99,-0.06,0.06,0.06
2026-07-27 13:53:17.098,0.0,-0.02,0.99,-0.06,0.06,0.06
2026-07-27 13:53:17.098,0.0,-0.02,1.0,-0.06,0.0,0.12
2026-07-27 13:53:17.099,0.0,-0.02,1.0,-0.06,0.0,0.12
2026-07-27 13:53:17.100,0.0,-0.02,0.99,0.0,-0.06,0.12
2026-07-27 13:53:17.101,0.0,-0.02,0.99,0.0,-0.06,0.12
2026-07-27 13:53:17.186,0.0,-0.02,0.99,0.06,-0.06,0.12
2026-07-27 13:53:17.186,0.0,-0.02,0.99,0.06,0.0,0.12
2026-07-27 13:53:17.186,0.0,-0.02,0.99,0.06,0.0,0.12
2026-07-27 13:53:17.186,0.0,-0.02,0.99,0.06,0.0,0.12
2026-07-27 13:53:17.229,0.0,-0.02,0.99,0.06,0.0,0.12
2026-07-27 13:53:17.229,0.0,-0.02,0.99,0.12,0.0,0.18
2026-07-27 13:53:17.275,0.0,-0.02,0.99,0.12,-0.06,0.18
2026-07-27 13:53:17.318,0.0,-0.02,0.99,0.12,-0.06,0.18
2026-07-27 13:53:17.319,0.0,-0.02,0.99,0.06,-0.06,0.18
2026-07-27 13:53:17.360,0.0,-0.02,0.99,0.06,-0.06,0.18
2026-07-27 13:53:17.360,0.0,-0.02,0.99,0.06,-0.06,0.18
2026-07-27 13:53:17.633,0.0,-0.02,0.99,0.06,-0.06,0.18
2026-07-27 13:53:17.634,0.0,-0.02,0.99,0.06,-0.06,0.18
2026-07-27 13:53:17.634,0.0,-0.02,0.99,0.06,-0.06,0.18
2026-07-27 13:53:17.634,0.0,-0.02,0.99,0.06,-0.06,0.18
2026-07-27 13:53:17.635,0.0,-0.02,0.99,0.06,-0.06,0.18
2026-07-27 13:53:17.635,0.0,-0.02,0.99,0.06,-0.06,0.18
2026-07-27 13:53:17.635,0.0,-0.02,0.99,0.06,-0.06,0.24
2026-07-27 13:53:17.635,0.0,-0.02,0.99,0.06,-0.06,0.24
2026-07-27 13:53:17.635,0.0,-0.02,0.99,0.06,-0.06,0.24
2026-07-27 13:53:17.636,0.0,-0.02,0.99,0.06,-0.12,0.24
2026-07-27 13:53:17.636,0.0,-0.02,0.99,0.06,-0.12,0.24
2026-07-27 13:53:17.636,0.0,-0.02,0.99,0.12,-0.12,0.18
2026-07-27 13:53:17.667,0.0,-0.02,0.99,0.12,-0.12,0.18
2026-07-27 13:53:17.667,0.0,-0.02,0.99,0.12,-0.12,0.18
2026-07-27 13:53:17.722,0.0,-0.02,0.99,0.12,-0.12,0.18
2026-07-27 13:53:17.722,0.0,-0.02,0.99,0.12,-0.06,0.18
2026-07-27 13:53:17.799,0.0,-0.02,0.99,0.12,-0.06,0.18
2026-07-27 13:53:17.799,0.0,-0.02,0.99,0.12,-0.06,0.18
2026-07-27 13:53:17.799,0.0,-0.02,0.99,0.12,-0.06,0.18
2026-07-27 13:53:17.799,0.0,-0.02,0.99,0.12,-0.06,0.18
2026-07-27 13:53:17.842,0.0,-0.02,0.99,0.12,-0.06,0.18
2026-07-27 13:53:17.886,0.0,-0.02,0.99,0.12,-0.12,0.18
2026-07-27 13:53:17.886,0.0,-0.02,0.99,0.12,-0.12,0.18
2026-07-27 13:53:17.931,0.0,-0.02,0.99,0.12,-0.06,0.18
2026-07-27 13:53:17.932,0.0,-0.02,0.99,0.12,-0.06,0.18
2026-07-27 13:53:17.973,0.0,-0.02,0.99,0.12,-0.06,0.18
2026-07-27 13:53:17.973,0.0,-0.02,0.99,0.12,-0.06,0.18
2026-07-27 13:53:18.017,0.0,-0.02,0.99,0.12,-0.06,0.18
2026-07-27 13:53:18.017,0.0,-0.02,0.99,0.12,-0.06,0.18
2026-07-27 13:53:18.061,0.0,-0.02,0.99,0.12,-0.06,0.18
2026-07-27 13:53:18.061,0.0,-0.02,0.99,0.12,-0.06,0.18
2026-07-27 13:53:18.148,0.0,-0.02,0.99,0.12,-0.06,0.18
2026-07-27 13:53:18.148,0.0,-0.02,0.99,0.12,-0.06,0.12
2026-07-27 13:53:18.149,0.0,-0.02,0.99,0.12,-0.06,0.12
2026-07-27 13:53:18.149,0.0,-0.02,0.99,0.12,-0.06,0.12
2026-07-27 13:53:18.238,0.0,-0.02,0.99,0.12,-0.06,0.12
2026-07-27 13:53:18.238,0.0,-0.02,0.99,0.12,-0.06,0.12
2026-07-27 13:53:18.239,0.0,-0.02,0.99,0.12,-0.06,0.18
2026-07-27 13:53:18.239,0.0,-0.02,0.99,0.12,-0.06,0.18
2026-07-27 13:53:18.279,0.0,-0.02,0.99,0.06,-0.06,0.18
2026-07-27 13:53:18.279,0.0,-0.02,0.99,0.06,-0.06,0.18
2026-07-27 13:53:18.323,0.0,-0.02,0.99,0.12,-0.06,0.18
2026-07-27 13:53:18.323,0.0,-0.02,0.99,0.12,-0.06,0.12
2026-07-27 13:53:18.367,0.0,-0.02,0.99,0.12,-0.06,0.12
2026-07-27 13:53:18.410,0.0,-0.02,0.99,0.12,-0.06,0.12
2026-07-27 13:53:18.411,0.0,-0.02,0.99,0.12,-0.06,0.12
2026-07-27 13:53:18.464,0.0,-0.02,0.99,0.12,-0.06,0.12
2026-07-27 13:53:18.466,0.0,-0.02,0.99,0.12,-0.06,0.18
2026-07-27 13:53:18.500,0.0,-0.02,0.99,0.12,-0.06,0.18
2026-07-27 13:53:18.500,0.0,-0.02,0.99,0.12,-0.12,0.18
2026-07-27 13:53:18.544,0.0,-0.02,0.99,0.12,-0.12,0.18
2026-07-27 13:53:18.548,0.0,-0.02,0.99,0.12,-0.12,0.18
2026-07-27 13:53:18.585,0.0,-0.02,0.99,0.12,-0.12,0.18
2026-07-27 13:53:18.586,0.0,-0.02,0.99,0.12,-0.12,0.18
2026-07-27 13:53:18.636,0.0,-0.02,0.99,0.12,-0.12,0.12
2026-07-27 13:53:18.637,0.0,-0.02,0.99,0.12,-0.12,0.12
2026-07-27 13:53:18.673,0.0,-0.02,0.99,0.12,-0.12,0.12
2026-07-27 13:53:18.673,0.0,-0.02,0.99,0.12,-0.12,0.12
2026-07-27 13:53:18.718,0.0,-0.02,0.99,0.12,-0.12,0.18
2026-07-27 13:53:18.718,0.0,-0.02,0.99,0.06,-0.06,0.24
2026-07-27 13:53:18.761,0.0,-0.02,0.99,0.06,-0.06,0.24
2026-07-27 13:53:18.761,0.0,-0.02,0.99,0.06,-0.06,0.18
2026-07-27 13:53:18.804,0.0,-0.02,0.99,0.06,-0.06,0.18
2026-07-27 13:53:18.805,0.0,-0.02,0.99,0.06,-0.06,0.18
2026-07-27 13:53:18.848,0.0,-0.02,0.99,0.06,-0.12,0.12
2026-07-27 13:53:18.894,0.0,-0.02,0.99,0.06,-0.12,0.12
2026-07-27 13:53:18.894,0.0,-0.02,0.99,0.06,-0.12,0.18
2026-07-27 13:53:18.936,0.0,-0.02,0.99,0.06,-0.12,0.18
2026-07-27 13:53:18.936,0.0,-0.02,0.99,0.12,-0.18,0.18
2026-07-27 13:53:19.028,0.0,-0.02,0.99,0.12,-0.18,0.18
2026-07-27 13:53:19.029,0.0,-0.02,0.99,0.18,-0.24,0.18
2026-07-27 13:53:19.029,0.0,-0.02,0.99,0.24,-0.31,0.12
2026-07-27 13:53:19.029,0.0,-0.02,0.99,0.24,-0.31,0.12
2026-07-27 13:53:19.069,0.0,-0.02,0.99,0.24,-0.24,0.18
2026-07-27 13:53:19.069,0.0,-0.02,0.99,0.24,-0.24,0.18
2026-07-27 13:53:19.110,0.0,-0.02,0.99,0.24,-0.24,0.18
2026-07-27 13:53:19.111,0.0,-0.02,0.99,0.24,-0.24,0.18
2026-07-27 13:53:19.156,0.01,-0.02,0.99,0.24,-0.18,0.18
2026-07-27 13:53:19.156,0.0,-0.02,0.99,0.18,-0.06,0.18
2026-07-27 13:53:19.198,0.0,-0.02,0.99,0.18,-0.06,0.18
2026-07-27 13:53:19.203,0.0,-0.02,0.99,0.18,-0.06,0.12
2026-07-27 13:53:19.243,0.0,-0.02,0.99,0.18,-0.06,0.12
2026-07-27 13:53:19.243,0.0,-0.02,0.99,0.18,-0.12,0.18
2026-07-27 13:53:19.286,0.0,-0.02,0.99,0.06,-0.06,0.18
2026-07-27 13:53:19.286,0.0,-0.02,0.99,0.06,-0.06,0.18
2026-07-27 13:53:19.330,0.0,-0.02,0.99,-0.06,0.06,0.12
2026-07-27 13:53:19.330,0.0,-0.02,0.99,-0.06,0.06,0.12
2026-07-27 13:53:19.374,0.0,-0.02,0.99,-0.06,0.12,0.12
2026-07-27 13:53:19.374,0.0,-0.02,0.99,-0.06,0.12,0.12
