Timestamp,AccX,AccY,AccZ,GyroX,GyroY,GyroZ
2026-07-27 13:38:18.557,0.01,-0.24,0.98,-97.78,-42.6,-6.23
2026-07-27 13:38:18.557,0.03,-0.28,0.97,-78.19,-27.34,-6.1
2026-07-27 13:38:18.558,-0.01,-0.26,1.05,-45.23,-6.16,-0.12
2026-07-27 13:38:18.558,-0.01,-0.26,1.05,-45.23,-6.16,-0.12
2026-07-27 13:38:18.558,-0.1,-0.16,1.15,-11.6,20.14,5.86
2026-07-27 13:38:18.652,-0.1,-0.16,1.15,-11.6,20.14,5.86
2026-07-27 13:38:18.652,-0.19,-0.03,1.12,15.14,55.18,-5.31
2026-07-27 13:38:18.653,-0.19,-0.03,1.12,26.67,101.93,-49.01
2026-07-27 13:38:18.653,-0.23,0.02,1.04,26.67,101.93,-49.01
2026-07-27 13:38:18.672,-0.19,-0.01,1.07,10.44,181.88,-115.78
2026-07-27 13:38:18.672,-0.19,-0.01,1.07,10.44,181.88,-115.78
2026-07-27 13:38:18.672,-0.13,-0.15,0.98,-2.93,249.39,-101.07
2026-07-27 13:38:18.672,-0.13,-0.15,0.98,-2.93,249.39,-101.07
2026-07-27 13:38:18.672,-0.24,-0.3,0.78,-4.39,187.5,31.56
2026-07-27 13:38:18.693,-0.4,-0.34,0.63,-13.98,39.12,109.13
2026-07-27 13:38:18.720,-0.4,-0.34,0.63,-13.98,39.12,109.13
2026-07-27 13:38:18.782,-0.44,-0.42,0.63,-18.07,-65.06,54.69
2026-07-27 13:38:18.783,-0.44,-0.42,0.63,-18.07,-65.06,54.69
2026-07-27 13:38:18.783,-0.46,-0.48,0.77,-23.74,-95.7,-30.64
2026-07-27 13:38:18.903,-0.46,-0.48,0.77,-23.74,-95.7,-30.64
2026-07-27 13:38:18.903,-0.47,-0.47,0.86,-30.7,-76.11,-58.11
2026-07-27 13:38:18.904,-0.46,-0.45,0.86,-30.58,-39.55,-40.1
2026-07-27 13:38:18.904,-0.46,-0.45,0.86,-30.58,-39.55,-40.1
2026-07-27 13:38:18.904,-0.43,-0.42,0.83,-28.87,-21.97,-39.79
2026-07-27 13:38:18.961,-0.43,-0.42,0.83,-28.87,-21.97,-39.79
2026-07-27 13:38:18.962,-0.36,-0.36,0.76,-3.42,-37.29,-69.82
2026-07-27 13:38:18.962,-0.36,-0.36,0.76,-3.42,-37.29,-69.82
2026-07-27 13:38:19.024,-0.28,-0.21,0.73,106.32,-102.84,-119.45
2026-07-27 13:38:19.027,-0.15,-0.08,0.8,229.49,-181.58,-141.48
2026-07-27 13:38:19.080,-0.15,-0.08,0.8,229.49,-181.58,-141.48
2026-07-27 13:38:19.080,-0.07,-0.05,0.82,214.29,-137.33,-73.3
2026-07-27 13:38:19.080,-0.07,-0.05,0.82,214.29,-137.33,-73.3
2026-07-27 13:38:19.339,0.08,-0.09,0.78,84.53,-20.94,-34.55
2026-07-27 13:38:19.339,0.08,-0.09,0.78,84.53,-20.94,-34.55
2026-07-27 13:38:19.383,0.4,-0.16,0.78,-9.46,32.04,-92.22
2026-07-27 13:38:19.384,0.52,-0.11,0.93,-9.52,14.47,-114.87
2026-07-27 13:38:19.384,0.52,-0.11,0.93,-9.52,14.47,-114.87
2026-07-27 13:38:19.384,0.3,0.02,1.21,8.54,-39.73,-80.2
2026-07-27 13:38:19.384,0.3,0.02,1.21,8.54,-39.73,-80.2
2026-07-27 13:38:19.384,0.07,0.05,1.27,6.59,-53.83,-64.51
2026-07-27 13:38:19.384,0.07,0.05,1.27,6.59,-53.83,-64.51
2026-07-27 13:38:19.384,0.03,0.01,1.13,-17.64,-18.62,-95.64
2026-07-27 13:38:19.384,0.15,-0.04,1.06,-39.98,15.62,-121.22
2026-07-27 13:38:19.384,0.15,-0.04,1.06,-39.98,15.62,-121.22
2026-07-27 13:38:19.385,0.34,-0.1,1.04,-0.55,35.77,-130.25
2026-07-27 13:38:19.453,0.34,-0.1,1.04,-0.55,35.77,-130.25
2026-07-27 13:38:19.453,0.37,-0.08,1.05,70.07,41.99,-125.73
2026-07-27 13:38:19.453,0.37,-0.08,1.05,70.07,41.99,-125.73
2026-07-27 13:38:19.518,0.3,0.08,1.18,131.65,28.5,-76.29
2026-07-27 13:38:19.518,0.3,0.08,1.18,167.48,-16.91,0.49
2026-07-27 13:38:19.571,0.22,0.29,1.23,167.48,-16.91,0.49
2026-07-27 13:38:19.571,0.1,0.42,1.17,145.63,-60.06,38.82
2026-07-27 13:38:19.571,0.1,0.42,1.17,145.63,-60.06,38.82
2026-07-27 13:38:19.755,-0.01,0.45,1.06,72.02,-45.1,-6.9
2026-07-27 13:38:19.755,-0.01,0.45,1.06,72.02,-45.1,-6.9
2026-07-27 13:38:19.755,-0.05,0.44,0.96,-11.6,-6.1,-76.23
2026-07-27 13:38:19.755,-0.05,0.44,0.96,-11.6,-6.1,-76.23
2026-07-27 13:38:19.755,-0.04,0.51,0.95,-58.35,13.06,-110.17
2026-07-27 13:38:19.755,-0.05,0.58,0.98,-73.61,21.42,-114.07
2026-07-27 13:38:19.756,-0.05,0.58,0.98,-73.61,21.42,-114.07
2026-07-27 13:38:19.756,-0.03,0.46,0.95,-91.0,29.36,-91.61
2026-07-27 13:38:19.951,-0.03,0.46,0.95,-91.0,29.36,-91.61
2026-07-27 13:38:19.951,-0.04,0.25,0.9,-131.41,34.42,-79.83
2026-07-27 13:38:19.951,-0.04,0.25,0.9,-131.41,34.42,-79.83
2026-07-27 13:38:19.952,-0.1,0.06,0.89,-176.45,31.74,-100.34
2026-07-27 13:38:19.952,-0.13,-0.12,0.94,-182.43,24.96,-108.58
2026-07-27 13:38:19.952,-0.13,-0.12,0.94,-182.43,24.96,-108.58
2026-07-27 13:38:19.952,-0.03,-0.25,0.94,-134.22,3.78,-78.43
2026-07-27 13:38:19.952,-0.03,-0.25,0.94,-134.22,3.78,-78.43
2026-07-27 13:38:20.241,0.12,-0.26,0.86,-55.18,-36.13,-39.18
2026-07-27 13:38:20.242,0.12,-0.26,0.86,-55.18,-36.13,-39.18
2026-07-27 13:38:20.242,0.2,-0.16,0.75,22.03,-51.45,-30.76
2026-07-27 13:38:20.242,0.18,-0.05,0.73,79.59,-33.45,-43.46
2026-07-27 13:38:20.242,0.18,-0.05,0.73,79.59,-33.45,-43.46
2026-07-27 13:38:20.242,0.21,0.05,0.74,135.93,-34.0,-45.23
2026-07-27 13:38:20.242,0.21,0.05,0.74,135.93,-34.0,-45.23
2026-07-27 13:38:20.242,0.23,0.18,0.79,172.3,-45.1,-36.32
2026-07-27 13:38:20.242,0.23,0.18,0.79,172.3,-45.1,-36.32
2026-07-27 13:38:20.242,0.15,0.35,0.95,138.92,-24.72,-36.07
2026-07-27 13:38:20.242,0.15,0.35,0.95,65.86,14.28,-54.02
2026-07-27 13:38:20.242,-0.01,0.49,1.07,65.86,14.28,-54.02
2026-07-27 13:38:20.243,-0.14,0.5,1.06,3.66,37.17,-61.58
2026-07-27 13:38:20.350,-0.14,0.5,1.06,3.66,37.17,-61.58
2026-07-27 13:38:20.363,-0.18,0.33,0.97,-31.98,25.45,-30.27
2026-07-27 13:38:20.363,-0.18,0.33,0.97,-31.98,25.45,-30.27
2026-07-27 13:38:20.363,-0.08,0.13,0.93,-36.07,-9.28,23.62
2026-07-27 13:38:20.363,-0.08,0.13,0.93,-36.07,-9.28,23.62
2026-07-27 13:38:20.406,0.08,0.05,0.98,-14.34,-33.57,63.84
2026-07-27 13:38:20.423,0.17,0.08,1.04,14.4,-31.98,66.59
2026-07-27 13:38:20.423,0.17,0.08,1.04,14.4,-31.98,66.59
2026-07-27 13:38:20.524,0.15,0.17,1.04,30.82,-18.25,42.54
2026-07-27 13:38:20.529,0.15,0.17,1.04,30.82,-18.25,42.54
2026-07-27 13:38:20.531,0.08,0.24,1.0,30.09,-7.63,18.98
2026-07-27 13:38:20.531,0.05,0.27,0.97,21.48,-3.3,6.77
2026-07-27 13:38:20.531,0.05,0.27,0.97,21.48,-3.3,6.77
2026-07-27 13:38:20.661,0.05,0.26,0.96,12.51,-3.05,4.33
2026-07-27 13:38:20.677,0.05,0.26,0.96,12.51,-3.05,4.33
2026-07-27 13:38:20.677,0.07,0.25,0.94,10.86,-7.02,6.9
2026-07-27 13:38:20.677,0.07,0.25,0.94,10.86,-7.02,6.9
2026-07-27 13:38:20.677,0.11,0.28,0.91,16.42,-12.51,10.38
2026-07-27 13:38:20.677,0.11,0.28,0.91,16.42,-12.51,10.38
2026-07-27 13:38:20.759,0.15,0.29,0.91,15.81,-11.47,11.41
2026-07-27 13:38:20.760,0.17,0.28,0.94,6.35,-3.23,8.67
2026-07-27 13:38:20.761,0.17,0.28,0.94,6.35,-3.23,8.67
2026-07-27 13:38:20.762,0.17,0.27,0.96,-3.05,5.0,4.27
2026-07-27 13:38:20.762,0.17,0.27,0.96,-3.05,5.0,4.27
2026-07-27 13:38:20.826,0.16,0.26,0.96,-8.24,7.45,1.04
2026-07-27 13:38:20.834,0.16,0.26,0.96,-8.24,7.45,1.04
2026-07-27 13:38:20.885,0.16,0.26,0.94,-9.34,5.31,-0.06
2026-07-27 13:38:20.899,0.16,0.26,0.94,-9.34,5.31,-0.06
2026-07-27 13:38:20.900,0.16,0.26,0.93,-8.36,3.78,-0.06
2026-07-27 13:38:20.939,0.16,0.26,0.93,-6.23,3.42,0.49
2026-07-27 13:38:20.941,0.16,0.27,0.95,-6.23,3.42,0.49
2026-07-27 13:38:20.943,0.14,0.28,0.97,-3.66,0.92,2.38
2026-07-27 13:38:21.063,0.14,0.28,0.97,-3.66,0.92,2.38
2026-07-27 13:38:21.074,0.11,0.27,0.96,-2.69,-2.93,7.81
2026-07-27 13:38:21.074,0.11,0.27,0.96,-2.69,-2.93,7.81
2026-07-27 13:38:21.074,0.08,0.24,0.95,-3.48,-4.09,16.54
2026-07-27 13:38:21.075,0.08,0.24,0.95,-3.48,-4.09,16.54
2026-07-27 13:38:21.179,0.05,0.21,0.97,-4.27,0.37,20.39
2026-07-27 13:38:21.180,0.01,0.22,0.98,-3.78,6.71,9.22
2026-07-27 13:38:21.181,0.01,0.22,0.98,-3.78,6.71,9.22
2026-07-27 13:38:21.181,-0.03,0.27,0.96,-3.23,9.52,-15.56
2026-07-27 13:38:21.182,-0.03,0.27,0.96,-3.23,9.52,-15.56
2026-07-27 13:38:21.422,-0.06,0.33,0.94,-2.26,8.42,-47.73
2026-07-27 13:38:21.422,-0.06,0.33,0.94,-2.26,8.42,-47.73
2026-07-27 13:38:21.422,-0.09,0.39,0.94,2.44,7.14,-82.03
2026-07-27 13:38:21.423,-0.09,0.39,0.94,2.44,7.14,-82.03
2026-07-27 13:38:21.429,-0.12,0.38,0.98,2.75,8.06,-100.34
2026-07-27 13:38:21.429,-0.13,0.26,1.04,-14.71,6.59,-87.65
2026-07-27 13:38:21.429,-0.13,0.26,1.04,-14.71,6.59,-87.65
2026-07-27 13:38:21.429,-0.09,0.14,1.14,-42.24,2.56,-73.43
2026-07-27 13:38:21.429,-0.09,0.14,1.14,-42.24,2.56,-73.43
2026-07-27 13:38:21.433,0.05,0.08,1.22,-59.02,-1.34,-92.77
2026-07-27 13:38:21.435,0.05,0.08,1.22,-59.02,-1.34,-92.77
2026-07-27 13:38:21.435,0.27,0.07,1.19,-60.12,-15.32,-135.07
2026-07-27 13:38:21.489,0.27,0.07,1.19,-60.12,-15.32,-135.07
2026-07-27 13:38:21.491,0.33,0.17,1.01,-50.72,-42.48,-174.56
2026-07-27 13:38:21.666,0.22,0.32,0.79,-38.33,-60.12,-181.09
2026-07-27 13:38:21.673,0.22,0.32,0.79,-38.33,-60.12,-181.09
2026-07-27 13:38:21.673,0.12,0.35,0.7,-34.42,-51.76,-137.33
2026-07-27 13:38:21.673,0.12,0.35,0.7,-34.42,-51.76,-137.33
2026-07-27 13:38:21.673,0.13,0.21,0.74,-37.05,-28.69,-71.47
2026-07-27 13:38:21.673,0.13,0.21,0.74,-37.05,-28.69,-71.47
2026-07-27 13:38:21.673,0.19,0.01,0.86,-35.64,-7.63,-24.05
2026-07-27 13:38:21.673,0.25,-0.12,0.98,-25.27,2.81,-15.44
2026-07-27 13:38:21.719,0.25,-0.12,0.98,-25.27,2.81,-15.44
2026-07-27 13:38:21.720,0.26,-0.11,1.02,-8.12,0.31,-39.98
2026-07-27 13:38:21.722,0.26,-0.11,1.02,-8.12,0.31,-39.98
2026-07-27 13:38:21.785,0.24,-0.03,1.0,5.19,-8.85,-68.24
2026-07-27 13:38:21.785,0.24,-0.03,1.0,5.19,-8.85,-68.24
2026-07-27 13:38:22.019,0.23,0.01,0.97,8.42,-15.62,-74.4
2026-07-27 13:38:22.020,0.23,0.01,0.97,8.42,-15.62,-74.4
2026-07-27 13:38:22.020,0.24,0.01,0.93,7.2,-17.27,-61.77
2026-07-27 13:38:22.020,0.25,0.02,0.91,8.67,-16.05,-50.11
2026-07-27 13:38:22.020,0.25,0.02,0.91,8.67,-16.05,-50.11
2026-07-27 13:38:22.021,0.27,0.03,0.91,13.37,-13.24,-46.39
2026-07-27 13:38:22.021,0.27,0.03,0.91,13.37,-13.24,-46.39
2026-07-27 13:38:22.022,0.26,0.02,0.93,18.92,-8.85,-40.41
2026-07-27 13:38:22.023,0.26,0.02,0.93,18.92,-8.85,-40.41
2026-07-27 13:38:22.023,0.22,-0.01,0.99,23.19,-3.54,-26.43
2026-07-27 13:38:22.024,0.22,-0.01,0.99,24.17,0.31,-15.69
2026-07-27 13:38:22.559,0.19,-0.02,1.07,24.17,0.31,-15.69
2026-07-27 13:38:22.560,0.17,0.04,1.13,21.55,-2.32,-23.5
2026-07-27 13:38:22.560,0.17,0.04,1.13,21.55,-2.32,-23.5
2026-07-27 13:38:22.561,0.09,0.16,1.08,18.68,-11.23,-43.88
2026-07-27 13:38:22.561,0.09,0.16,1.08,18.68,-11.23,-43.88
2026-07-27 13:38:22.561,-0.02,0.24,1.0,18.01,-12.51,-54.14
2026-07-27 13:38:22.561,-0.02,0.24,1.0,18.01,-12.51,-54.14
2026-07-27 13:38:22.562,-0.02,0.2,0.98,8.18,3.85,-39.79
2026-07-27 13:38:22.563,0.02,0.19,0.97,-12.94,20.63,-29.66
2026-07-27 13:38:22.563,0.02,0.19,0.97,-12.94,20.63,-29.66
2026-07-27 13:38:22.563,0.01,0.29,0.93,-22.09,25.94,-60.49
2026-07-27 13:38:22.564,0.01,0.29,0.93,-22.09,25.94,-60.49
2026-07-27 13:38:22.565,-0.03,0.38,0.92,-11.47,34.0,-100.16
2026-07-27 13:38:22.682,-0.03,0.38,0.92,-11.47,34.0,-100.16
2026-07-27 13:38:22.684,-0.05,0.38,0.94,0.12,44.98,-102.91
2026-07-27 13:38:22.689,-0.04,0.33,0.96,-1.89,46.39,-74.46
2026-07-27 13:38:22.689,-0.04,0.33,0.96,-1.89,46.39,-74.46
2026-07-27 13:38:22.689,0.02,0.27,0.97,-8.79,39.31,-48.28
2026-07-27 13:38:22.689,0.02,0.27,0.97,-8.79,39.31,-48.28
2026-07-27 13:38:22.689,0.1,0.3,0.97,-0.37,31.07,-56.21
2026-07-27 13:38:22.689,0.1,0.3,0.97,-0.37,31.07,-56.21
2026-07-27 13:38:22.689,0.11,0.46,0.95,23.68,21.61,-86.43
2026-07-27 13:38:22.690,0.04,0.56,0.93,35.71,12.63,-83.37
2026-07-27 13:38:22.690,0.04,0.56,0.93,35.71,12.63,-83.37
2026-07-27 13:38:22.690,-0.05,0.48,0.93,20.14,11.6,-23.93
2026-07-27 13:38:22.690,-0.05,0.48,0.93,20.14,11.6,-23.93
2026-07-27 13:38:22.690,-0.14,0.31,0.95,-6.23,16.48,48.1
2026-07-27 13:38:22.690,-0.14,0.31,0.95,-6.23,16.48,48.1
2026-07-27 13:38:22.691,-0.19,0.2,0.97,-20.32,20.26,81.85
2026-07-27 13:38:22.859,-0.17,0.16,0.98,-14.71,21.42,73.12
2026-07-27 13:38:22.863,-0.17,0.16,0.98,-14.71,21.42,73.12
2026-07-27 13:38:22.872,-0.1,0.16,0.99,-0.49,21.3,45.65
2026-07-27 13:38:22.872,-0.1,0.16,0.99,-0.49,21.3,45.65
2026-07-27 13:38:22.872,-0.01,0.2,1.02,9.16,18.62,18.43
2026-07-27 13:38:22.872,-0.01,0.2,1.02,9.16,18.62,18.43
2026-07-27 13:38:22.872,0.05,0.23,1.04,8.3,11.35,2.56
2026-07-27 13:38:22.872,0.05,0.23,1.04,8.3,11.35,2.56
2026-07-27 13:38:23.039,0.06,0.23,1.07,-1.83,-0.31,0.06
2026-07-27 13:38:23.039,0.06,0.23,1.07,-16.66,-15.69,4.46
2026-07-27 13:38:23.040,-0.0,0.22,1.08,-16.66,-15.69,4.46
2026-07-27 13:38:23.040,-0.11,0.24,1.04,-29.72,-30.4,4.46
2026-07-27 13:38:23.040,-0.11,0.24,1.04,-29.72,-30.4,4.46
2026-07-27 13:38:23.041,-0.22,0.27,1.02,-35.71,-35.71,-8.06
2026-07-27 13:38:23.041,-0.22,0.27,1.02,-35.71,-35.71,-8.06
2026-07-27 13:38:23.042,-0.26,0.24,0.99,-35.83,-27.1,-12.45
2026-07-27 13:38:23.222,-0.26,0.24,0.99,-35.83,-27.1,-12.45
2026-07-27 13:38:23.228,-0.24,0.14,0.91,-35.22,-13.98,10.74
2026-07-27 13:38:23.228,-0.21,0.07,0.83,-35.16,-6.1,34.06
2026-07-27 13:38:23.228,-0.21,0.07,0.83,-35.16,-6.1,34.06
2026-07-27 13:38:23.229,-0.16,0.04,0.84,-30.7,-2.87,31.68
2026-07-27 13:38:23.229,-0.16,0.04,0.84,-30.7,-2.87,31.68
2026-07-27 13:38:23.229,-0.05,-0.08,0.94,-23.25,-0.24,16.17
2026-07-27 13:38:23.229,-0.05,-0.08,0.94,-23.25,-0.24,16.17
2026-07-27 13:38:23.286,0.05,-0.17,1.11,-17.33,6.16,2.93
2026-07-27 13:38:23.286,0.05,-0.17,1.11,-17.33,6.16,2.93
2026-07-27 13:38:23.290,0.05,-0.06,1.18,-9.95,9.16,-11.41
2026-07-27 13:38:23.399,0.01,0.11,1.04,-9.34,-1.28,-14.77
2026-07-27 13:38:23.400,0.01,0.11,1.04,-9.34,-1.28,-14.77
2026-07-27 13:38:23.400,0.02,0.14,0.85,-24.23,-14.89,13.67
2026-07-27 13:38:23.400,0.02,0.14,0.85,-24.23,-14.89,13.67
2026-07-27 13:38:23.406,0.04,0.1,0.76,-35.89,-18.13,56.88
2026-07-27 13:38:23.465,0.04,0.1,0.76,-35.89,-18.13,56.88
2026-07-27 13:38:23.469,0.03,0.09,0.82,-32.04,-15.75,87.59
2026-07-27 13:38:23.473,0.03,0.09,0.82,-23.44,-17.4,110.47
2026-07-27 13:38:23.762,-0.04,0.07,0.95,-23.44,-17.4,110.47
2026-07-27 13:38:23.882,-0.14,-0.04,1.06,-15.87,-18.55,143.74
2026-07-27 13:38:23.902,-0.14,-0.04,1.06,-15.87,-18.55,143.74
2026-07-27 13:38:23.902,-0.1,-0.12,1.24,-26.49,-8.79,162.78
2026-07-27 13:38:23.902,-0.1,-0.12,1.24,-26.49,-8.79,162.78
2026-07-27 13:38:23.903,0.06,-0.15,1.4,-78.43,-3.36,146.85
2026-07-27 13:38:23.903,0.06,-0.15,1.4,-78.43,-3.36,146.85
2026-07-27 13:38:23.903,0.02,-0.14,1.16,-128.78,-36.32,118.71
2026-07-27 13:38:23.904,-0.24,-0.13,0.73,-100.83,-73.73,82.03
2026-07-27 13:38:23.904,-0.24,-0.13,0.73,-100.83,-73.73,82.03
2026-07-27 13:38:23.904,-0.3,-0.15,0.63,-19.78,-51.39,30.58
2026-07-27 13:38:23.910,-0.3,-0.15,0.63,-19.78,-51.39,30.58
2026-07-27 13:38:23.917,-0.15,-0.13,0.79,39.37,6.29,-22.64
2026-07-27 13:38:23.918,-0.15,-0.13,0.79,39.37,6.29,-22.64
2026-07-27 13:38:23.918,-0.01,-0.06,0.99,58.59,47.06,-61.46
2026-07-27 13:38:23.918,0.03,0.05,1.12,46.69,56.76,-72.02
2026-07-27 13:38:23.918,0.03,0.05,1.12,46.69,56.76,-72.02
2026-07-27 13:38:23.918,-0.02,0.09,1.09,16.66,40.53,-53.89
2026-07-27 13:38:23.918,-0.02,0.09,1.09,16.66,40.53,-53.89
2026-07-27 13:38:24.059,-0.07,-0.01,0.96,-13.92,15.87,-24.66
2026-07-27 13:38:24.060,-0.07,-0.01,0.96,-13.92,15.87,-24.66
2026-07-27 13:38:24.060,-0.06,-0.18,0.91,-19.1,7.2,-2.5
2026-07-27 13:38:24.061,0.03,-0.38,1.01,-0.49,20.45,6.47
2026-07-27 13:38:24.061,0.03,-0.38,1.01,-0.49,20.45,6.47
2026-07-27 13:38:24.061,0.16,-0.55,1.11,5.13,25.76,3.54
2026-07-27 13:38:24.061,0.16,-0.55,1.11,5.13,25.76,3.54
2026-07-27 13:38:24.488,0.2,-0.54,1.08,-7.32,5.0,-14.59
2026-07-27 13:38:24.495,0.2,-0.54,1.08,-7.32,5.0,-14.59
2026-07-27 13:38:24.548,0.17,-0.42,1.01,-17.27,-20.69,-32.84
2026-07-27 13:38:24.559,0.17,-0.42,1.01,-17.27,-20.69,-32.84
2026-07-27 13:38:24.559,0.1,-0.38,0.95,-23.56,-34.3,-26.43
2026-07-27 13:38:24.559,-0.0,-0.49,0.91,-30.33,-35.89,-5.31
2026-07-27 13:38:24.559,-0.0,-0.49,0.91,-30.33,-35.89,-5.31
2026-07-27 13:38:24.560,-0.09,-0.24,1.0,-35.58,-23.25,-16.66
2026-07-27 13:38:24.560,-0.09,-0.24,1.0,-35.58,-23.25,-16.66
2026-07-27 13:38:24.560,-0.1,0.17,1.16,-42.6,-2.2,-40.65
2026-07-27 13:38:24.560,-0.1,0.17,1.16,-42.6,-2.2,-40.65
2026-07-27 13:38:24.560,-0.08,-0.02,1.01,-63.23,-16.3,17.76
2026-07-27 13:38:24.560,-0.08,-0.02,1.01,-63.23,-16.3,17.76
2026-07-27 13:38:24.564,-0.15,-0.32,0.71,-64.64,-48.77,80.44
2026-07-27 13:38:24.573,-0.14,-0.36,0.67,-24.66,-35.1,55.66
2026-07-27 13:38:24.573,-0.14,-0.36,0.67,-24.66,-35.1,55.66
2026-07-27 13:38:24.573,-0.03,-0.33,0.81,18.43,6.65,5.86
2026-07-27 13:38:24.574,-0.03,-0.33,0.81,18.43,6.65,5.86
2026-07-27 13:38:24.574,0.02,-0.25,0.99,40.16,38.51,-33.26
2026-07-27 13:38:24.574,0.02,-0.17,1.08,33.02,46.81,-52.61
2026-07-27 13:38:24.574,0.02,-0.17,1.08,33.02,46.81,-52.61
2026-07-27 13:38:25.041,-0.01,-0.16,1.05,8.61,31.92,-44.92
2026-07-27 13:38:25.045,-0.01,-0.16,1.05,8.61,31.92,-44.92
2026-07-27 13:38:25.048,-0.01,-0.23,0.94,-2.62,15.38,-23.07
2026-07-27 13:38:25.059,-0.01,-0.23,0.94,-2.62,15.38,-23.07
2026-07-27 13:38:25.060,0.03,-0.31,0.85,6.84,10.56,-11.66
2026-07-27 13:38:25.060,0.03,-0.31,0.85,17.94,13.37,-8.42
2026-07-27 13:38:25.060,0.1,-0.42,0.9,17.94,13.37,-8.42
2026-07-27 13:38:25.060,0.12,-0.52,1.05,24.48,18.74,-6.59
2026-07-27 13:38:25.060,0.12,-0.52,1.05,24.48,18.74,-6.59
2026-07-27 13:38:25.060,0.12,-0.56,1.13,22.52,15.01,-10.74
2026-07-27 13:38:25.060,0.12,-0.56,1.13,22.52,15.01,-10.74
2026-07-27 13:38:25.062,0.13,-0.56,1.05,3.17,-8.97,-19.04
2026-07-27 13:38:25.062,0.13,-0.56,1.05,3.17,-8.97,-19.04
2026-07-27 13:38:25.064,0.1,-0.48,0.92,-16.78,-34.0,-29.36
2026-07-27 13:38:25.064,0.1,-0.48,0.92,-16.42,-32.65,-36.38
2026-07-27 13:38:25.064,0.04,-0.29,0.89,-16.42,-32.65,-36.38
2026-07-27 13:38:25.064,-0.02,-0.02,0.98,-2.38,-9.77,-22.46
2026-07-27 13:38:25.064,-0.02,-0.02,0.98,-2.38,-9.77,-22.46
2026-07-27 13:38:25.065,-0.02,-0.01,1.02,-6.35,5.86,32.41
2026-07-27 13:38:25.065,-0.02,-0.01,1.02,-6.35,5.86,32.41
2026-07-27 13:38:25.069,-0.08,-0.2,0.87,-33.2,-8.54,83.07
2026-07-27 13:38:25.070,-0.08,-0.2,0.87,-33.2,-8.54,83.07
2026-07-27 13:38:25.169,-0.21,-0.25,0.72,-36.25,-25.76,74.77
2026-07-27 13:38:25.173,-0.22,-0.24,0.77,-7.02,-9.89,41.2
2026-07-27 13:38:25.178,-0.22,-0.24,0.77,-7.02,-9.89,41.2
2026-07-27 13:38:25.183,-0.12,-0.23,0.92,15.26,15.56,19.84
2026-07-27 13:38:25.189,-0.12,-0.23,0.92,15.26,15.56,19.84
2026-07-27 13:38:25.385,-0.01,-0.24,1.04,13.49,23.32,5.86
2026-07-27 13:38:25.413,-0.01,-0.24,1.04,13.49,23.32,5.86
2026-07-27 13:38:25.413,0.05,-0.25,1.09,7.14,21.61,-7.08
2026-07-27 13:38:25.413,0.05,-0.25,1.09,7.14,21.61,-7.08
2026-07-27 13:38:25.413,0.03,-0.25,1.05,13.61,17.09,-18.68
2026-07-27 13:38:25.413,-0.03,-0.27,0.98,16.72,5.62,-18.8
2026-07-27 13:38:25.413,-0.03,-0.27,0.98,16.72,5.62,-18.8
2026-07-27 13:38:25.414,-0.04,-0.3,0.97,7.39,-1.53,-9.22
2026-07-27 13:38:25.414,-0.04,-0.3,0.97,7.39,-1.53,-9.22
2026-07-27 13:38:25.422,0.02,-0.32,0.96,1.4,-1.59,-7.32
2026-07-27 13:38:25.431,0.02,-0.32,0.96,1.4,-1.59,-7.32
2026-07-27 13:38:25.501,0.15,-0.46,0.91,2.75,-7.81,1.95
2026-07-27 13:38:25.511,0.15,-0.46,0.91,2.75,-7.81,1.95
2026-07-27 13:38:25.511,0.25,-0.59,0.91,2.99,-13.85,25.02
2026-07-27 13:38:25.511,0.25,-0.59,0.91,4.7,-16.97,22.52
2026-07-27 13:38:25.511,0.21,-0.45,0.96,4.7,-16.97,22.52
2026-07-27 13:38:25.997,0.1,-0.19,0.97,7.93,-29.36,9.58
2026-07-27 13:38:26.007,0.1,-0.19,0.97,7.93,-29.36,9.58
2026-07-27 13:38:26.021,0.04,-0.07,0.91,14.04,-45.65,43.46
2026-07-27 13:38:26.021,0.04,-0.07,0.91,14.04,-45.65,43.46
2026-07-27 13:38:26.021,0.05,-0.12,0.84,30.33,-51.03,113.1
2026-07-27 13:38:26.021,0.05,-0.12,0.84,30.33,-51.03,113.1
2026-07-27 13:38:26.022,0.06,-0.24,0.86,48.03,-43.58,161.32
2026-07-27 13:38:26.022,0.04,-0.23,1.01,61.89,-32.96,160.28
2026-07-27 13:38:26.022,0.04,-0.23,1.01,61.89,-32.96,160.28
2026-07-27 13:38:26.022,0.01,-0.19,1.18,75.44,-36.62,128.97
2026-07-27 13:38:26.022,0.01,-0.19,1.18,75.44,-36.62,128.97
2026-07-27 13:38:26.022,-0.03,-0.29,1.16,85.51,-58.23,79.96
2026-07-27 13:38:26.022,-0.03,-0.29,1.16,85.51,-58.23,79.96
2026-07-27 13:38:26.022,-0.04,-0.05,1.01,93.14,-65.92,-0.61
2026-07-27 13:38:26.023,-0.04,-0.05,1.01,90.21,-40.77,-48.16
2026-07-27 13:38:26.023,0.04,0.37,0.92,90.21,-40.77,-48.16
2026-07-27 13:38:26.023,0.08,0.37,0.9,67.63,-9.09,6.16
2026-07-27 13:38:26.023,0.08,0.37,0.9,67.63,-9.09,6.16
2026-07-27 13:38:26.023,-0.08,0.18,0.89,45.96,10.99,75.01
2026-07-27 13:38:26.023,-0.08,0.18,0.89,45.96,10.99,75.01
2026-07-27 13:38:26.023,-0.23,0.07,0.9,31.74,23.19,77.64
2026-07-27 13:38:26.023,-0.23,0.07,0.9,31.74,23.19,77.64
2026-07-27 13:38:26.111,-0.13,0.05,0.98,3.42,26.86,43.09
2026-07-27 13:38:26.111,0.02,0.05,1.05,-30.82,14.22,2.5
2026-07-27 13:38:26.165,0.02,0.05,1.05,-30.82,14.22,2.5
2026-07-27 13:38:26.165,0.07,-0.0,1.12,-41.56,0.98,-24.54
2026-07-27 13:38:26.165,0.07,-0.0,1.12,-41.56,0.98,-24.54
2026-07-27 13:38:26.177,0.22,-0.07,1.21,-29.48,15.99,-19.71
2026-07-27 13:38:26.177,0.22,-0.07,1.21,-29.48,15.99,-19.71
2026-07-27 13:38:26.283,0.33,-0.02,1.15,-16.72,29.54,2.08
2026-07-27 13:38:26.283,0.33,-0.02,1.15,-16.72,29.54,2.08
2026-07-27 13:38:26.283,0.33,-0.02,1.15,-16.72,29.54,2.08
2026-07-27 13:38:26.284,0.33,-0.02,1.15,-16.72,29.54,2.08
2026-07-27 13:38:26.284,0.03,0.13,0.7,24.23,3.6,35.52
2026-07-27 13:38:26.284,0.03,0.13,0.7,24.23,3.6,35.52
2026-07-27 13:38:26.345,-0.01,0.09,0.77,44.13,30.82,52.37
2026-07-27 13:38:26.359,0.01,0.08,0.93,53.34,55.6,45.1
2026-07-27 13:38:26.359,0.01,0.08,0.93,53.34,55.6,45.1
2026-07-27 13:38:26.521,0.03,0.14,1.07,55.3,56.64,24.54
2026-07-27 13:38:26.529,0.03,0.14,1.07,55.3,56.64,24.54
2026-07-27 13:38:26.529,0.04,0.21,1.11,42.42,39.79,24.11
2026-07-27 13:38:26.532,0.06,0.18,1.08,11.84,11.6,49.68
2026-07-27 13:38:26.572,0.06,0.18,1.08,11.84,11.6,49.68
2026-07-27 13:38:26.608,0.06,0.1,1.02,-20.32,-21.73,67.5
2026-07-27 13:38:26.608,0.06,0.1,1.02,-20.32,-21.73,67.5
2026-07-27 13:38:26.612,0.05,0.11,1.0,-34.3,-47.91,51.39
2026-07-27 13:38:26.613,0.05,0.11,1.0,-34.3,-47.91,51.39
2026-07-27 13:38:26.613,0.05,0.18,1.03,-28.5,-59.69,18.31
2026-07-27 13:38:26.638,0.05,0.18,1.03,-28.5,-59.69,18.31
2026-07-27 13:38:26.640,0.05,0.26,1.06,-14.65,-58.53,-2.01
2026-07-27 13:38:26.640,0.03,0.36,1.04,1.53,-46.2,-7.39
2026-07-27 13:38:26.706,0.03,0.36,1.04,1.53,-46.2,-7.39
2026-07-27 13:38:26.712,0.02,0.42,0.96,14.1,-28.81,-6.96
2026-07-27 13:38:26.717,0.02,0.42,0.96,14.1,-28.81,-6.96
2026-07-27 13:38:26.761,0.07,0.38,0.9,11.84,-15.93,6.23
2026-07-27 13:38:26.764,0.07,0.38,0.9,11.84,-15.93,6.23
2026-07-27 13:38:26.819,0.1,0.27,0.89,-2.81,-11.6,27.16
2026-07-27 13:38:26.824,0.06,0.16,0.91,-13.31,-10.62,34.18
2026-07-27 13:38:26.825,0.06,0.16,0.91,-13.31,-10.62,34.18
2026-07-27 13:38:26.879,0.06,0.09,1.01,-13.49,-0.37,23.32
2026-07-27 13:38:26.880,0.06,0.09,1.01,-13.49,-0.37,23.32
2026-07-27 13:38:27.004,0.11,0.06,1.14,-8.18,17.88,9.03
2026-07-27 13:38:27.004,0.11,0.06,1.14,-8.18,17.88,9.03
2026-07-27 13:38:27.004,0.22,0.02,1.14,-6.96,24.29,11.78
2026-07-27 13:38:27.122,0.22,0.02,1.14,-6.96,24.29,11.78
2026-07-27 13:38:27.179,0.3,-0.01,0.97,-18.49,7.93,24.35
2026-07-27 13:38:27.179,0.3,-0.01,0.8,-26.06,-11.35,26.98
2026-07-27 13:38:27.179,0.3,-0.01,0.8,-26.06,-11.35,26.98
2026-07-27 13:38:27.179,0.28,0.0,0.74,-14.1,-7.45,30.46
2026-07-27 13:38:27.180,0.28,0.0,0.74,-14.1,-7.45,30.46
2026-07-27 13:38:27.181,0.24,0.04,0.78,7.2,8.97,37.78
2026-07-27 13:38:27.181,0.24,0.04,0.78,7.2,8.97,37.78
2026-07-27 13:38:27.181,0.18,0.07,0.86,23.62,17.15,45.84
2026-07-27 13:38:27.182,0.18,0.07,0.86,29.72,18.55,66.41
2026-07-27 13:38:27.183,0.12,0.05,0.97,29.72,18.55,66.41
2026-07-27 13:38:27.300,0.03,0.01,1.08,28.87,14.34,93.75
2026-07-27 13:38:27.327,0.03,0.01,1.08,28.87,14.34,93.75
2026-07-27 13:38:27.611,-0.07,-0.11,1.15,28.2,7.02,120.91
2026-07-27 13:38:27.649,-0.07,-0.11,1.15,28.2,7.02,120.91
2026-07-27 13:38:27.650,-0.08,-0.21,1.15,26.25,1.46,139.95
2026-07-27 13:38:27.650,-0.08,-0.21,1.15,26.25,1.46,139.95
2026-07-27 13:38:27.650,-0.02,-0.09,1.11,24.29,-1.53,114.26
2026-07-27 13:38:27.650,0.11,0.16,1.09,35.1,4.76,43.21
2026-07-27 13:38:27.651,0.11,0.16,1.09,35.1,4.76,43.21
2026-07-27 13:38:27.651,0.27,0.34,1.02,34.42,8.97,-27.1
2026-07-27 13:38:27.651,0.27,0.34,1.02,34.42,8.97,-27.1
2026-07-27 13:38:27.651,0.34,0.42,0.92,5.19,0.61,-76.29
2026-07-27 13:38:27.651,0.34,0.42,0.92,5.19,0.61,-76.29
2026-07-27 13:38:27.651,0.27,0.46,0.87,-18.98,1.4,-102.48
2026-07-27 13:38:27.651,0.27,0.46,0.87,-18.98,1.4,-102.48
2026-07-27 13:38:27.651,0.17,0.44,0.89,-18.25,14.1,-90.21
2026-07-27 13:38:27.669,0.1,0.35,0.93,-6.84,19.1,-45.65
2026-07-27 13:38:27.686,0.1,0.35,0.93,-6.84,19.1,-45.65
2026-07-27 13:38:27.687,0.04,0.24,0.99,-4.88,14.28,-12.02
2026-07-27 13:38:27.781,0.04,0.24,0.99,-4.88,14.28,-12.02
2026-07-27 13:38:27.788,-0.02,0.15,1.01,-12.45,5.0,-11.05
2026-07-27 13:38:27.789,-0.02,0.15,1.01,-12.45,5.0,-11.05
2026-07-27 13:38:27.789,-0.07,0.09,1.0,-22.4,-1.34,-27.34
2026-07-27 13:38:27.789,-0.11,-0.01,1.04,-36.5,3.42,-38.82
2026-07-27 13:38:27.789,-0.11,-0.01,1.04,-36.5,3.42,-38.82
2026-07-27 13:38:27.789,-0.13,-0.17,1.12,-54.14,18.43,-34.61
2026-07-27 13:38:27.790,-0.13,-0.17,1.12,-54.14,18.43,-34.61
2026-07-27 13:38:27.840,-0.1,-0.19,1.13,-63.23,32.96,-43.76
2026-07-27 13:38:27.843,-0.1,-0.19,1.13,-63.23,32.96,-43.76
2026-07-27 13:38:27.968,-0.08,0.05,0.98,-51.45,26.31,-94.79
2026-07-27 13:38:27.998,-0.08,0.05,0.98,-21.0,0.92,-125.55
2026-07-27 13:38:27.999,0.02,0.31,0.74,-21.0,0.92,-125.55
2026-07-27 13:38:27.999,0.2,0.3,0.67,9.4,-11.6,-86.24
2026-07-27 13:38:27.999,0.2,0.3,0.67,9.4,-11.6,-86.24
2026-07-27 13:38:28.026,0.26,0.12,0.83,34.18,0.18,-25.15
2026-07-27 13:38:28.026,0.26,0.12,0.83,34.18,0.18,-25.15
2026-07-27 13:38:28.026,0.12,-0.03,0.99,53.16,17.64,21.42
2026-07-27 13:38:28.085,0.12,-0.03,0.99,53.16,17.64,21.42
2026-07-27 13:38:28.085,-0.09,-0.16,1.07,42.42,15.87,60.97
2026-07-27 13:38:28.090,-0.23,-0.33,1.06,5.68,-4.39,108.28
2026-07-27 13:38:28.149,-0.23,-0.33,1.06,5.68,-4.39,108.28
2026-07-27 13:38:28.149,-0.24,-0.4,1.07,-27.83,-15.93,154.54
2026-07-27 13:38:28.202,-0.24,-0.4,1.07,-27.83,-15.93,154.54
2026-07-27 13:38:28.203,-0.16,-0.19,1.2,-30.52,-4.46,122.07
2026-07-27 13:38:28.206,-0.16,-0.19,1.2,-30.52,-4.46,122.07
2026-07-27 13:38:28.258,-0.04,0.2,1.28,16.24,20.75,-15.75
2026-07-27 13:38:28.259,0.0,0.58,1.1,67.99,31.01,-136.78
2026-07-27 13:38:28.259,0.0,0.58,1.1,67.99,31.01,-136.78
2026-07-27 13:38:28.388,-0.04,0.72,0.81,74.34,19.35,-141.42
2026-07-27 13:38:28.388,-0.04,0.72,0.81,74.34,19.35,-141.42
2026-07-27 13:38:28.389,-0.04,0.55,0.72,41.14,13.73,-71.23
2026-07-27 13:38:28.389,-0.04,0.55,0.72,41.14,13.73,-71.23
2026-07-27 13:38:28.389,0.01,0.26,0.84,4.15,18.49,-9.58
2026-07-27 13:38:28.439,0.01,0.26,0.84,-7.81,17.94,10.62
2026-07-27 13:38:28.439,0.03,0.08,0.98,-7.81,17.94,10.62
2026-07-27 13:38:28.640,0.01,0.11,1.02,0.67,6.84,-14.22
2026-07-27 13:38:28.649,0.01,0.11,1.02,0.67,6.84,-14.22
2026-07-27 13:38:28.659,-0.04,0.25,0.98,11.6,-5.86,-65.0
2026-07-27 13:38:28.660,-0.04,0.25,0.98,11.6,-5.86,-65.0
2026-07-27 13:38:28.662,-0.06,0.36,0.91,17.88,-5.13,-102.11
2026-07-27 13:38:28.665,-0.05,0.38,0.88,22.89,11.47,-103.27
2026-07-27 13:38:28.673,-0.05,0.38,0.88,22.89,11.47,-103.27
2026-07-27 13:38:28.673,-0.04,0.33,0.93,25.33,31.43,-76.17
2026-07-27 13:38:28.673,-0.04,0.33,0.93,25.33,31.43,-76.17
2026-07-27 13:38:28.821,-0.06,0.27,0.99,15.08,37.78,-45.47
2026-07-27 13:38:28.831,-0.06,0.27,0.99,15.08,37.78,-45.47
2026-07-27 13:38:28.833,-0.08,0.17,1.05,-13.85,24.11,-30.21
2026-07-27 13:38:28.836,-0.09,0.04,1.09,-45.65,3.54,-32.29
2026-07-27 13:38:28.848,-0.09,0.04,1.09,-45.65,3.54,-32.29
2026-07-27 13:38:28.848,-0.08,-0.06,1.13,-62.56,-9.7,-47.85
2026-07-27 13:38:28.849,-0.08,-0.06,1.13,-62.56,-9.7,-47.85
2026-07-27 13:38:28.858,-0.13,-0.1,1.17,-65.8,-9.64,-81.67
2026-07-27 13:38:28.858,-0.13,-0.1,1.17,-65.8,-9.64,-81.67
2026-07-27 13:38:28.859,-0.2,-0.02,1.15,-57.8,4.39,-140.38
2026-07-27 13:38:28.982,-0.2,-0.02,1.15,-57.8,4.39,-140.38
2026-07-27 13:38:28.990,-0.23,0.18,1.04,-38.21,20.51,-189.03
2026-07-27 13:38:28.990,-0.25,0.29,0.85,-20.45,17.64,-166.93
2026-07-27 13:38:28.990,-0.25,0.29,0.85,-20.45,17.64,-166.93
2026-07-27 13:38:28.990,-0.24,0.1,0.7,-24.05,-13.31,-74.89
2026-07-27 13:38:29.039,-0.24,0.1,0.7,-24.05,-13.31,-74.89
2026-07-27 13:38:29.040,-0.19,-0.3,0.81,-41.44,-41.14,13.85
2026-07-27 13:38:29.040,-0.19,-0.3,0.81,-41.44,-41.14,13.85
2026-07-27 13:38:29.175,-0.16,-0.54,1.07,-42.54,-31.25,34.36
2026-07-27 13:38:29.182,-0.17,-0.45,1.12,-18.62,-11.96,-2.2
2026-07-27 13:38:29.182,-0.17,-0.45,1.12,-18.62,-11.96,-2.2
2026-07-27 13:38:29.182,-0.15,-0.27,0.95,6.04,-17.58,-34.55
2026-07-27 13:38:29.182,-0.15,-0.27,0.95,6.04,-17.58,-34.55
2026-07-27 13:38:29.531,-0.06,-0.17,0.78,13.24,-29.72,-36.5
2026-07-27 13:38:29.552,-0.06,-0.17,0.78,13.24,-29.72,-36.5
2026-07-27 13:38:29.552,0.02,-0.14,0.72,8.54,-30.03,-24.17
2026-07-27 13:38:29.662,0.02,-0.14,0.72,8.54,-30.03,-24.17
2026-07-27 13:38:29.676,0.09,-0.18,0.75,0.06,-17.82,-8.91
2026-07-27 13:38:29.677,0.14,-0.25,0.89,-5.07,4.15,0.24
2026-07-27 13:38:29.677,0.14,-0.25,0.89,-5.07,4.15,0.24
2026-07-27 13:38:29.677,0.15,-0.26,1.1,6.29,21.48,-1.34
2026-07-27 13:38:29.677,0.15,-0.26,1.1,6.29,21.48,-1.34
2026-07-27 13:38:29.677,0.08,-0.26,1.22,26.67,21.24,2.56
2026-07-27 13:38:29.677,0.08,-0.26,1.22,26.67,21.24,2.56
2026-07-27 13:38:30.362,-0.11,-0.16,1.18,35.46,5.31,13.55
2026-07-27 13:38:30.367,-0.11,-0.16,1.18,35.46,5.31,13.55
2026-07-27 13:38:30.368,-0.35,0.04,1.06,25.45,-12.94,23.07
2026-07-27 13:38:30.368,-0.45,0.15,0.97,-1.16,-20.2,54.14
2026-07-27 13:38:30.368,-0.45,0.15,0.97,-1.16,-20.2,54.14
2026-07-27 13:38:30.371,-0.39,0.12,0.9,-18.92,-15.62,114.07
2026-07-27 13:38:30.384,-0.39,0.12,0.9,-18.92,-15.62,114.07
2026-07-27 13:38:30.384,-0.29,0.09,0.86,-4.09,-4.27,172.91
2026-07-27 13:38:30.384,-0.29,0.09,0.86,-4.09,-4.27,172.91
2026-07-27 13:38:30.384,-0.2,0.1,0.92,17.88,8.97,197.2
2026-07-27 13:38:30.384,-0.2,0.1,0.92,17.88,8.97,197.2
2026-07-27 13:38:30.384,-0.12,0.13,1.04,16.6,15.14,178.41
2026-07-27 13:38:30.384,-0.09,0.14,1.06,3.54,8.18,139.4
2026-07-27 13:38:30.384,-0.09,0.14,1.06,3.54,8.18,139.4
2026-07-27 13:38:30.385,-0.11,0.14,0.95,-0.06,-2.87,101.87
2026-07-27 13:38:30.385,-0.11,0.14,0.95,-0.06,-2.87,101.87
2026-07-27 13:38:30.385,-0.17,0.14,0.88,2.14,-5.74,74.04
2026-07-27 13:38:30.385,-0.17,0.14,0.88,2.14,-5.74,74.04
2026-07-27 13:38:30.385,-0.18,0.12,0.96,-5.86,-2.62,58.72
2026-07-27 13:38:30.385,-0.18,0.12,0.96,-25.39,-2.26,53.65
2026-07-27 13:38:30.385,-0.17,0.04,1.1,-25.39,-2.26,53.65
2026-07-27 13:38:30.385,-0.15,-0.12,1.12,-49.56,-12.51,56.21
2026-07-27 13:38:30.385,-0.15,-0.12,1.12,-49.56,-12.51,56.21
2026-07-27 13:38:30.385,-0.12,-0.33,1.11,-90.76,-41.02,65.25
2026-07-27 13:38:30.389,-0.12,-0.33,1.11,-90.76,-41.02,65.25
2026-07-27 13:38:30.389,-0.09,-0.47,1.16,-133.42,-76.48,62.87
2026-07-27 13:38:30.389,-0.09,-0.47,1.16,-133.42,-76.48,62.87
2026-07-27 13:38:30.389,-0.16,-0.38,1.09,-121.52,-86.79,30.27
2026-07-27 13:38:30.389,-0.16,-0.38,1.09,-56.95,-78.12,-1.46
2026-07-27 13:38:30.389,-0.24,-0.21,0.82,-56.95,-78.12,-1.46
2026-07-27 13:38:30.389,-0.1,-0.2,0.74,-5.92,-61.34,11.41
2026-07-27 13:38:30.394,-0.1,-0.2,0.74,-5.92,-61.34,11.41
2026-07-27 13:38:30.394,0.25,-0.31,0.97,12.88,-16.91,40.59
2026-07-27 13:38:30.394,0.25,-0.31,0.97,12.88,-16.91,40.59
2026-07-27 13:38:30.394,0.37,-0.25,1.08,29.97,21.42,30.33
2026-07-27 13:38:30.394,0.37,-0.25,1.08,29.97,21.42,30.33
2026-07-27 13:38:30.394,0.13,-0.06,0.88,32.65,3.23,18.86
2026-07-27 13:38:30.394,0.13,-0.06,0.88,32.65,3.23,18.86
2026-07-27 13:38:30.394,-0.1,-0.03,0.67,5.0,-36.13,66.1
2026-07-27 13:38:30.394,-0.09,-0.2,0.67,-23.5,-38.82,141.05
2026-07-27 13:38:30.395,-0.09,-0.2,0.67,-23.5,-38.82,141.05
2026-07-27 13:38:30.395,0.11,-0.41,0.81,-34.61,-12.63,179.5
2026-07-27 13:38:30.395,0.11,-0.41,0.81,-34.61,-12.63,179.5
2026-07-27 13:38:30.396,0.27,-0.45,0.93,-29.6,7.57,153.69
2026-07-27 13:38:30.740,0.27,-0.45,0.93,-29.6,7.57,153.69
2026-07-27 13:38:30.749,0.22,-0.22,0.95,-12.02,10.13,102.05
2026-07-27 13:38:30.749,0.02,-0.01,0.84,8.24,-15.56,89.66
2026-07-27 13:38:33.243,0.02,-0.01,0.84,8.24,-15.56,89.66
2026-07-27 13:38:33.495,-0.18,-0.05,0.67,26.18,-70.19,143.25
2026-07-27 13:38:33.504,-0.18,-0.05,0.67,26.18,-70.19,143.25
2026-07-27 13:38:33.504,-0.3,-0.18,0.83,36.56,-106.51,219.79
2026-07-27 13:38:33.505,-0.39,-0.14,1.21,66.41,-65.73,240.3
2026-07-27 13:38:33.506,-0.39,-0.14,1.21,66.41,-65.73,240.3
2026-07-27 13:38:33.522,-0.42,0.03,1.4,90.45,7.75,193.85
2026-07-27 13:38:33.523,-0.42,0.03,1.4,90.45,7.75,193.85
2026-07-27 13:38:33.523,-0.36,0.19,1.29,65.55,25.09,119.32
2026-07-27 13:38:33.523,-0.36,0.19,1.29,65.55,25.09,119.32
2026-07-27 13:38:33.524,-0.19,0.23,1.07,54.69,14.95,48.03
2026-07-27 13:38:33.524,-0.19,0.23,1.07,71.78,18.25,2.75
2026-07-27 13:38:33.524,-0.02,0.22,0.89,71.78,18.25,2.75
2026-07-27 13:38:33.524,0.04,0.27,0.79,72.27,25.76,-8.24
2026-07-27 13:38:33.524,0.04,0.27,0.79,72.27,25.76,-8.24
2026-07-27 13:38:33.524,0.04,0.21,0.77,44.92,23.32,19.84
2026-07-27 13:38:33.524,0.04,0.21,0.77,44.92,23.32,19.84
2026-07-27 13:38:34.021,0.03,0.11,0.76,0.24,-3.05,61.89
2026-07-27 13:38:34.030,0.03,0.11,0.76,0.24,-3.05,61.89
2026-07-27 13:38:34.030,0.03,0.06,0.79,-27.28,-37.48,73.85
2026-07-27 13:38:34.031,0.01,0.1,0.86,-25.94,-53.28,53.28
2026-07-27 13:38:34.031,0.01,0.1,0.86,-25.94,-53.28,53.28
2026-07-27 13:38:34.031,-0.07,0.15,0.93,-30.27,-50.42,34.0
2026-07-27 13:38:34.031,-0.07,0.15,0.93,-30.27,-50.42,34.0
2026-07-27 13:38:34.031,-0.06,0.09,0.96,-61.28,-58.04,41.81
2026-07-27 13:38:34.031,-0.06,0.09,0.96,-61.28,-58.04,41.81
2026-07-27 13:38:34.032,0.09,-0.01,1.02,-100.28,-80.87,66.1
2026-07-27 13:38:34.032,0.09,-0.01,1.02,-100.28,-80.87,66.1
2026-07-27 13:38:34.032,0.09,-0.01,1.02,-100.28,-80.87,66.1
2026-07-27 13:38:34.050,0.09,-0.01,1.02,-100.28,-80.87,66.1
2026-07-27 13:38:34.061,0.12,-0.14,1.17,-78.55,-76.97,58.41
2026-07-27 13:38:34.073,0.12,-0.14,1.17,-78.55,-76.97,58.41
2026-07-27 13:38:34.073,0.12,-0.28,1.28,-50.6,-55.73,33.63
2026-07-27 13:38:34.073,0.2,-0.37,1.38,-29.66,-34.0,8.61
2026-07-27 13:38:34.073,0.2,-0.37,1.38,-29.66,-34.0,8.61
2026-07-27 13:38:34.073,0.3,-0.34,1.29,5.68,-14.16,-15.44
2026-07-27 13:38:34.074,0.3,-0.34,1.29,5.68,-14.16,-15.44
2026-07-27 13:38:34.074,0.37,-0.19,1.01,51.57,5.37,-27.53
2026-07-27 13:38:34.074,0.37,-0.19,1.01,51.57,5.37,-27.53
2026-07-27 13:38:34.074,0.38,-0.03,0.76,79.28,22.83,-22.89
2026-07-27 13:38:34.074,0.38,-0.03,0.76,79.28,22.83,-22.89
2026-07-27 13:38:34.074,0.32,0.03,0.73,74.77,30.64,-1.16
2026-07-27 13:38:34.075,0.32,0.03,0.73,53.53,33.39,18.19
2026-07-27 13:38:34.075,0.19,0.01,0.88,53.53,33.39,18.19
2026-07-27 13:38:34.075,0.07,-0.02,1.05,36.93,29.6,16.17
2026-07-27 13:38:34.078,0.07,-0.02,1.05,36.93,29.6,16.17
2026-07-27 13:38:34.087,0.06,-0.03,1.14,30.88,13.18,-0.12
2026-07-27 13:38:34.087,0.06,-0.03,1.14,30.88,13.18,-0.12
2026-07-27 13:38:34.088,0.07,0.02,1.1,31.74,-3.72,-23.5
2026-07-27 13:38:34.088,0.07,0.02,1.1,31.74,-3.72,-23.5
2026-07-27 13:38:34.088,0.08,0.11,1.0,27.65,-5.55,-45.41
2026-07-27 13:38:34.088,0.08,0.11,1.0,27.65,-5.55,-45.41
2026-07-27 13:38:34.088,0.12,0.11,0.95,5.8,2.5,-34.48
2026-07-27 13:38:34.088,0.12,0.11,0.95,-16.11,6.41,3.11
2026-07-27 13:38:34.088,0.16,-0.01,0.94,-16.11,6.41,3.11
2026-07-27 13:38:34.091,0.15,-0.07,0.96,-15.26,5.13,21.48
2026-07-27 13:38:34.110,0.15,-0.07,0.96,-15.26,5.13,21.48
2026-07-27 13:38:34.110,0.15,-0.02,1.0,1.16,1.89,8.97
2026-07-27 13:38:34.110,0.15,-0.02,1.0,1.16,1.89,8.97
2026-07-27 13:38:34.110,0.15,0.07,1.03,14.28,-2.08,-11.96
2026-07-27 13:38:34.110,0.15,0.07,1.03,14.28,-2.08,-11.96
2026-07-27 13:38:34.110,0.15,0.13,1.03,12.7,-5.37,-20.39
2026-07-27 13:38:34.110,0.06,0.31,0.79,21.24,-77.58,3.6
2026-07-27 13:38:34.110,0.05,0.24,0.76,10.44,-48.28,41.08
2026-07-27 13:38:34.110,0.06,0.17,0.92,-3.85,6.84,61.34
2026-07-27 13:38:34.681,0.06,0.17,0.92,-3.85,6.84,61.34
2026-07-27 13:38:34.979,0.04,0.14,1.09,-18.37,45.72,62.32
2026-07-27 13:38:34.979,0.04,0.14,1.09,-18.37,45.72,62.32
2026-07-27 13:38:34.980,0.02,0.08,1.11,-33.63,37.9,67.08
2026-07-27 13:38:34.980,0.02,0.08,1.11,-33.63,37.9,67.08
2026-07-27 13:38:34.980,-0.01,-0.0,1.02,-44.62,-5.31,85.14
2026-07-27 13:38:34.981,-0.01,-0.0,1.02,-44.62,-5.31,85.14
2026-07-27 13:38:34.981,-0.02,-0.11,0.95,-55.91,-47.67,110.96
2026-07-27 13:38:34.981,-0.03,-0.25,0.97,-61.52,-67.5,132.75
2026-07-27 13:38:34.982,-0.03,-0.25,0.97,-61.52,-67.5,132.75
2026-07-27 13:38:34.982,-0.05,-0.35,1.01,-49.87,-63.96,129.21
2026-07-27 13:38:34.983,-0.05,-0.35,1.01,-49.87,-63.96,129.21
2026-07-27 13:38:34.984,-0.04,-0.38,1.0,-31.01,-46.45,101.75
2026-07-27 13:38:34.985,-0.04,-0.38,1.0,-31.01,-46.45,101.75
2026-07-27 13:38:34.985,0.15,-0.3,0.83,-16.17,-11.35,48.1
2026-07-27 13:38:34.986,0.15,-0.3,0.83,-16.17,-11.35,48.1
2026-07-27 13:38:34.986,0.12,-0.31,0.77,10.38,-8.79,50.96
2026-07-27 13:38:34.990,0.12,-0.37,0.81,18.8,-0.31,65.06
2026-07-27 13:38:34.990,0.12,-0.37,0.81,18.8,-0.31,65.06
2026-07-27 13:38:34.990,0.13,-0.43,0.92,21.36,16.24,73.06
2026-07-27 13:38:34.990,0.13,-0.43,0.92,21.36,16.24,73.06
2026-07-27 13:38:34.990,0.16,-0.48,1.07,31.98,23.74,67.38
2026-07-27 13:38:34.991,0.16,-0.48,1.07,31.98,23.74,67.38
2026-07-27 13:38:34.991,0.16,-0.52,1.23,43.95,20.45,57.92
2026-07-27 13:38:34.991,0.16,-0.52,1.23,43.95,20.45,57.92
2026-07-27 13:38:34.991,-0.0,-0.27,1.21,54.44,3.91,9.95
2026-07-27 13:38:34.992,-0.0,-0.27,1.21,54.44,3.91,9.95
2026-07-27 13:38:35.047,-0.0,-0.27,1.21,54.44,3.91,9.95
2026-07-27 13:38:35.054,-0.0,-0.27,1.21,54.44,3.91,9.95
2026-07-27 13:38:35.054,-0.07,-0.12,0.78,-22.28,-51.45,-41.93
2026-07-27 13:38:35.055,-0.07,-0.12,0.78,-22.28,-51.45,-41.93
2026-07-27 13:38:35.062,-0.08,-0.14,0.83,-52.55,-40.22,-5.13
2026-07-27 13:38:35.113,-0.12,-0.18,0.93,-16.36,0.0,2.38
2026-07-27 13:38:35.142,-0.12,-0.18,0.93,-16.36,0.0,2.38
2026-07-27 13:38:35.143,-0.09,-0.27,1.02,21.0,42.97,-8.3
2026-07-27 13:38:35.143,-0.09,-0.27,1.02,21.0,42.97,-8.3
2026-07-27 13:38:35.143,-0.06,-0.27,1.02,20.51,54.99,-27.71
2026-07-27 13:38:35.143,-0.06,-0.27,1.02,20.51,54.99,-27.71
2026-07-27 13:38:35.143,-0.05,-0.22,0.96,2.08,40.83,-48.1
2026-07-27 13:38:35.143,-0.05,-0.22,0.96,-10.13,29.24,-56.34
2026-07-27 13:38:35.143,-0.03,-0.2,0.92,-10.13,29.24,-56.34
2026-07-27 13:38:35.144,-0.02,-0.22,0.92,-11.11,27.1,-56.52
2026-07-27 13:38:35.144,-0.02,-0.22,0.92,-11.11,27.1,-56.52
2026-07-27 13:38:35.144,-0.0,-0.25,0.94,-5.92,30.09,-59.33
2026-07-27 13:38:35.144,-0.0,-0.25,0.94,-5.92,30.09,-59.33
2026-07-27 13:38:35.144,0.01,-0.27,0.97,0.37,37.05,-70.01
2026-07-27 13:38:35.144,0.01,-0.27,0.97,0.37,37.05,-70.01
2026-07-27 13:38:35.144,-0.0,-0.25,1.0,-1.22,41.26,-89.11
2026-07-27 13:38:35.144,-0.0,-0.25,1.0,-1.22,41.26,-89.11
2026-07-27 13:38:35.144,0.02,-0.21,1.05,-9.52,38.15,-104.92
2026-07-27 13:38:35.144,0.09,-0.21,1.13,-13.06,29.97,-107.6
2026-07-27 13:38:35.150,0.09,-0.21,1.13,-13.06,29.97,-107.6
2026-07-27 13:38:35.153,0.09,-0.26,1.2,-9.77,21.0,-110.23
2026-07-27 13:38:35.154,0.09,-0.26,1.2,-9.77,21.0,-110.23
2026-07-27 13:38:35.154,-0.01,-0.3,1.14,-3.42,17.94,-123.23
2026-07-27 13:38:35.157,-0.01,-0.3,1.14,-3.42,17.94,-123.23
2026-07-27 13:38:35.158,-0.13,-0.25,0.95,-1.28,18.01,-133.54
2026-07-27 13:38:35.167,-0.13,-0.25,0.95,-1.28,18.01,-133.54
2026-07-27 13:38:35.167,-0.23,-0.2,0.71,-11.05,10.86,-119.38
2026-07-27 13:38:35.168,-0.16,-0.37,0.61,-30.88,-4.82,-71.41
2026-07-27 13:38:35.168,-0.16,-0.37,0.61,-30.88,-4.82,-71.41
2026-07-27 13:38:35.383,0.06,-0.65,0.78,-33.81,7.93,-35.03
2026-07-27 13:38:35.383,0.06,-0.65,0.78,-33.81,7.93,-35.03
2026-07-27 13:38:35.383,0.11,-0.61,1.0,8.97,63.35,-74.77
2026-07-27 13:38:35.506,0.11,-0.61,1.0,8.97,63.35,-74.77
2026-07-27 13:38:35.506,-0.02,-0.25,1.01,52.49,87.52,-141.6
2026-07-27 13:38:35.506,-0.05,-0.05,0.88,42.79,51.21,-135.5
2026-07-27 13:38:35.506,-0.05,-0.05,0.88,42.79,51.21,-135.5
2026-07-27 13:38:35.506,0.04,-0.15,0.8,8.12,10.56,-72.69
2026-07-27 13:38:35.507,0.04,-0.15,0.8,8.12,10.56,-72.69
2026-07-27 13:38:35.507,0.1,-0.31,0.8,-10.8,-2.75,-27.59
2026-07-27 13:38:35.591,0.1,-0.31,0.8,-10.8,-2.75,-27.59
2026-07-27 13:38:35.612,0.13,-0.38,0.87,-14.65,1.22,-20.02
2026-07-27 13:38:35.612,0.15,-0.37,0.96,-10.99,9.64,-33.75
2026-07-27 13:38:35.612,0.15,-0.37,0.96,-10.99,9.64,-33.75
2026-07-27 13:38:35.612,0.1,-0.32,1.01,2.93,17.03,-52.0
2026-07-27 13:38:35.612,0.1,-0.32,1.01,2.93,17.03,-52.0
2026-07-27 13:38:35.612,-0.03,-0.32,1.02,18.43,22.22,-56.09
2026-07-27 13:38:35.613,-0.03,-0.32,1.02,18.43,22.22,-56.09
2026-07-27 13:38:35.613,-0.13,-0.35,1.0,21.0,26.79,-36.5
2026-07-27 13:38:35.613,-0.13,-0.35,1.0,21.0,26.79,-36.5
2026-07-27 13:38:35.613,-0.23,-0.28,0.95,7.2,20.02,-13.67
2026-07-27 13:38:35.613,-0.3,-0.22,0.97,-11.84,6.65,-11.23
2026-07-27 13:38:35.613,-0.3,-0.22,0.97,-11.84,6.65,-11.23
2026-07-27 13:38:35.942,-0.22,-0.3,1.07,-16.54,16.6,-26.25
2026-07-27 13:38:35.942,-0.22,-0.3,1.07,-16.54,16.6,-26.25
2026-07-27 13:38:36.066,-0.11,-0.36,1.09,-0.43,37.23,-57.98
2026-07-27 13:38:36.068,-0.11,-0.36,1.09,-0.43,37.23,-57.98
2026-07-27 13:38:36.089,-0.1,-0.29,0.99,17.46,35.1,-101.68
2026-07-27 13:38:36.089,-0.1,-0.29,0.99,17.46,35.1,-101.68
2026-07-27 13:38:36.089,-0.1,-0.29,0.99,17.46,35.1,-101.68
2026-07-27 13:38:36.089,-0.1,-0.29,0.99,17.46,35.1,-101.68
2026-07-27 13:38:36.090,-0.18,-0.19,0.83,15.38,21.48,-140.2
2026-07-27 13:38:36.723,-0.16,-0.3,0.86,-0.18,33.51,-133.54
2026-07-27 13:38:36.723,-0.16,-0.3,0.86,-0.18,33.51,-133.54
2026-07-27 13:38:36.723,-0.21,-0.41,0.94,-27.95,41.26,-135.07
2026-07-27 13:38:36.723,-0.21,-0.41,0.94,-27.95,41.26,-135.07
2026-07-27 13:38:36.724,-0.34,-0.4,1.03,-59.63,40.59,-158.51
2026-07-27 13:38:36.724,-0.34,-0.4,1.03,-59.63,40.59,-158.51
2026-07-27 13:38:36.724,-0.35,-0.3,1.1,-74.16,48.65,-183.11
2026-07-27 13:38:36.724,-0.11,-0.32,1.07,-58.47,68.91,-175.17
2026-07-27 13:38:36.724,-0.11,-0.32,1.07,-58.47,68.91,-175.17
2026-07-27 13:38:36.724,0.1,-0.35,0.97,-23.68,85.27,-154.42
2026-07-27 13:38:36.725,0.1,-0.35,0.97,-23.68,85.27,-154.42
2026-07-27 13:38:36.725,0.13,-0.28,0.85,0.12,82.52,-148.62
2026-07-27 13:38:36.725,0.13,-0.28,0.85,0.12,82.52,-148.62
2026-07-27 13:38:36.870,0.1,-0.23,0.8,-0.55,64.45,-139.47
2026-07-27 13:38:37.090,0.12,-0.3,0.83,-8.79,56.58,-118.77
2026-07-27 13:38:38.765,0.12,-0.3,0.83,-8.79,56.58,-118.77
2026-07-27 13:38:38.768,0.15,-0.4,0.91,-8.67,64.15,-104.74
2026-07-27 13:38:38.770,0.15,-0.4,0.91,-8.67,64.15,-104.74
2026-07-27 13:38:39.683,0.15,-0.41,0.96,2.69,70.19,-105.04
2026-07-27 13:38:39.684,0.15,-0.41,0.96,2.69,70.19,-105.04
2026-07-27 13:38:39.693,0.12,-0.36,0.92,15.56,62.26,-105.35
2026-07-27 13:38:39.693,0.12,-0.36,0.92,15.56,62.26,-105.35
2026-07-27 13:38:39.693,0.1,-0.31,0.86,19.35,41.81,-93.26
2026-07-27 13:38:39.693,0.09,-0.3,0.83,17.27,22.83,-70.92
2026-07-27 13:38:39.693,0.09,-0.3,0.83,17.27,22.83,-70.92
2026-07-27 13:38:39.693,0.08,-0.36,0.85,17.21,15.56,-45.96
2026-07-27 13:38:39.693,0.08,-0.36,0.85,17.21,15.56,-45.96
2026-07-27 13:38:39.694,0.08,-0.46,0.88,22.03,15.62,-26.18
2026-07-27 13:38:39.694,0.08,-0.46,0.88,22.03,15.62,-26.18
2026-07-27 13:38:39.694,0.09,-0.54,0.89,29.72,13.06,-13.24
2026-07-27 13:38:39.694,0.12,-0.57,0.87,33.08,7.39,-7.87
2026-07-27 13:38:39.698,0.12,-0.57,0.87,33.08,7.39,-7.87
2026-07-27 13:38:39.716,0.2,-0.54,0.87,28.56,7.26,-14.53
2026-07-27 13:38:39.717,0.2,-0.54,0.87,28.56,7.26,-14.53
2026-07-27 13:38:39.717,0.25,-0.44,0.95,18.74,15.01,-35.95
2026-07-27 13:38:39.738,0.25,-0.44,0.95,18.74,15.01,-35.95
2026-07-27 13:38:39.738,0.16,-0.33,1.08,10.74,26.55,-64.03
2026-07-27 13:38:39.739,0.16,-0.33,1.08,12.02,27.83,-73.24
2026-07-27 13:38:39.739,0.05,-0.29,1.08,12.02,27.83,-73.24
2026-07-27 13:38:39.739,0.04,-0.31,0.94,8.85,-9.52,-50.05
2026-07-27 13:38:39.740,0.04,-0.31,0.94,8.85,-9.52,-50.05
2026-07-27 13:38:39.740,-0.06,-0.26,0.85,2.62,-39.55,-34.24
2026-07-27 13:38:39.740,-0.06,-0.26,0.85,2.62,-39.55,-34.24
2026-07-27 13:38:39.754,-0.19,-0.15,0.9,7.2,-6.84,-44.98
2026-07-27 13:38:39.754,-0.19,-0.15,0.9,7.2,-6.84,-44.98
2026-07-27 13:38:39.754,-0.19,-0.1,1.04,9.46,38.82,-40.59
2026-07-27 13:38:39.754,-0.19,-0.1,1.04,9.46,38.82,-40.59
2026-07-27 13:38:39.755,-0.15,-0.12,1.09,2.62,45.47,-8.85
2026-07-27 13:38:39.755,-0.12,-0.14,1.07,-4.94,24.84,22.16
2026-07-27 13:38:39.755,-0.12,-0.14,1.07,-4.94,24.84,22.16
2026-07-27 13:38:39.755,-0.09,-0.15,1.03,-5.49,5.8,35.22
2026-07-27 13:38:39.756,-0.09,-0.15,1.03,-5.49,5.8,35.22
2026-07-27 13:38:39.756,-0.05,-0.13,0.96,0.12,-3.05,34.0
2026-07-27 13:38:39.756,-0.05,-0.13,0.96,0.12,-3.05,34.0
2026-07-27 13:38:39.757,-0.04,-0.12,0.89,5.86,-3.54,28.56
2026-07-27 13:38:39.764,-0.04,-0.12,0.89,5.86,-3.54,28.56
2026-07-27 13:38:39.764,-0.02,-0.14,0.87,7.02,1.59,26.86
2026-07-27 13:38:39.765,-0.02,-0.14,0.87,7.02,1.59,26.86
2026-07-27 13:38:39.768,0.02,-0.2,0.94,4.03,8.18,31.31
2026-07-27 13:38:39.975,0.07,-0.26,1.05,-0.79,1.83,44.01
2026-07-27 13:38:39.975,0.07,-0.26,1.05,-0.79,1.83,44.01
2026-07-27 13:38:39.976,0.12,-0.33,1.09,-7.81,-31.68,60.91
2026-07-27 13:38:39.976,0.12,-0.33,1.09,-7.81,-31.68,60.91
2026-07-27 13:38:39.976,0.22,-0.42,1.03,-15.14,-83.13,68.73
2026-07-27 13:38:40.274,0.22,-0.42,1.03,-15.14,-83.13,68.73
2026-07-27 13:38:40.277,0.3,-0.43,1.0,-23.93,-110.23,45.9
2026-07-27 13:38:41.342,0.3,-0.43,1.0,-23.93,-110.23,45.9
2026-07-27 13:38:41.345,0.26,-0.37,1.06,-27.16,-83.74,-8.48
2026-07-27 13:38:41.345,0.26,-0.37,1.06,-27.16,-83.74,-8.48
2026-07-27 13:38:41.345,0.17,-0.27,1.06,-22.64,-42.97,-50.54
2026-07-27 13:38:41.345,0.07,-0.18,0.9,-20.81,-34.79,-52.06
2026-07-27 13:38:41.345,0.07,-0.18,0.9,-20.81,-34.79,-52.06
2026-07-27 13:38:41.345,-0.01,-0.19,0.68,-20.87,-53.28,-24.35
2026-07-27 13:38:41.345,-0.01,-0.19,0.68,-20.87,-53.28,-24.35
2026-07-27 13:38:41.345,0.09,-0.39,0.72,-16.85,-49.68,20.02
2026-07-27 13:38:41.345,0.09,-0.39,0.72,-16.85,-49.68,20.02
2026-07-27 13:38:41.345,-0.14,0.29,1.1,46.02,-69.52,64.94
2026-07-27 13:38:41.345,-0.14,0.29,1.1,46.02,-69.52,64.94
2026-07-27 13:38:41.346,-0.2,0.05,1.04,94.85,-59.88,74.52
2026-07-27 13:38:41.347,0.28,-0.47,0.26,-49.01,-49.38,57.07
2026-07-27 13:38:41.347,0.45,-0.51,0.41,7.69,3.72,33.87
2026-07-27 13:38:41.347,0.53,-0.42,0.91,64.21,56.03,-17.46
2026-07-27 13:38:41.347,0.53,-0.42,0.91,64.21,56.03,-17.46
2026-07-27 13:38:41.347,0.52,-0.23,1.38,83.74,59.27,-51.15
2026-07-27 13:38:41.357,0.52,-0.23,1.38,83.74,59.27,-51.15
2026-07-27 13:38:41.357,0.4,-0.13,1.28,56.58,15.81,-40.59
2026-07-27 13:38:41.357,0.4,-0.13,1.28,56.58,15.81,-40.59
2026-07-27 13:38:41.357,0.32,-0.24,0.8,8.0,-30.4,0.55
2026-07-27 13:38:41.358,0.32,-0.24,0.8,-12.27,-33.75,15.2
2026-07-27 13:38:41.358,0.36,-0.29,0.58,-12.27,-33.75,15.2
2026-07-27 13:38:41.358,0.43,-0.21,0.77,-0.61,-5.25,-5.8
2026-07-27 13:38:41.358,0.43,-0.21,0.77,-0.61,-5.25,-5.8
2026-07-27 13:38:41.358,0.45,-0.19,1.0,9.7,10.56,-22.4
2026-07-27 13:38:41.358,0.45,-0.19,1.0,9.7,10.56,-22.4
2026-07-27 13:38:41.358,0.44,-0.23,1.01,5.55,0.31,-18.86
2026-07-27 13:38:41.358,0.44,-0.23,1.01,5.55,0.31,-18.86
2026-07-27 13:38:41.359,0.43,-0.27,0.87,-1.59,-15.14,-10.62
2026-07-27 13:38:41.363,0.43,-0.27,0.87,-1.59,-15.14,-10.62
2026-07-27 13:38:41.365,0.44,-0.25,0.79,-2.14,-17.94,-9.89
2026-07-27 13:38:41.365,0.44,-0.25,0.79,2.44,-10.01,-13.85
2026-07-27 13:38:41.365,0.46,-0.21,0.81,2.44,-10.01,-13.85
2026-07-27 13:38:41.365,0.48,-0.18,0.88,6.59,-2.81,-16.42
2026-07-27 13:38:41.365,0.48,-0.18,0.88,6.59,-2.81,-16.42
2026-07-27 13:38:41.365,0.49,-0.17,0.9,6.84,-2.81,-15.87
2026-07-27 13:38:41.365,0.49,-0.17,0.9,6.84,-2.81,-15.87
2026-07-27 13:38:41.365,0.49,-0.17,0.86,3.97,-7.02,-13.61
2026-07-27 13:38:41.365,0.49,-0.17,0.86,3.97,-7.02,-13.61
2026-07-27 13:38:41.365,0.48,-0.17,0.84,1.83,-8.97,-10.86
2026-07-27 13:38:41.366,0.48,-0.17,0.84,1.83,-8.97,-10.86
2026-07-27 13:38:41.491,0.48,-0.17,0.84,2.44,-7.02,-7.2
2026-07-27 13:38:41.507,0.48,-0.17,0.84,3.72,-3.48,-2.99
2026-07-27 13:38:41.517,0.49,-0.18,0.85,3.72,-3.48,-2.99
2026-07-27 13:38:41.545,0.49,-0.18,0.86,4.09,-1.04,0.24
2026-07-27 13:38:41.565,0.49,-0.18,0.86,4.09,-1.04,0.24
2026-07-27 13:38:41.586,0.5,-0.17,0.86,4.52,-0.31,1.71
2026-07-27 13:38:41.598,0.5,-0.17,0.86,4.52,-0.31,1.71
2026-07-27 13:38:41.627,0.5,-0.17,0.86,5.37,0.55,3.17
2026-07-27 13:38:41.660,0.5,-0.17,0.86,5.37,0.55,3.17
2026-07-27 13:38:41.664,0.5,-0.18,0.86,7.75,3.85,3.54
2026-07-27 13:38:41.665,0.5,-0.18,0.86,7.75,3.85,3.54
2026-07-27 13:38:42.305,0.51,-0.14,0.85,14.28,9.89,-0.67
2026-07-27 13:38:42.305,0.52,-0.08,0.83,21.36,16.72,-5.37
2026-07-27 13:38:42.305,0.52,-0.08,0.83,21.36,16.72,-5.37
2026-07-27 13:38:42.305,0.52,-0.08,0.82,19.71,21.48,-2.62
2026-07-27 13:38:42.307,0.52,-0.08,0.82,19.71,21.48,-2.62
2026-07-27 13:38:42.308,0.49,-0.12,0.83,10.68,23.99,4.15
2026-07-27 13:38:42.308,0.49,-0.12,0.83,10.68,23.99,4.15
2026-07-27 13:38:42.308,0.49,-0.13,0.87,4.88,28.02,7.81
2026-07-27 13:38:42.308,-0.19,0.21,0.82,13.18,80.93,15.2
2026-07-27 13:38:42.308,-0.16,0.19,0.85,33.81,65.73,24.11
2026-07-27 13:38:42.308,-0.16,0.19,0.85,33.81,65.73,24.11
2026-07-27 13:38:42.309,-0.09,0.37,0.83,74.95,32.65,26.31
2026-07-27 13:38:42.309,-0.07,0.61,0.76,90.33,-5.31,20.94
2026-07-27 13:38:42.309,-0.07,0.61,0.76,90.33,-5.31,20.94
2026-07-27 13:38:42.310,-0.13,0.74,0.72,57.31,-17.03,20.14
2026-07-27 13:38:42.310,-0.13,0.74,0.72,57.31,-17.03,20.14
2026-07-27 13:38:42.310,-0.22,0.7,0.75,-7.08,1.04,37.6
2026-07-27 13:38:42.310,-0.22,0.7,0.75,-7.08,1.04,37.6
2026-07-27 13:38:42.310,-0.27,0.59,0.8,-66.65,21.61,59.94
2026-07-27 13:38:42.311,-0.26,0.5,0.86,-96.44,25.63,64.21
2026-07-27 13:38:42.311,-0.26,0.5,0.86,-96.44,25.63,64.21
2026-07-27 13:38:42.311,-0.21,0.48,0.92,-89.78,18.62,45.9
2026-07-27 13:38:42.312,-0.21,0.48,0.92,-89.78,18.62,45.9
2026-07-27 13:38:42.312,-0.13,0.45,0.95,-67.69,9.95,27.04
2026-07-27 13:38:42.312,-0.13,0.45,0.95,-67.69,9.95,27.04
2026-07-27 13:38:42.315,-0.1,0.31,0.99,-61.22,7.63,42.05
2026-07-27 13:38:42.315,-0.1,0.31,0.99,-61.22,7.63,42.05
2026-07-27 13:38:42.315,-0.16,0.16,1.02,-60.3,13.31,84.78
2026-07-27 13:38:42.317,-0.25,0.1,1.02,-51.51,13.0,118.23
2026-07-27 13:38:42.317,-0.25,0.1,1.02,-51.51,13.0,118.23
2026-07-27 13:38:42.317,-0.29,0.09,1.02,-38.15,4.46,126.71
2026-07-27 13:38:42.317,-0.29,0.09,1.02,-38.15,4.46,126.71
2026-07-27 13:38:42.319,-0.32,0.12,0.99,-23.07,-9.95,113.04
2026-07-27 13:38:42.337,-0.32,0.12,0.99,-23.07,-9.95,113.04
2026-07-27 13:38:42.338,-0.33,0.16,0.9,-15.5,-28.08,93.63
2026-07-27 13:38:42.338,-0.33,0.16,0.9,-15.5,-28.08,93.63
2026-07-27 13:38:42.338,-0.32,0.15,0.83,-14.16,-33.87,82.09
2026-07-27 13:38:42.338,-0.32,0.15,0.83,-7.93,-18.49,75.5
2026-07-27 13:38:42.338,-0.31,0.12,0.84,-7.93,-18.49,75.5
2026-07-27 13:38:42.339,-0.3,0.12,0.9,7.69,6.65,67.75
2026-07-27 13:38:42.339,-0.3,0.12,0.9,7.69,6.65,67.75
2026-07-27 13:38:42.339,-0.27,0.16,0.95,26.31,21.42,55.66
2026-07-27 13:38:42.555,-0.27,0.16,0.95,26.31,21.42,55.66
2026-07-27 13:38:42.555,-0.23,0.2,0.92,35.58,17.52,43.21
2026-07-27 13:38:42.565,-0.23,0.2,0.92,35.58,17.52,43.21
2026-07-27 13:38:42.565,-0.2,0.19,0.84,24.72,4.09,39.18
2026-07-27 13:38:43.145,-0.2,0.19,0.84,24.72,4.09,39.18
2026-07-27 13:38:43.147,-0.15,0.13,0.83,-0.43,-0.61,41.75
2026-07-27 13:38:43.150,-0.15,0.13,0.83,-15.32,8.54,32.96
2026-07-27 13:38:43.154,-0.11,0.11,0.9,-15.32,8.54,32.96
2026-07-27 13:38:43.156,-0.09,0.15,0.99,-9.89,17.27,6.96
2026-07-27 13:38:43.159,-0.09,0.15,0.99,-9.89,17.27,6.96
2026-07-27 13:38:43.166,-0.06,0.16,1.08,-1.04,17.46,-12.94
2026-07-27 13:38:43.166,-0.06,0.16,1.08,-1.04,17.46,-12.94
2026-07-27 13:38:43.166,-0.09,0.18,1.16,5.62,8.24,-22.83
2026-07-27 13:38:43.167,-0.09,0.18,1.16,39.92,-2.14,-40.1
2026-07-27 13:38:43.167,-0.31,0.34,1.05,39.92,-2.14,-40.1
2026-07-27 13:38:43.167,-0.46,0.49,0.89,70.31,0.31,-50.17
2026-07-27 13:38:43.167,-0.46,0.49,0.89,70.31,0.31,-50.17
2026-07-27 13:38:43.167,-0.39,0.42,0.87,46.08,16.72,-31.13
2026-07-27 13:38:43.167,-0.39,0.42,0.87,46.08,16.72,-31.13
2026-07-27 13:38:43.167,-0.32,0.25,0.84,-13.43,21.42,21.36
2026-07-27 13:38:43.168,-0.35,0.2,0.81,-52.43,8.67,67.26
2026-07-27 13:38:43.168,-0.35,0.2,0.81,-52.43,8.67,67.26
2026-07-27 13:38:43.168,-0.41,0.27,0.87,-34.06,13.55,58.9
2026-07-27 13:38:43.168,-0.41,0.27,0.87,-34.06,13.55,58.9
2026-07-27 13:38:43.168,-0.37,0.37,0.96,4.09,32.04,18.07
2026-07-27 13:38:43.742,-0.37,0.37,0.96,4.09,32.04,18.07
2026-07-27 13:38:43.749,-0.28,0.44,0.97,16.24,31.07,-13.0
2026-07-27 13:38:43.749,-0.28,0.44,0.97,16.24,31.07,-13.0
2026-07-27 13:38:43.750,-0.21,0.47,0.93,-5.98,7.2,-15.32
2026-07-27 13:38:43.755,-0.17,0.43,0.9,-42.36,-24.96,4.15
2026-07-27 13:38:43.766,-0.17,0.43,0.9,-42.36,-24.96,4.15
2026-07-27 13:38:43.766,-0.15,0.27,0.85,-53.22,-47.61,20.2
2026-07-27 13:38:43.766,-0.15,0.27,0.85,-53.22,-47.61,20.2
2026-07-27 13:38:44.165,-0.14,0.11,0.84,-30.33,-37.84,21.36
2026-07-27 13:38:44.170,-0.14,0.11,0.84,-30.33,-37.84,21.36
2026-07-27 13:38:44.284,-0.11,0.1,0.94,-6.65,-4.7,9.52
2026-07-27 13:38:44.284,-0.11,0.1,0.94,-6.65,-4.7,9.52
2026-07-27 13:38:44.285,-0.07,0.2,1.05,-0.98,11.29,-15.26
2026-07-27 13:38:44.285,-0.07,0.2,1.05,-0.98,11.29,-15.26
2026-07-27 13:38:44.285,-0.02,0.31,1.1,-10.62,-4.52,-38.09
2026-07-27 13:38:44.285,-0.01,0.37,1.09,-29.42,-36.13,-38.94
2026-07-27 13:38:44.285,-0.01,0.37,1.09,-29.42,-36.13,-38.94
2026-07-27 13:38:44.285,-0.06,0.4,1.05,-44.37,-60.18,-18.8
2026-07-27 13:38:44.285,-0.06,0.4,1.05,-44.37,-60.18,-18.8
2026-07-27 13:38:44.285,-0.12,0.35,0.98,-51.57,-64.82,18.68
2026-07-27 13:38:44.285,-0.12,0.35,0.98,-51.57,-64.82,18.68
2026-07-27 13:38:44.285,-0.11,0.12,0.92,-63.78,-57.68,81.97
2026-07-27 13:38:44.286,-0.07,-0.09,1.0,-64.39,-32.78,140.38
2026-07-27 13:38:44.286,-0.07,-0.09,1.0,-64.39,-32.78,140.38
2026-07-27 13:38:44.286,-0.09,0.01,1.08,-17.7,3.11,124.39
2026-07-27 13:38:44.286,-0.09,0.01,1.08,-17.7,3.11,124.39
2026-07-27 13:38:44.286,-0.11,0.21,0.97,26.12,11.17,69.46
2026-07-27 13:38:44.287,-0.11,0.21,0.97,26.12,11.17,69.46
2026-07-27 13:38:44.288,-0.06,0.25,0.82,5.62,-4.94,70.37
2026-07-27 13:38:44.288,-0.06,0.25,0.82,5.62,-4.94,70.37
2026-07-27 13:38:44.288,-0.05,0.17,0.72,-37.23,-8.73,117.61
2026-07-27 13:38:44.289,-0.05,0.17,0.72,-62.81,7.26,162.9
2026-07-27 13:38:44.290,-0.11,0.13,0.73,-62.81,7.26,162.9
2026-07-27 13:38:44.291,-0.21,0.15,0.88,-82.76,24.72,194.21
2026-07-27 13:38:44.291,-0.21,0.15,0.88,-82.76,24.72,194.21
2026-07-27 13:38:44.293,-0.25,0.15,1.05,-96.31,23.86,213.87
2026-07-27 13:38:44.294,-0.25,0.15,1.05,-96.31,23.86,213.87
2026-07-27 13:38:44.295,-0.27,-0.02,1.09,-85.45,10.93,232.97
2026-07-27 13:38:44.295,-0.27,-0.02,1.09,-85.45,10.93,232.97
2026-07-27 13:38:44.295,-0.3,-0.18,1.03,-49.19,17.64,267.7
2026-07-27 13:38:44.296,-0.3,-0.18,1.03,-10.93,46.94,275.39
2026-07-27 13:38:44.296,-0.32,-0.05,1.03,-10.93,46.94,275.39
2026-07-27 13:38:44.296,-0.32,0.19,1.09,6.53,58.47,216.06
2026-07-27 13:38:44.297,-0.32,0.19,1.09,6.53,58.47,216.06
2026-07-27 13:38:44.297,-0.3,0.3,1.05,-6.35,35.58,147.16
2026-07-27 13:38:44.298,-0.3,0.3,1.05,-6.35,35.58,147.16
2026-07-27 13:38:44.760,-0.25,0.27,0.98,-59.75,-7.39,124.02
2026-07-27 13:38:44.824,-0.25,0.27,0.98,-59.75,-7.39,124.02
2026-07-27 13:38:44.838,-0.19,0.17,0.93,-106.81,-31.43,132.87
2026-07-27 13:38:44.838,-0.2,0.1,0.92,-90.64,-9.03,128.6
2026-07-27 13:38:44.838,-0.2,0.1,0.92,-90.64,-9.03,128.6
2026-07-27 13:38:44.839,-0.22,0.12,0.95,-43.27,31.01,103.7
2026-07-27 13:38:44.839,-0.22,0.12,0.95,-43.27,31.01,103.7
2026-07-27 13:38:44.839,-0.25,0.2,1.02,-27.71,50.9,77.88
2026-07-27 13:38:44.839,-0.25,0.2,1.02,-27.71,50.9,77.88
2026-07-27 13:38:44.839,-0.36,0.24,1.12,-54.99,37.66,54.69
2026-07-27 13:38:44.839,-0.36,0.24,1.12,-54.99,37.66,54.69
2026-07-27 13:38:44.840,-0.47,0.22,1.1,-79.04,7.45,44.98
2026-07-27 13:38:44.840,-0.55,0.16,0.96,-76.42,-15.62,55.54
2026-07-27 13:38:44.840,-0.55,0.16,0.96,-76.42,-15.62,55.54
2026-07-27 13:38:44.893,-0.57,0.05,0.83,-63.29,-27.16,77.94
2026-07-27 13:38:44.893,-0.57,0.05,0.83,-63.29,-27.16,77.94
2026-07-27 13:38:44.894,-0.54,-0.03,0.78,-40.59,-44.86,106.26
2026-07-27 13:38:44.894,-0.54,-0.03,0.78,-40.59,-44.86,106.26
2026-07-27 13:38:44.907,-0.51,-0.04,0.75,2.44,-73.67,137.15
2026-07-27 13:38:44.908,-0.51,-0.04,0.75,2.44,-73.67,137.15
2026-07-27 13:38:44.908,-0.48,-0.15,0.86,28.56,-86.91,167.05
2026-07-27 13:38:44.908,-0.43,-0.35,1.16,-9.89,-66.1,192.63
2026-07-27 13:38:44.909,-0.43,-0.35,1.16,-9.89,-66.1,192.63
2026-07-27 13:38:44.909,-0.4,-0.33,1.21,-65.0,-57.5,182.07
2026-07-27 13:38:44.910,-0.4,-0.33,1.21,-65.0,-57.5,182.07
2026-07-27 13:38:44.911,-0.39,-0.12,0.91,-64.7,-87.52,125.0
2026-07-27 13:38:44.923,-0.39,-0.12,0.91,-64.7,-87.52,125.0
2026-07-27 13:38:44.923,-0.31,0.04,0.63,-21.79,-101.14,78.37
2026-07-27 13:38:44.923,-0.22,0.08,0.59,17.15,-70.31,65.86
2026-07-27 13:38:44.923,-0.22,0.08,0.59,17.15,-70.31,65.86
2026-07-27 13:38:44.923,-0.13,0.03,0.74,32.1,-28.93,69.95
2026-07-27 13:38:45.481,-0.13,0.03,0.74,32.1,-28.93,69.95
2026-07-27 13:38:45.482,-0.01,-0.06,0.98,22.03,-6.84,88.81
2026-07-27 13:38:45.484,-0.01,-0.06,0.98,22.03,-6.84,88.81
2026-07-27 13:38:45.485,0.05,-0.08,1.14,7.26,-8.36,100.89
2026-07-27 13:38:45.485,0.05,-0.08,1.14,7.26,-8.36,100.89
2026-07-27 13:38:46.333,0.05,-0.08,1.14,7.26,-8.36,100.89
2026-07-27 13:38:47.003,0.05,-0.08,1.14,7.26,-8.36,100.89
2026-07-27 13:38:47.024,0.08,-0.13,1.14,7.08,-32.23,79.1
2026-07-27 13:38:47.024,-0.06,0.12,1.08,13.73,-32.04,44.98
2026-07-27 13:38:47.024,-0.06,0.12,1.08,13.73,-32.04,44.98
2026-07-27 13:38:47.024,-0.21,0.4,1.0,43.7,-16.3,8.79
2026-07-27 13:38:47.640,-0.21,0.4,1.0,43.7,-16.3,8.79
2026-07-27 13:38:47.642,-0.2,0.38,0.98,50.35,26.25,35.1
2026-07-27 13:38:47.645,-0.2,0.38,0.98,50.35,26.25,35.1
2026-07-27 13:38:47.647,-0.17,0.29,0.91,17.82,42.36,92.65
2026-07-27 13:38:47.647,-0.17,0.29,0.91,17.82,42.36,92.65
2026-07-27 13:38:47.699,-0.18,0.26,0.77,-0.85,18.43,125.12
2026-07-27 13:38:49.230,-0.18,0.26,0.77,7.26,12.57,136.35
2026-07-27 13:38:49.231,-0.17,0.25,0.79,7.26,12.57,136.35
2026-07-27 13:38:49.231,-0.07,0.26,1.03,11.6,38.21,140.01
2026-07-27 13:38:49.231,-0.07,0.26,1.03,11.6,38.21,140.01
2026-07-27 13:38:49.232,0.01,0.29,1.18,-1.22,52.19,127.99
2026-07-27 13:38:49.232,0.01,0.29,1.18,-1.22,52.19,127.99
2026-07-27 13:38:49.232,-0.0,0.31,1.08,-23.32,28.2,103.82
2026-07-27 13:38:49.232,-0.0,0.31,1.08,-23.32,28.2,103.82
2026-07-27 13:38:49.233,-0.0,0.31,1.08,-23.32,28.2,103.82
2026-07-27 13:38:49.233,-0.0,0.31,1.08,-23.32,28.2,103.82
2026-07-27 13:38:49.240,-0.08,0.19,0.89,-31.43,-19.84,41.38
2026-07-27 13:38:49.240,-0.08,0.19,0.89,3.54,-19.65,14.77
2026-07-27 13:38:49.240,-0.08,0.09,0.97,3.54,-19.65,14.77
2026-07-27 13:38:49.922,-0.02,0.12,0.97,82.52,-23.44,4.64
2026-07-27 13:38:49.976,-0.02,0.12,0.97,82.52,-23.44,4.64
2026-07-27 13:38:49.976,0.05,0.26,0.95,131.23,-31.62,-3.78
2026-07-27 13:38:49.976,0.05,0.26,0.95,131.23,-31.62,-3.78
2026-07-27 13:38:49.976,0.06,0.44,1.01,94.06,-24.23,-25.76
2026-07-27 13:38:49.977,0.06,0.44,1.01,94.06,-24.23,-25.76
2026-07-27 13:38:50.038,0.06,0.58,1.1,28.81,2.01,-46.39
2026-07-27 13:38:50.038,0.06,0.58,1.1,28.81,2.01,-46.39
2026-07-27 13:38:50.038,-0.01,0.62,1.05,-25.51,23.62,-33.26
2026-07-27 13:38:50.067,-0.11,0.42,0.89,-68.42,20.69,37.29
2026-07-27 13:38:50.067,-0.11,0.42,0.89,-68.42,20.69,37.29
2026-07-27 13:38:50.067,-0.11,0.07,0.93,-104.0,6.23,132.32
2026-07-27 13:38:50.095,-0.11,0.07,0.93,-104.0,6.23,132.32
2026-07-27 13:38:50.095,-0.07,-0.04,1.11,-109.01,-6.23,155.15
2026-07-27 13:38:50.095,-0.07,-0.04,1.11,-109.01,-6.23,155.15
2026-07-27 13:38:50.095,-0.09,0.1,1.09,-61.4,-20.2,76.29
2026-07-27 13:38:50.098,-0.09,0.1,1.09,-61.4,-20.2,76.29
2026-07-27 13:38:50.098,-0.09,0.21,0.9,-12.7,-32.96,3.42
2026-07-27 13:38:50.098,-0.04,0.18,0.73,-1.46,-32.41,7.69
2026-07-27 13:38:50.099,-0.04,0.18,0.73,-1.46,-32.41,7.69
2026-07-27 13:38:50.099,0.04,0.08,0.66,4.21,-17.64,38.51
2026-07-27 13:38:50.099,0.04,0.08,0.66,4.21,-17.64,38.51
2026-07-27 13:38:50.099,0.17,0.02,0.7,28.69,0.73,43.82
2026-07-27 13:38:50.099,0.17,0.02,0.7,28.69,0.73,43.82
2026-07-27 13:38:50.099,0.33,0.08,0.82,57.37,12.51,29.05
2026-07-27 13:38:50.099,0.33,0.08,0.82,57.37,12.51,29.05
2026-07-27 13:38:50.099,0.38,0.29,0.91,72.39,11.9,21.42
2026-07-27 13:38:50.099,0.38,0.29,0.91,68.3,2.08,46.63
2026-07-27 13:38:50.099,0.08,0.55,0.85,68.3,2.08,46.63
2026-07-27 13:38:50.099,-0.41,0.65,0.73,50.66,1.71,110.96
2026-07-27 13:38:50.100,-0.41,0.65,0.73,50.66,1.71,110.96
2026-07-27 13:38:50.100,-0.57,0.4,0.85,19.04,34.97,184.81
2026-07-27 13:38:50.101,-0.57,0.4,0.85,19.04,34.97,184.81
2026-07-27 13:38:50.101,-0.33,0.07,1.04,-31.37,57.5,217.29
2026-07-27 13:38:50.171,-0.33,0.07,1.04,-31.37,57.5,217.29
2026-07-27 13:38:50.189,-0.08,0.07,1.06,-59.14,29.05,148.07
2026-07-27 13:38:50.414,-0.08,0.07,1.06,-26.18,-10.44,-8.54
2026-07-27 13:38:50.414,0.44,-0.32,0.59,-39.92,-8.18,39.0
2026-07-27 13:38:50.414,0.44,-0.32,0.59,-39.92,-8.18,39.0
2026-07-27 13:38:50.417,0.47,-0.39,0.68,-22.83,14.22,40.95
2026-07-27 13:38:50.417,0.47,-0.39,0.68,-22.83,14.22,40.95
2026-07-27 13:38:50.418,0.43,-0.26,0.87,6.96,2.08,-6.53
2026-07-27 13:38:50.418,0.43,-0.27,0.86,2.32,0.61,-2.08
2026-07-27 13:38:50.419,0.43,-0.27,0.86,-2.32,-0.06,-0.92
2026-07-27 13:38:50.419,0.43,-0.28,0.86,-2.32,-0.06,-0.92
2026-07-27 13:38:50.419,0.44,-0.27,0.85,-8.12,0.18,-8.06
2026-07-27 13:38:50.419,0.44,-0.27,0.85,-8.12,0.18,-8.06
2026-07-27 13:38:50.419,0.43,-0.24,0.85,-15.99,1.95,-18.19
2026-07-27 13:38:50.419,0.43,-0.24,0.85,-15.99,1.95,-18.19
2026-07-27 13:38:50.419,-0.17,-0.28,1.1,10.99,-56.09,38.21
2026-07-27 13:38:50.420,-0.22,-0.3,1.04,-4.82,-70.07,57.62
2026-07-27 13:38:50.420,-0.22,-0.3,1.04,-4.82,-70.07,57.62
2026-07-27 13:38:50.420,-0.25,-0.31,0.93,-11.05,-69.7,61.83
2026-07-27 13:38:50.420,-0.25,-0.31,0.93,-11.05,-69.7,61.83
2026-07-27 13:38:50.421,-0.21,-0.31,0.84,-12.27,-62.62,62.5
2026-07-27 13:38:50.421,-0.21,-0.31,0.84,-12.27,-62.62,62.5
2026-07-27 13:38:50.422,-0.13,-0.31,0.81,-5.98,-49.32,61.71
2026-07-27 13:38:50.422,-0.13,-0.31,0.81,-5.98,-49.32,61.71
2026-07-27 13:38:50.422,-0.13,-0.31,0.81,-5.98,-49.32,61.71
2026-07-27 13:38:50.422,-0.13,-0.31,0.81,-5.98,-49.32,61.71
2026-07-27 13:38:50.422,-0.08,-0.19,0.94,39.73,14.34,26.86
2026-07-27 13:38:50.423,-0.25,-0.2,0.86,-49.62,-38.21,54.63
2026-07-27 13:38:50.423,-0.23,-0.22,1.05,-11.84,14.22,25.7
2026-07-27 13:38:50.423,-0.23,-0.22,1.05,-11.84,14.22,25.7
2026-07-27 13:38:50.423,-0.24,-0.11,1.12,27.34,49.56,-28.75
2026-07-27 13:38:50.423,-0.24,-0.11,1.12,27.34,49.56,-28.75
2026-07-27 13:38:50.424,-0.25,-0.02,1.03,33.08,38.27,-59.08
2026-07-27 13:38:50.524,-0.25,-0.02,1.03,33.08,38.27,-59.08
2026-07-27 13:38:50.971,-0.21,-0.03,0.91,11.47,9.09,-49.01
2026-07-27 13:38:50.974,-0.21,-0.03,0.91,11.47,9.09,-49.01
2026-07-27 13:38:51.125,-0.17,-0.08,0.85,-7.75,-4.33,-31.07
2026-07-27 13:38:51.136,-0.17,-0.08,0.85,-7.75,-4.33,-31.07
2026-07-27 13:38:51.136,-0.17,-0.08,0.85,-7.75,-4.33,-31.07
2026-07-27 13:38:51.136,-0.17,-0.08,0.85,-7.75,-4.33,-31.07
2026-07-27 13:38:51.137,-0.14,-0.14,0.93,7.93,23.07,-45.72
2026-07-27 13:38:51.137,-0.14,-0.14,0.93,7.93,23.07,-45.72
2026-07-27 13:38:51.137,-0.15,-0.08,1.0,25.33,38.7,-65.25
2026-07-27 13:38:51.137,-0.15,-0.04,1.06,34.79,48.28,-74.83
2026-07-27 13:38:51.137,-0.15,-0.04,1.06,34.79,48.28,-74.83
2026-07-27 13:38:51.137,-0.13,-0.06,1.1,33.39,49.07,-67.99
2026-07-27 13:38:51.137,-0.13,-0.06,1.1,33.39,49.07,-67.99
2026-07-27 13:38:51.137,-0.11,-0.15,1.11,18.31,30.46,-52.92
2026-07-27 13:38:51.137,-0.11,-0.15,1.11,18.31,30.46,-52.92
2026-07-27 13:38:51.137,-0.14,-0.22,1.09,-7.63,0.0,-47.73
2026-07-27 13:38:51.138,-0.14,-0.22,1.09,-23.56,-15.2,-59.81
2026-07-27 13:38:51.138,-0.24,-0.2,1.09,-23.56,-15.2,-59.81
2026-07-27 13:38:51.138,-0.3,-0.14,1.01,-20.08,-11.35,-71.41
2026-07-27 13:38:51.138,-0.3,-0.14,1.01,-20.08,-11.35,-71.41
2026-07-27 13:38:51.138,-0.28,-0.12,0.83,-24.29,-17.09,-60.91
2026-07-27 13:38:51.138,-0.28,-0.12,0.83,-24.29,-17.09,-60.91
2026-07-27 13:38:51.138,-0.24,-0.25,0.71,-56.58,-41.87,-26.73
2026-07-27 13:38:51.138,-0.22,-0.45,0.84,-75.68,-41.87,2.69
2026-07-27 13:38:51.138,-0.22,-0.45,0.84,-75.68,-41.87,2.69
2026-07-27 13:38:51.138,-0.25,-0.45,1.02,-20.08,14.65,-9.09
2026-07-27 13:38:51.138,-0.25,-0.45,1.02,-20.08,14.65,-9.09
2026-07-27 13:38:51.138,-0.27,-0.25,1.0,59.33,57.37,-48.28
2026-07-27 13:38:51.138,-0.27,-0.25,1.0,59.33,57.37,-48.28
2026-07-27 13:38:51.138,-0.23,-0.13,0.83,66.96,27.89,-71.17
2026-07-27 13:38:51.138,-0.23,-0.13,0.83,66.96,27.89,-71.17
2026-07-27 13:38:51.146,-0.17,-0.15,0.66,25.51,-20.94,-72.94
2026-07-27 13:38:51.146,-0.14,-0.23,0.61,1.22,-30.4,-70.37
2026-07-27 13:38:51.146,-0.14,-0.23,0.61,1.22,-30.4,-70.37
2026-07-27 13:38:51.146,-0.15,-0.26,0.76,1.1,-1.83,-63.05
2026-07-27 13:38:51.148,-0.15,-0.26,0.76,1.1,-1.83,-63.05
2026-07-27 13:38:51.148,-0.15,-0.36,1.12,4.09,35.34,-49.07
2026-07-27 13:38:51.148,-0.15,-0.36,1.12,4.09,35.34,-49.07
2026-07-27 13:38:51.148,-0.24,-0.36,1.34,20.39,67.63,-39.92
2026-07-27 13:38:51.148,-0.24,-0.36,1.34,20.39,67.63,-39.92
2026-07-27 13:38:51.148,-0.4,-0.11,1.14,55.85,65.19,-57.13
2026-07-27 13:38:51.148,-0.4,-0.11,1.14,55.85,65.19,-57.13
2026-07-27 13:38:51.148,-0.39,0.05,0.81,56.03,13.49,-68.54
2026-07-27 13:38:51.148,-0.29,0.01,0.71,19.53,-23.13,-44.62
2026-07-27 13:38:51.148,-0.29,0.01,0.71,19.53,-23.13,-44.62
2026-07-27 13:38:51.204,-0.31,-0.08,0.86,9.46,-6.65,-28.93
2026-07-27 13:38:51.204,-0.31,-0.08,0.86,9.46,-6.65,-28.93
2026-07-27 13:38:51.204,-0.38,-0.14,1.05,32.47,32.29,-36.56
2026-07-27 13:38:51.253,-0.38,-0.14,1.05,32.47,32.29,-36.56
2026-07-27 13:38:51.253,-0.42,-0.1,1.08,53.16,51.64,-53.16
2026-07-27 13:38:51.253,-0.42,-0.04,0.98,49.87,34.42,-74.71
2026-07-27 13:38:51.254,-0.42,-0.04,0.98,49.87,34.42,-74.71
2026-07-27 13:38:51.423,-0.39,-0.04,0.88,31.74,10.38,-90.7
2026-07-27 13:38:51.423,-0.39,-0.04,0.88,31.74,10.38,-90.7
2026-07-27 13:38:51.426,-0.37,-0.11,0.88,20.39,8.36,-98.14
2026-07-27 13:38:51.427,-0.37,-0.11,0.88,20.39,8.36,-98.14
2026-07-27 13:38:51.427,-0.43,-0.17,0.92,25.09,24.66,-105.65
2026-07-27 13:38:51.428,-0.57,-0.1,0.92,37.35,38.88,-127.2
2026-07-27 13:38:51.432,-0.57,-0.1,0.92,37.35,38.88,-127.2
2026-07-27 13:38:51.433,-0.69,0.07,0.86,44.49,37.05,-166.5
2026-07-27 13:38:51.549,-0.69,0.07,0.86,44.49,37.05,-166.5
2026-07-27 13:38:51.561,-0.55,0.07,0.89,43.88,35.03,-187.01
2026-07-27 13:38:51.578,-0.55,0.07,0.89,43.88,35.03,-187.01
2026-07-27 13:38:51.578,-0.27,-0.07,0.98,49.5,46.57,-181.15
2026-07-27 13:38:51.578,-0.17,-0.06,0.94,57.19,47.12,-171.26
2026-07-27 13:38:51.578,-0.17,-0.06,0.94,57.19,47.12,-171.26
2026-07-27 13:38:52.741,-0.2,-0.03,0.85,32.17,25.39,-135.8
2026-07-27 13:38:52.746,-0.2,-0.03,0.85,32.17,25.39,-135.8
2026-07-27 13:38:52.747,-0.18,-0.12,0.9,-13.12,10.31,-75.5
2026-07-27 13:38:52.747,-0.18,-0.12,0.9,-13.12,10.31,-75.5
2026-07-27 13:38:52.747,-0.13,-0.22,1.03,-17.21,16.97,-50.6
2026-07-27 13:38:52.749,-0.15,-0.23,1.07,24.48,25.7,-79.28
2026-07-27 13:38:52.839,-0.15,-0.23,1.07,24.48,25.7,-79.28
2026-07-27 13:38:52.849,-0.22,-0.15,0.95,46.69,13.12,-104.86
2026-07-27 13:38:52.854,-0.22,-0.15,0.95,46.69,13.12,-104.86
2026-07-27 13:38:52.854,-0.29,-0.1,0.8,11.66,-18.25,-86.67
2026-07-27 13:38:52.855,-0.29,-0.1,0.8,11.66,-18.25,-86.67
2026-07-27 13:38:52.855,-0.3,-0.19,0.72,-44.43,-38.82,-36.93
2026-07-27 13:38:52.855,-0.3,-0.19,0.72,-44.43,-38.82,-36.93
2026-07-27 13:38:52.856,-0.25,-0.36,0.74,-70.74,-31.74,3.85
2026-07-27 13:38:52.856,-0.21,-0.51,0.81,-56.52,-7.57,8.0
2026-07-27 13:38:52.858,-0.21,-0.51,0.81,-56.52,-7.57,8.0
2026-07-27 13:38:52.858,-0.21,-0.6,0.87,-18.8,24.78,-13.37
2026-07-27 13:38:53.049,-0.21,-0.6,0.87,-18.8,24.78,-13.37
2026-07-27 13:38:53.053,-0.22,-0.64,0.94,22.4,59.88,-40.34
2026-07-27 13:38:53.522,-0.22,-0.64,0.94,22.4,59.88,-40.34
2026-07-27 13:38:53.530,-0.22,-0.6,0.99,54.26,73.73,-75.13
2026-07-27 13:38:53.530,-0.22,-0.6,0.99,54.26,73.73,-75.13
2026-07-27 13:38:53.530,-0.22,-0.6,0.99,54.26,73.73,-75.13
2026-07-27 13:38:53.531,-0.22,-0.6,0.99,54.26,73.73,-75.13
2026-07-27 13:38:53.531,-0.33,-0.35,0.99,90.76,40.16,-151.86
2026-07-27 13:38:53.531,-0.33,-0.35,0.99,101.07,34.36,-151.31
2026-07-27 13:38:53.531,-0.42,-0.2,0.88,101.07,34.36,-151.31
2026-07-27 13:38:53.531,-0.37,-0.11,0.8,71.66,4.03,-100.71
2026-07-27 13:38:53.531,-0.37,-0.11,0.8,71.66,4.03,-100.71
2026-07-27 13:38:53.531,-0.33,-0.03,0.77,20.81,-32.17,-57.13
2026-07-27 13:38:53.531,-0.33,-0.03,0.77,20.81,-32.17,-57.13
2026-07-27 13:38:53.531,-0.39,0.04,0.8,-2.38,-27.1,-64.51
2026-07-27 13:38:53.531,-0.39,0.04,0.8,-2.38,-27.1,-64.51
2026-07-27 13:38:53.531,-0.43,0.04,0.93,0.67,10.25,-75.07
2026-07-27 13:38:53.531,-0.43,0.04,0.93,0.67,10.25,-75.07
2026-07-27 13:38:53.531,-0.37,-0.03,1.07,16.24,43.88,-53.04
2026-07-27 13:38:54.904,-0.29,-0.1,1.1,37.29,49.93,-24.05
2026-07-27 13:38:54.904,-0.29,-0.1,1.1,37.29,49.93,-24.05
2026-07-27 13:38:54.906,-0.26,-0.12,1.01,49.32,21.61,-12.15
2026-07-27 13:38:54.906,-0.26,-0.12,1.01,49.32,21.61,-12.15
2026-07-27 13:38:55.146,-0.26,-0.09,0.94,50.96,-13.18,-20.08
2026-07-27 13:38:55.147,-0.26,-0.09,0.94,50.96,-13.18,-20.08
2026-07-27 13:38:55.147,-0.24,-0.08,0.89,46.57,-27.77,-35.46
2026-07-27 13:38:55.147,-0.24,-0.08,0.89,46.57,-27.77,-35.46
2026-07-27 13:38:55.147,-0.21,-0.1,0.88,38.15,-26.49,-40.59
2026-07-27 13:38:55.147,-0.18,-0.12,0.91,28.38,-18.31,-31.92
2026-07-27 13:38:55.154,-0.18,-0.12,0.91,28.38,-18.31,-31.92
2026-07-27 13:38:55.154,-0.15,-0.12,0.96,16.78,-9.7,-23.38
2026-07-27 13:38:55.154,-0.15,-0.12,0.96,16.78,-9.7,-23.38
2026-07-27 13:38:55.155,-0.14,-0.1,1.0,7.81,-2.38,-26.98
2026-07-27 13:38:55.155,-0.14,-0.1,1.0,7.81,-2.38,-26.98
2026-07-27 13:38:55.155,-0.12,-0.09,1.02,7.69,4.88,-32.23
2026-07-27 13:38:55.155,-0.06,-0.09,1.03,11.17,11.84,-23.68
2026-07-27 13:38:55.156,-0.06,-0.09,1.03,11.17,11.84,-23.68
2026-07-27 13:38:55.156,0.03,-0.1,1.06,8.3,14.83,-10.38
2026-07-27 13:38:55.156,0.03,-0.1,1.06,8.3,14.83,-10.38
2026-07-27 13:38:55.156,0.09,-0.09,1.12,-4.33,10.01,-11.29
2026-07-27 13:38:55.156,0.09,-0.09,1.12,-4.33,10.01,-11.29
2026-07-27 13:38:55.156,0.1,-0.06,1.22,-33.81,-10.31,-15.01
2026-07-27 13:38:55.156,0.1,-0.06,1.22,-33.81,-10.31,-15.01
2026-07-27 13:38:55.156,0.07,-0.07,1.28,-87.89,-54.32,12.33
2026-07-27 13:38:55.156,0.01,-0.11,1.21,-135.74,-99.55,62.5
2026-07-27 13:38:55.156,0.01,-0.11,1.21,-135.74,-99.55,62.5
2026-07-27 13:38:55.158,-0.03,-0.12,1.07,-148.8,-124.21,99.49
2026-07-27 13:38:55.158,-0.03,-0.12,1.07,-148.8,-124.21,99.49
2026-07-27 13:38:55.159,-0.06,-0.19,0.89,-123.11,-130.98,113.04
2026-07-27 13:38:55.159,-0.06,-0.19,0.89,-123.11,-130.98,113.04
2026-07-27 13:38:55.160,-0.07,-0.32,0.8,-68.73,-120.36,110.17
2026-07-27 13:38:55.160,0.04,-0.42,0.89,-23.68,-89.17,95.64
2026-07-27 13:38:55.161,0.04,-0.42,0.89,-23.68,-89.17,95.64
2026-07-27 13:38:55.161,0.11,-0.41,0.96,2.14,-54.57,67.99
2026-07-27 13:38:55.163,0.11,-0.41,0.96,2.14,-54.57,67.99
2026-07-27 13:38:55.163,0.06,-0.31,0.92,17.46,-45.9,48.1
2026-07-27 13:38:55.163,0.06,-0.31,0.92,17.46,-45.9,48.1
2026-07-27 13:38:55.163,-0.06,-0.17,0.85,25.33,-59.94,62.5
2026-07-27 13:38:55.164,-0.06,-0.17,0.85,25.33,-59.94,62.5
2026-07-27 13:38:55.164,-0.18,-0.12,0.73,31.74,-74.28,104.98
2026-07-27 13:38:55.164,-0.16,-0.21,0.64,25.7,-81.6,155.64
2026-07-27 13:38:55.164,-0.16,-0.21,0.64,25.7,-81.6,155.64
2026-07-27 13:38:55.164,-0.0,-0.36,0.71,5.0,-82.15,189.82
2026-07-27 13:38:55.164,-0.0,-0.36,0.71,5.0,-82.15,189.82
2026-07-27 13:38:55.164,-0.07,-0.29,1.19,40.28,-6.47,202.03
2026-07-27 13:38:55.168,-0.07,-0.29,1.19,40.28,-6.47,202.03
2026-07-27 13:38:55.168,-0.08,-0.08,0.99,35.83,-5.37,70.07
2026-07-27 13:38:55.168,-0.08,-0.08,0.99,35.83,-5.37,70.07
2026-07-27 13:38:55.169,-0.08,0.01,0.84,23.68,-19.53,26.43
2026-07-27 13:38:55.169,-0.08,0.01,0.84,23.68,-19.53,26.43
2026-07-27 13:38:55.170,-0.05,-0.04,0.87,3.36,-26.31,60.42
2026-07-27 13:38:55.170,-0.06,-0.11,0.96,5.8,-19.04,108.28
2026-07-27 13:38:55.170,-0.06,-0.11,0.96,5.8,-19.04,108.28
2026-07-27 13:38:55.171,-0.09,-0.14,1.02,21.42,-16.36,141.72
2026-07-27 13:38:55.171,-0.09,-0.14,1.02,21.42,-16.36,141.72
2026-07-27 13:38:55.171,-0.14,-0.14,1.09,24.41,-17.09,141.42
2026-07-27 13:38:55.171,-0.14,-0.14,1.09,24.41,-17.09,141.42
2026-07-27 13:38:55.171,-0.19,-0.07,1.13,12.51,-38.57,108.28
2026-07-27 13:38:55.171,-0.19,-0.07,1.13,12.51,-38.57,108.28
2026-07-27 13:38:55.171,-0.19,-0.04,1.1,-7.26,-85.82,71.84
2026-07-27 13:38:55.191,0.44,-0.4,0.94,-21.0,-62.07,26.06
2026-07-27 13:38:55.192,0.72,-0.46,0.53,-11.54,-20.2,-24.84
2026-07-27 13:38:55.192,0.72,-0.46,0.53,-11.54,-20.2,-24.84
2026-07-27 13:38:55.192,0.56,-0.52,0.68,29.54,-13.0,-15.32
2026-07-27 13:38:57.146,0.58,-0.47,0.68,33.94,-17.58,-22.28
2026-07-27 13:38:57.172,0.58,-0.47,0.68,33.94,-17.58,-22.28
2026-07-27 13:38:58.019,0.6,-0.42,0.69,28.38,-13.73,-20.2
2026-07-27 13:38:58.020,0.6,-0.42,0.69,28.38,-13.73,-20.2
2026-07-27 13:38:58.020,0.61,-0.39,0.7,21.61,-7.51,-11.66
2026-07-27 13:38:59.582,0.61,-0.39,0.7,21.61,-7.51,-11.66
2026-07-27 13:38:59.585,0.61,-0.39,0.7,15.99,-3.42,-3.91
2026-07-27 13:38:59.585,0.62,-0.39,0.68,9.64,-1.95,-1.04
2026-07-27 13:38:59.585,0.62,-0.39,0.68,9.64,-1.95,-1.04
2026-07-27 13:38:59.585,0.65,-0.38,0.66,2.44,-2.32,-0.49
2026-07-27 13:38:59.590,0.65,-0.38,0.66,2.44,-2.32,-0.49
2026-07-27 13:38:59.590,0.65,-0.37,0.65,-2.81,-2.44,0.85
2026-07-27 13:38:59.590,0.65,-0.37,0.65,-2.81,-2.44,0.85
2026-07-27 13:38:59.590,0.64,-0.37,0.66,-4.09,-1.34,2.2
2026-07-27 13:38:59.590,0.64,-0.37,0.66,-4.09,-1.34,2.2
2026-07-27 13:38:59.590,0.65,-0.38,0.66,-3.54,-0.79,1.83
2026-07-27 13:38:59.590,0.65,-0.38,0.66,-3.54,-1.22,0.31
2026-07-27 13:38:59.590,0.66,-0.38,0.64,-3.54,-1.22,0.31
2026-07-27 13:38:59.592,0.67,-0.39,0.62,-4.46,-0.98,-0.85
2026-07-27 13:38:59.592,0.67,-0.39,0.62,-4.46,-0.98,-0.85
2026-07-27 13:38:59.598,0.67,-0.39,0.62,-5.8,0.37,-0.55
2026-07-27 13:38:59.605,0.67,-0.39,0.62,-5.8,0.37,-0.55
2026-07-27 13:38:59.605,0.66,-0.39,0.63,-6.23,1.71,0.31
2026-07-27 13:38:59.605,0.66,-0.39,0.63,-6.23,1.71,0.31
2026-07-27 13:38:59.605,0.64,-0.39,0.65,-5.68,2.81,0.92
2026-07-27 13:38:59.605,0.64,-0.39,0.65,-5.68,2.81,0.92
2026-07-27 13:38:59.606,0.64,-0.39,0.66,-4.58,3.23,1.34
2026-07-27 13:38:59.606,0.64,-0.39,0.66,-3.23,2.75,2.5
2026-07-27 13:38:59.606,0.64,-0.41,0.65,-3.23,2.75,2.5
2026-07-27 13:38:59.606,0.64,-0.41,0.64,-1.59,1.59,4.52
2026-07-27 13:38:59.606,0.64,-0.41,0.64,-1.59,1.59,4.52
2026-07-27 13:38:59.606,0.63,-0.42,0.64,0.12,0.43,6.1
2026-07-27 13:38:59.607,0.63,-0.42,0.64,0.12,0.43,6.1
2026-07-27 13:38:59.607,0.63,-0.42,0.64,1.1,-0.37,6.71
2026-07-27 13:38:59.609,0.63,-0.42,0.64,1.1,-0.37,6.71
2026-07-27 13:38:59.609,0.62,-0.42,0.65,1.65,-0.61,6.47
2026-07-27 13:38:59.609,0.62,-0.42,0.65,1.65,-0.61,6.47
2026-07-27 13:38:59.609,0.62,-0.42,0.66,2.32,-0.24,5.43
2026-07-27 13:38:59.609,0.62,-0.42,0.66,2.32,-0.24,5.43
2026-07-27 13:38:59.609,0.61,-0.42,0.66,3.3,-0.06,3.66
2026-07-27 13:38:59.609,0.61,-0.42,0.66,3.3,-0.06,3.66
2026-07-27 13:38:59.609,0.61,-0.42,0.66,4.46,-0.55,1.65
2026-07-27 13:38:59.609,0.61,-0.42,0.66,4.58,-1.04,0.49
2026-07-27 13:38:59.609,0.62,-0.41,0.66,4.58,-1.04,0.49
2026-07-27 13:38:59.609,0.63,-0.4,0.65,3.36,-0.49,0.98
2026-07-27 13:38:59.609,0.63,-0.4,0.65,3.36,-0.49,0.98
2026-07-27 13:38:59.609,0.64,-0.41,0.65,2.2,1.16,3.72
2026-07-27 13:38:59.609,0.64,-0.41,0.65,2.2,1.16,3.72
2026-07-27 13:38:59.704,0.63,-0.42,0.65,2.38,3.11,9.03
2026-07-27 13:38:59.719,0.63,-0.42,0.65,2.38,3.11,9.03
2026-07-27 13:38:59.720,0.61,-0.43,0.66,4.46,4.46,14.83
2026-07-27 13:38:59.720,0.61,-0.43,0.66,4.46,4.46,14.83
2026-07-27 13:38:59.720,0.58,-0.43,0.68,7.45,4.03,16.85
2026-07-27 13:38:59.720,0.58,-0.43,0.68,7.45,4.03,16.85
2026-07-27 13:38:59.720,0.57,-0.43,0.7,9.58,1.83,12.82
2026-07-27 13:38:59.720,0.57,-0.43,0.7,10.44,-0.73,5.74
2026-07-27 13:38:59.720,0.57,-0.42,0.72,10.44,-0.73,5.74
2026-07-27 13:38:59.720,0.58,-0.41,0.71,9.22,-2.44,-1.16
2026-07-27 13:38:59.727,0.58,-0.41,0.71,9.22,-2.44,-1.16
2026-07-27 13:38:59.769,0.6,-0.4,0.69,5.07,-2.01,-5.98
2026-07-27 13:38:59.797,0.6,-0.4,0.69,5.07,-2.01,-5.98
2026-07-27 13:38:59.797,0.59,-0.4,0.69,-6.29,-1.65,-2.56
2026-07-27 13:38:59.797,0.59,-0.41,0.68,-4.15,-2.81,-5.19
2026-07-27 13:38:59.797,0.61,-0.42,0.68,-7.02,7.93,-3.11
2026-07-27 13:38:59.797,0.61,-0.42,0.68,-7.02,7.93,-3.11
2026-07-27 13:38:59.797,0.61,-0.39,0.68,-5.13,4.46,2.5
2026-07-27 13:38:59.797,0.8,-0.65,0.59,66.89,48.1,-83.5
2026-07-27 13:38:59.797,0.83,-0.43,0.67,99.55,109.31,-184.14
2026-07-27 13:38:59.797,0.83,-0.43,0.67,99.55,109.31,-184.14
2026-07-27 13:38:59.797,0.59,-0.04,0.86,86.12,187.93,-275.02
2026-07-27 13:38:59.798,0.59,-0.04,0.86,86.12,187.93,-275.02
2026-07-27 13:39:00.088,0.22,0.2,1.09,31.62,237.18,-286.87
2026-07-27 13:39:00.088,0.22,0.2,1.09,31.62,237.18,-286.87
2026-07-27 13:39:00.131,0.05,0.2,1.26,-35.58,189.39,-184.45
2026-07-27 13:39:00.132,0.03,0.12,1.18,-66.65,90.94,-46.33
2026-07-27 13:39:00.132,0.03,0.12,1.18,-66.65,90.94,-46.33
2026-07-27 13:39:00.132,-0.02,0.03,0.97,-59.27,32.04,19.41
2026-07-27 13:39:00.132,-0.02,0.03,0.97,-59.27,32.04,19.41
2026-07-27 13:39:00.132,-0.05,-0.04,0.8,-39.18,6.04,11.6
2026-07-27 13:39:00.132,-0.05,-0.04,0.8,-39.18,6.04,11.6
2026-07-27 13:39:00.132,-0.06,-0.09,0.73,-22.46,-13.43,-18.13
2026-07-27 13:39:00.133,-0.06,-0.09,0.73,-5.86,-16.48,-23.25
2026-07-27 13:39:00.171,-0.02,-0.11,0.75,-5.86,-16.48,-23.25
2026-07-27 13:39:00.172,0.06,-0.09,0.82,11.47,-6.29,-1.89
2026-07-27 13:39:00.172,0.06,-0.09,0.82,11.47,-6.29,-1.89
2026-07-27 13:39:00.172,0.15,-0.08,0.9,19.53,4.82,13.61
2026-07-27 13:39:00.172,0.15,-0.08,0.9,19.53,4.82,13.61
2026-07-27 13:39:00.304,0.21,-0.07,0.98,15.75,12.88,10.68
2026-07-27 13:39:00.308,0.21,-0.07,0.98,15.75,12.88,10.68
2026-07-27 13:39:00.313,0.22,-0.07,1.03,4.15,9.46,1.71
2026-07-27 13:39:00.316,0.22,-0.07,1.03,4.15,9.46,1.71
2026-07-27 13:39:00.322,0.22,-0.07,1.03,4.15,9.46,1.71
2026-07-27 13:39:00.379,0.22,-0.07,1.03,4.15,9.46,1.71
2026-07-27 13:39:00.379,0.18,-0.07,0.97,-15.08,-12.33,-1.22
2026-07-27 13:39:00.387,0.18,-0.07,0.97,-15.08,-12.33,-1.22
2026-07-27 13:39:00.388,0.16,-0.07,0.93,-18.55,-10.5,-6.77
2026-07-27 13:39:00.388,0.14,-0.1,0.93,-22.16,-4.33,-15.32
2026-07-27 13:39:00.388,0.14,-0.1,0.93,-22.16,-4.33,-15.32
2026-07-27 13:39:00.389,0.14,-0.13,0.95,-21.18,3.72,-19.71
2026-07-27 13:39:00.396,0.14,-0.13,0.95,-21.18,3.72,-19.71
2026-07-27 13:39:00.611,0.13,-0.12,0.97,-10.74,6.77,-13.98
2026-07-27 13:39:00.612,0.13,-0.12,0.97,-10.74,6.77,-13.98
2026-07-27 13:39:00.612,0.14,-0.11,0.97,-7.51,-4.64,3.36
2026-07-27 13:39:00.612,0.14,-0.11,0.97,-7.51,-4.64,3.36
2026-07-27 13:39:00.613,0.17,-0.14,0.95,-21.48,-24.35,16.66
2026-07-27 13:39:00.613,0.17,-0.17,0.9,-28.93,-31.8,13.49
2026-07-27 13:39:00.613,0.17,-0.17,0.9,-28.93,-31.8,13.49
2026-07-27 13:39:00.613,0.15,-0.19,0.89,-24.41,-27.22,0.61
2026-07-27 13:39:00.613,0.15,-0.19,0.89,-24.41,-27.22,0.61
2026-07-27 13:39:00.613,0.16,-0.2,0.92,-20.57,-31.31,-11.41
2026-07-27 13:39:00.615,0.16,-0.2,0.92,-20.57,-31.31,-11.41
2026-07-27 13:39:00.757,0.21,-0.27,0.95,-12.02,-41.26,-15.01
2026-07-27 13:39:00.764,0.28,-0.24,0.92,35.52,-49.99,-12.27
2026-07-27 13:39:00.764,0.28,-0.24,0.92,35.52,-49.99,-12.27
2026-07-27 13:39:00.764,0.32,-0.01,0.84,110.6,-39.37,-1.77
2026-07-27 13:39:00.764,0.32,-0.01,0.84,110.6,-39.37,-1.77
2026-07-27 13:39:01.263,0.27,0.19,0.86,133.67,-0.55,18.62
2026-07-27 13:39:01.304,0.27,0.19,0.86,133.67,-0.55,18.62
2026-07-27 13:39:01.304,0.24,0.23,0.93,93.32,27.53,38.27
2026-07-27 13:39:01.312,0.36,0.17,1.06,41.26,37.05,39.43
2026-07-27 13:39:01.319,0.36,0.17,1.06,41.26,37.05,39.43
2026-07-27 13:39:01.323,0.53,0.01,1.19,2.01,46.69,19.9
2026-07-27 13:39:01.679,0.53,0.01,1.19,2.01,46.69,19.9
2026-07-27 13:39:01.687,0.5,-0.08,1.16,-14.47,36.99,5.49
2026-07-27 13:39:01.687,0.5,-0.08,1.16,-14.47,36.99,5.49
2026-07-27 13:39:01.688,0.3,-0.02,1.0,-9.09,5.25,3.05
2026-07-27 13:39:02.187,0.3,-0.02,1.0,-9.09,5.25,3.05
2026-07-27 13:39:02.187,0.17,0.06,0.9,1.4,-11.6,1.71
2026-07-27 13:39:02.215,0.18,0.09,0.94,5.13,-3.3,0.24
2026-07-27 13:39:02.215,0.18,0.09,0.94,5.13,-3.3,0.24
2026-07-27 13:39:02.215,0.23,0.08,0.98,3.42,7.02,1.83
2026-07-27 13:39:03.119,0.23,0.08,0.98,3.42,7.02,1.83
2026-07-27 13:39:03.122,0.24,0.06,0.98,1.77,6.47,7.32
2026-07-27 13:39:03.122,0.24,0.06,0.98,1.77,6.47,7.32
2026-07-27 13:39:03.129,0.23,0.05,0.99,0.06,2.26,10.68
2026-07-27 13:39:03.129,0.23,0.05,0.99,0.06,2.26,10.68
2026-07-27 13:39:03.129,0.22,0.04,0.99,-2.75,-0.98,10.93
2026-07-27 13:39:03.129,0.22,0.04,0.99,-2.75,-0.98,10.93
2026-07-27 13:39:03.130,0.21,0.04,0.99,-4.7,-3.54,11.17
2026-07-27 13:39:03.130,0.23,0.04,0.98,-3.66,-6.29,11.05
2026-07-27 13:39:03.130,0.23,0.04,0.98,-3.66,-6.29,11.05
2026-07-27 13:39:03.130,0.25,0.04,0.96,-1.16,-11.05,10.38
2026-07-27 13:39:03.130,0.25,0.04,0.96,-1.16,-11.05,10.38
2026-07-27 13:39:03.130,0.26,0.04,0.96,1.83,-18.98,9.95
2026-07-27 13:39:03.130,0.26,0.04,0.96,1.83,-18.98,9.95
2026-07-27 13:39:03.130,0.26,0.02,0.97,10.19,-31.25,11.29
2026-07-27 13:39:03.130,0.26,0.02,0.97,10.19,-31.25,11.29
2026-07-27 13:39:03.130,0.29,0.06,0.97,28.93,-44.62,12.45
2026-07-27 13:39:03.130,0.29,0.06,0.97,47.06,-47.55,15.14
2026-07-27 13:39:03.130,0.33,0.14,0.92,47.06,-47.55,15.14
2026-07-27 13:39:03.130,0.36,0.16,0.86,48.28,-33.08,19.84
2026-07-27 13:39:03.130,0.36,0.16,0.86,48.28,-33.08,19.84
2026-07-27 13:39:03.130,0.39,0.14,0.84,36.93,-7.08,16.78
2026-07-27 13:39:03.140,0.39,0.14,0.84,36.93,-7.08,16.78
2026-07-27 13:39:03.140,0.41,0.13,0.87,26.06,17.27,5.74
2026-07-27 13:39:03.140,0.41,0.13,0.87,26.06,17.27,5.74
2026-07-27 13:39:03.140,0.4,0.14,0.92,18.19,30.52,-2.38
2026-07-27 13:39:03.141,0.4,0.14,0.92,10.01,33.02,-1.34
2026-07-27 13:39:03.325,0.36,0.16,0.96,10.01,33.02,-1.34
2026-07-27 13:39:03.325,0.33,0.18,0.96,0.49,29.91,5.37
2026-07-27 13:39:03.326,0.33,0.18,0.96,0.49,29.91,5.37
2026-07-27 13:39:03.326,0.34,0.18,0.93,-8.18,28.26,13.98
2026-07-27 13:39:03.326,0.34,0.18,0.93,-8.18,28.26,13.98
2026-07-27 13:39:03.327,0.44,0.16,0.96,-13.55,32.78,19.96
2026-07-27 13:39:03.327,0.44,0.16,0.96,-13.55,32.78,19.96
2026-07-27 13:39:03.328,0.5,0.12,0.98,-16.54,39.31,20.45
2026-07-27 13:39:03.328,0.5,0.12,0.98,-16.54,39.31,20.45
2026-07-27 13:39:03.329,0.42,0.08,0.94,-16.05,43.21,15.69
2026-07-27 13:39:03.329,0.28,0.14,0.95,-9.64,41.99,1.4
2026-07-27 13:39:03.331,0.28,0.14,0.95,-9.64,41.99,1.4
2026-07-27 13:39:03.331,0.15,0.22,1.02,-5.62,24.9,-14.59
2026-07-27 13:39:03.331,0.15,0.22,1.02,-5.62,24.9,-14.59
2026-07-27 13:39:03.332,0.06,0.2,1.15,-14.77,-5.07,-14.65
2026-07-27 13:39:03.332,0.06,0.2,1.15,-14.77,-5.07,-14.65
2026-07-27 13:39:03.332,0.08,0.02,1.26,-34.12,-24.84,2.87
2026-07-27 13:39:03.332,0.08,0.02,1.26,-34.12,-24.84,2.87
2026-07-27 13:39:03.332,0.07,-0.09,1.29,-45.17,-16.78,11.41
2026-07-27 13:39:03.332,0.07,-0.09,1.29,-45.17,-16.78,11.41
2026-07-27 13:39:03.333,-0.0,-0.06,1.28,-40.47,18.74,-3.17
2026-07-27 13:39:03.333,-0.07,-0.04,1.23,-35.28,60.42,-17.88
2026-07-27 13:39:03.333,-0.07,-0.04,1.23,-35.28,60.42,-17.88
2026-07-27 13:39:03.334,-0.09,-0.07,1.13,-32.65,85.57,-20.14
2026-07-27 13:39:03.334,-0.09,-0.07,1.13,-32.65,85.57,-20.14
2026-07-27 13:39:03.335,-0.07,-0.09,0.99,-20.2,95.76,-18.68
2026-07-27 13:39:03.335,-0.07,-0.09,0.99,-20.2,95.76,-18.68
2026-07-27 13:39:03.335,-0.04,-0.07,0.87,1.65,100.34,-23.5
2026-07-27 13:39:03.335,-0.04,-0.07,0.87,1.65,100.34,-23.5
2026-07-27 13:39:03.335,-0.03,-0.02,0.8,21.61,97.23,-33.33
2026-07-27 13:39:03.336,-0.06,0.03,0.78,31.49,83.31,-39.06
2026-07-27 13:39:03.336,-0.06,0.03,0.78,31.49,83.31,-39.06
2026-07-27 13:39:03.336,-0.12,0.07,0.8,30.46,63.11,-36.68
2026-07-27 13:39:03.336,-0.12,0.07,0.8,30.46,63.11,-36.68
2026-07-27 13:39:03.336,-0.17,0.1,0.83,26.18,46.57,-26.31
2026-07-27 13:39:03.337,-0.18,0.03,0.97,7.26,-18.68,-25.51
2026-07-27 13:39:03.337,-0.18,0.03,0.97,7.26,-18.68,-25.51
2026-07-27 13:39:03.337,-0.18,0.05,0.96,6.47,-17.52,-29.17
2026-07-27 13:39:03.337,-0.19,0.05,0.98,6.16,-11.9,-25.57
2026-07-27 13:39:03.337,-0.19,0.05,0.98,6.16,-11.9,-25.57
2026-07-27 13:39:03.338,-0.2,0.03,1.01,9.03,-2.69,-14.89
2026-07-27 13:39:03.339,-0.2,0.03,1.01,9.03,-2.69,-14.89
2026-07-27 13:39:03.340,-0.18,-0.0,1.01,11.96,0.67,-2.44
2026-07-27 13:39:03.340,-0.18,-0.0,1.01,11.96,0.67,-2.44
2026-07-27 13:39:03.358,-0.16,-0.02,0.97,11.9,-3.72,6.9
2026-07-27 13:39:03.923,-0.16,-0.02,0.97,11.9,-3.72,6.9
2026-07-27 13:39:03.925,-0.15,-0.03,0.94,11.54,-8.67,9.52
2026-07-27 13:39:03.925,-0.15,-0.01,0.93,12.51,-10.62,2.56
2026-07-27 13:39:03.925,-0.15,-0.01,0.93,12.51,-10.62,2.56
2026-07-27 13:39:03.926,-0.15,0.01,0.93,14.83,-9.03,-9.7
2026-07-27 13:39:03.926,-0.15,0.01,0.93,14.83,-9.03,-9.7
2026-07-27 13:39:04.263,-0.12,0.01,0.97,16.48,-4.21,-19.96
2026-07-27 13:39:04.263,-0.12,0.01,0.97,16.48,-4.21,-19.96
2026-07-27 13:39:04.269,-0.1,0.04,1.0,17.76,1.77,-28.56
2026-07-27 13:39:04.270,-0.1,0.04,1.0,17.76,1.77,-28.56
2026-07-27 13:39:04.270,-0.11,0.12,0.99,24.72,7.08,-35.46
2026-07-27 13:39:04.270,-0.13,0.19,0.94,35.83,11.84,-30.76
2026-07-27 13:39:04.271,-0.13,0.19,0.94,35.83,11.84,-30.76
2026-07-27 13:39:04.271,-0.13,0.19,0.94,38.88,16.66,-9.58
2026-07-27 13:39:04.271,-0.13,0.19,0.94,38.88,16.66,-9.58
2026-07-27 13:39:04.320,-0.17,0.19,0.97,32.9,18.49,16.42
2026-07-27 13:39:04.327,-0.17,0.19,0.97,32.9,18.49,16.42
2026-07-27 13:39:04.328,-0.22,0.2,0.98,27.28,13.92,29.66
2026-07-27 13:39:04.328,-0.22,0.2,0.98,27.28,13.92,29.66
2026-07-27 13:39:04.328,-0.22,0.2,0.98,27.28,13.92,29.66
2026-07-27 13:39:04.875,-0.22,0.2,0.98,27.28,13.92,29.66
2026-07-27 13:39:04.892,-0.28,0.22,0.87,18.25,-7.81,7.32
2026-07-27 13:39:04.892,-0.28,0.22,0.87,18.25,-7.81,7.32
2026-07-27 13:39:04.898,-0.31,0.25,0.85,16.78,-9.16,-10.68
2026-07-27 13:39:04.946,-0.3,0.3,0.89,21.24,4.39,-22.71
2026-07-27 13:39:04.946,-0.3,0.3,0.89,21.24,4.39,-22.71
2026-07-27 13:39:04.947,-0.25,0.33,0.95,24.66,21.3,-27.1
2026-07-27 13:39:04.947,-0.25,0.33,0.95,24.66,21.3,-27.1
2026-07-27 13:39:04.947,-0.18,0.36,0.96,19.04,28.2,-27.71
2026-07-27 13:39:04.947,-0.18,0.36,0.96,19.04,28.2,-27.71
2026-07-27 13:39:04.947,-0.15,0.41,0.92,11.11,24.72,-27.71
2026-07-27 13:39:04.947,-0.15,0.41,0.92,7.69,21.79,-20.69
2026-07-27 13:39:04.947,-0.15,0.44,0.89,7.69,21.79,-20.69
2026-07-27 13:39:04.947,-0.16,0.44,0.93,4.33,24.11,-1.1
2026-07-27 13:39:04.947,-0.16,0.44,0.93,4.33,24.11,-1.1
2026-07-27 13:39:04.947,-0.21,0.43,0.97,-4.03,21.36,21.48
2026-07-27 13:39:04.948,-0.21,0.43,0.97,-4.03,21.36,21.48
2026-07-27 13:39:04.973,-0.28,0.43,0.98,-18.55,9.34,34.91
2026-07-27 13:39:04.973,-0.28,0.43,0.98,-18.55,9.34,34.91
2026-07-27 13:39:04.973,-0.28,0.38,0.98,-37.9,-4.03,40.89
2026-07-27 13:39:04.974,-0.28,0.38,0.98,-37.9,-4.03,40.89
2026-07-27 13:39:04.974,-0.21,0.33,0.92,-56.82,-14.16,42.72
2026-07-27 13:39:04.974,-0.17,0.32,0.84,-81.36,1.59,32.1
2026-07-27 13:39:04.974,-0.17,0.32,0.84,-81.36,1.59,32.1
2026-07-27 13:39:04.990,-0.21,0.24,0.86,-135.07,50.66,4.52
2026-07-27 13:39:04.991,-0.21,0.24,0.86,-135.07,50.66,4.52
2026-07-27 13:39:04.991,-0.24,0.07,1.0,-199.22,86.43,-26.25
2026-07-27 13:39:04.991,-0.24,0.07,1.0,-199.22,86.43,-26.25
2026-07-27 13:39:04.991,-0.34,-0.06,1.09,-217.47,86.36,-50.66
2026-07-27 13:39:04.991,-0.34,-0.06,1.09,-217.47,86.36,-50.66
2026-07-27 13:39:04.991,-0.51,-0.09,1.06,-156.56,57.01,-61.83
2026-07-27 13:39:04.991,-0.62,-0.13,1.02,-63.23,-1.59,-49.19
2026-07-27 13:39:04.991,-0.62,-0.13,1.02,-63.23,-1.59,-49.19
2026-07-27 13:39:04.992,-0.63,-0.25,0.97,6.71,-76.35,-11.54
2026-07-27 13:39:04.992,-0.63,-0.25,0.97,6.71,-76.35,-11.54
2026-07-27 13:39:04.992,-0.53,-0.29,0.87,60.61,-131.77,24.11
2026-07-27 13:39:04.992,-0.53,-0.29,0.87,60.61,-131.77,24.11
2026-07-27 13:39:04.992,-0.39,-0.29,0.77,81.67,-133.12,27.95
2026-07-27 13:39:05.018,-0.25,-0.36,0.72,56.82,-89.29,6.71
2026-07-27 13:39:05.019,-0.25,-0.36,0.72,56.82,-89.29,6.71
2026-07-27 13:39:05.019,-0.17,-0.41,0.81,22.95,-26.98,-22.89
2026-07-27 13:39:05.019,-0.17,-0.41,0.81,22.95,-26.98,-22.89
2026-07-27 13:39:05.019,-0.16,-0.31,0.94,26.0,21.0,-30.58
2026-07-27 13:39:05.020,-0.16,-0.31,0.94,26.0,21.0,-30.58
2026-07-27 13:39:05.020,-0.12,-0.12,1.02,60.0,17.03,-6.47
2026-07-27 13:39:05.020,-0.12,-0.12,1.02,60.0,17.03,-6.47
2026-07-27 13:39:05.020,-0.12,-0.12,1.02,60.0,17.03,-6.47
2026-07-27 13:39:05.020,-0.12,-0.12,1.02,60.0,17.03,-6.47
2026-07-27 13:39:05.020,0.01,-0.11,1.01,61.16,-41.99,-10.19
2026-07-27 13:39:05.038,0.02,-0.2,0.99,29.17,-34.91,-19.65
2026-07-27 13:39:05.039,0.02,-0.2,0.99,29.17,-34.91,-19.65
2026-07-27 13:39:05.039,-0.03,-0.23,0.96,10.86,-27.34,-5.13
2026-07-27 13:39:05.039,-0.03,-0.23,0.96,10.86,-27.34,-5.13
2026-07-27 13:39:05.040,-0.06,-0.19,0.97,13.24,-30.58,21.67
2026-07-27 13:39:05.040,-0.06,-0.19,0.97,13.24,-30.58,21.67
2026-07-27 13:39:05.041,-0.05,-0.09,1.01,28.5,-38.21,37.23
2026-07-27 13:39:06.131,-0.05,-0.09,1.01,40.95,-41.69,31.07
2026-07-27 13:39:06.150,-0.01,0.01,1.04,40.95,-41.69,31.07
2026-07-27 13:39:06.169,0.01,0.05,1.01,33.63,-35.89,18.86
2026-07-27 13:39:06.181,0.01,0.05,1.01,33.63,-35.89,18.86
2026-07-27 13:39:06.181,0.05,0.05,0.96,11.96,-34.48,9.09
2026-07-27 13:39:06.183,0.05,0.05,0.96,11.96,-34.48,9.09
2026-07-27 13:39:06.184,0.11,0.05,0.95,-0.31,-40.34,4.33
2026-07-27 13:39:06.184,0.11,0.05,0.95,-0.31,-40.34,4.33
2026-07-27 13:39:06.185,0.13,0.03,0.96,2.99,-20.57,11.96
2026-07-27 13:39:06.191,0.09,0.03,0.91,7.39,13.37,16.97
2026-07-27 13:39:06.192,0.09,0.03,0.91,7.39,13.37,16.97
2026-07-27 13:39:06.193,0.01,0.05,0.84,3.42,23.74,3.66
2026-07-27 13:39:06.197,0.01,0.05,0.84,3.42,23.74,3.66
2026-07-27 13:39:06.197,-0.02,0.1,0.85,0.92,21.48,-18.98
2026-07-27 13:39:06.197,-0.02,0.1,0.85,0.92,21.48,-18.98
2026-07-27 13:39:06.197,0.02,0.15,0.95,4.58,23.44,-38.27
2026-07-27 13:39:06.197,0.02,0.15,0.95,4.58,23.44,-38.27
2026-07-27 13:39:06.198,0.1,0.17,1.03,8.48,23.8,-48.34
2026-07-27 13:39:06.199,0.13,0.13,1.02,8.06,18.68,-48.52
2026-07-27 13:39:06.205,0.13,0.13,1.02,8.06,18.68,-48.52
2026-07-27 13:39:06.211,0.09,0.07,1.0,2.26,15.32,-46.02
2026-07-27 13:39:06.211,0.09,0.07,1.0,2.26,15.32,-46.02
2026-07-27 13:39:06.211,0.05,0.05,1.02,-8.61,21.85,-46.94
2026-07-27 13:39:06.211,0.05,0.05,1.02,-8.61,21.85,-46.94
2026-07-27 13:39:06.213,0.04,0.06,1.09,-18.86,36.8,-45.04
2026-07-27 13:39:06.214,0.04,0.06,1.09,-18.86,36.8,-45.04
2026-07-27 13:39:06.214,-0.01,0.06,1.13,-17.94,50.05,-33.33
2026-07-27 13:39:06.214,-0.01,0.06,1.13,-17.94,50.05,-33.33
2026-07-27 13:39:06.214,-0.01,0.06,1.13,-17.94,50.05,-33.33
2026-07-27 13:39:06.214,-0.01,0.06,1.13,-17.94,50.05,-33.33
2026-07-27 13:39:06.214,-0.16,0.02,0.93,6.1,25.51,-19.17
2026-07-27 13:39:06.214,-0.16,0.02,0.93,6.1,25.51,-19.17
2026-07-27 13:39:06.215,-0.2,0.03,0.87,13.18,12.21,-23.86
2026-07-27 13:39:06.215,-0.2,0.06,0.9,13.24,12.51,-27.95
2026-07-27 13:39:06.215,-0.2,0.06,0.9,13.24,12.51,-27.95
2026-07-27 13:39:06.216,-0.23,0.09,0.94,10.8,16.11,-24.96
2026-07-27 13:39:06.216,-0.23,0.09,0.94,10.8,16.11,-24.96
2026-07-27 13:39:06.216,-0.27,0.13,0.95,13.85,11.35,-15.99
2026-07-27 13:39:06.216,-0.27,0.13,0.95,13.85,11.35,-15.99
2026-07-27 13:39:06.216,-0.25,0.18,0.96,17.76,-2.81,-7.2
2026-07-27 13:39:06.216,-0.25,0.18,0.96,17.76,-2.81,-7.2
2026-07-27 13:39:06.217,-0.19,0.23,0.96,11.41,-7.63,3.54
2026-07-27 13:39:06.217,-0.19,0.23,0.96,11.41,-7.63,3.54
2026-07-27 13:39:06.217,-0.19,0.23,0.96,11.41,-7.63,3.54
2026-07-27 13:39:06.217,-0.19,0.23,0.96,11.41,-7.63,3.54
2026-07-27 13:39:06.217,-0.14,0.25,1.08,-2.08,20.08,33.26
2026-07-27 13:39:06.217,-0.14,0.25,1.08,-2.08,20.08,33.26
2026-07-27 13:39:06.217,-0.17,0.22,1.05,-3.23,23.25,44.13
2026-07-27 13:39:06.217,-0.2,0.21,0.92,-11.84,19.59,47.49
2026-07-27 13:39:06.217,-0.2,0.21,0.92,-11.84,19.59,47.49
2026-07-27 13:39:06.217,-0.21,0.24,0.84,-15.08,7.87,42.54
2026-07-27 13:39:06.243,-0.21,0.24,0.84,-15.08,7.87,42.54
2026-07-27 13:39:06.244,-0.2,0.29,0.87,-9.09,-5.07,37.96
2026-07-27 13:39:06.244,-0.2,0.29,0.87,-9.09,-5.07,37.96
2026-07-27 13:39:06.245,-0.19,0.34,0.91,-7.26,-6.96,41.44
2026-07-27 13:39:07.336,-0.2,0.35,0.91,-15.38,2.62,52.31
2026-07-27 13:39:07.345,-0.2,0.35,0.91,-15.38,2.62,52.31
2026-07-27 13:39:07.345,-0.22,0.34,0.93,-24.72,17.7,63.6
2026-07-27 13:39:07.345,-0.22,0.34,0.93,-24.72,17.7,63.6
2026-07-27 13:39:07.345,-0.23,0.29,1.01,-28.08,31.31,67.87
2026-07-27 13:39:07.346,-0.23,0.29,1.01,-28.08,31.31,67.87
2026-07-27 13:39:07.346,-0.26,0.23,1.08,-31.25,42.18,54.93
2026-07-27 13:39:07.346,-0.26,0.23,1.08,-40.22,58.41,17.88
2026-07-27 13:39:07.346,-0.25,0.2,1.03,-40.22,58.41,17.88
2026-07-27 13:39:07.352,-0.25,0.16,0.95,-38.15,78.37,-11.35
2026-07-27 13:39:07.352,-0.25,0.16,0.95,-38.15,78.37,-11.35
2026-07-27 13:39:07.352,-0.32,0.04,0.92,-13.85,69.82,1.16
2026-07-27 13:39:07.352,-0.32,0.04,0.92,-13.85,69.82,1.16
2026-07-27 13:39:07.352,-0.38,-0.13,0.89,8.79,25.88,33.81
2026-07-27 13:39:07.352,-0.38,-0.13,0.89,8.79,25.88,33.81
2026-07-27 13:39:07.352,-0.44,-0.26,0.83,8.42,-11.47,54.32
2026-07-27 13:39:07.352,-0.51,-0.31,0.81,-4.03,-17.52,53.59
2026-07-27 13:39:07.352,-0.51,-0.31,0.81,-4.03,-17.52,53.59
2026-07-27 13:39:07.352,-0.57,-0.28,0.98,2.26,-15.5,36.56
2026-07-27 13:39:07.352,-0.57,-0.28,0.98,2.26,-15.5,36.56
2026-07-27 13:39:07.371,-0.53,-0.22,1.23,24.35,-24.23,15.5
2026-07-27 13:39:07.371,-0.53,-0.22,1.23,12.21,-21.12,-3.17
2026-07-27 13:39:07.371,-0.44,-0.17,1.17,12.21,-21.12,-3.17
2026-07-27 13:39:07.371,-0.44,-0.15,0.97,-33.08,8.24,-22.64
2026-07-27 13:39:07.372,-0.44,-0.15,0.97,-33.08,8.24,-22.64
2026-07-27 13:39:07.372,-0.41,-0.15,0.84,-62.13,54.14,-43.88
2026-07-27 13:39:07.373,-0.41,-0.15,0.84,-62.13,54.14,-43.88
2026-07-27 13:39:07.373,-0.36,-0.15,0.75,-54.08,71.84,-52.55
2026-07-27 13:39:07.373,-0.36,-0.15,0.75,-54.08,71.84,-52.55
2026-07-27 13:39:07.414,-0.32,-0.12,0.76,-9.16,26.12,-38.57
2026-07-27 13:39:07.414,-0.32,-0.12,0.76,-9.16,26.12,-38.57
2026-07-27 13:39:07.414,-0.26,-0.03,0.81,46.33,-38.15,-17.27
2026-07-27 13:39:07.414,-0.24,0.08,0.82,80.2,-65.8,-3.97
2026-07-27 13:39:07.414,-0.24,0.08,0.82,80.2,-65.8,-3.97
2026-07-27 13:39:07.414,-0.24,0.18,0.8,84.41,-54.81,-2.99
2026-07-27 13:39:07.414,-0.24,0.18,0.8,84.41,-54.81,-2.99
2026-07-27 13:39:07.415,-0.26,0.23,0.79,66.41,-24.17,-16.66
2026-07-27 13:39:07.415,-0.26,0.23,0.79,66.41,-24.17,-16.66
2026-07-27 13:39:07.415,-0.3,0.21,0.92,40.22,13.49,-37.11
2026-07-27 13:39:07.415,-0.3,0.21,0.92,40.22,13.49,-37.11
2026-07-27 13:39:07.415,-0.45,0.11,1.19,16.3,40.16,-52.19
2026-07-27 13:39:07.415,-0.45,0.11,1.19,-4.94,28.63,-62.62
2026-07-27 13:39:07.415,-0.57,-0.03,1.37,-4.94,28.63,-62.62
2026-07-27 13:39:07.415,-0.52,-0.12,1.22,-32.96,-18.74,-71.9
2026-07-27 13:39:07.416,-0.52,-0.12,1.22,-32.96,-18.74,-71.9
2026-07-27 13:39:07.416,-0.44,-0.15,0.96,-52.86,-58.11,-67.69
2026-07-27 13:39:07.605,-0.44,-0.15,0.96,-52.86,-58.11,-67.69
2026-07-27 13:39:07.656,-0.35,-0.17,0.94,-44.37,-68.42,-46.33
2026-07-27 13:39:07.656,-0.35,-0.17,0.94,-44.37,-68.42,-46.33
2026-07-27 13:39:07.656,-0.3,-0.21,0.96,-33.75,-56.88,-23.32
2026-07-27 13:39:07.724,-0.4,-0.24,0.85,-39.0,-30.46,-10.01
2026-07-27 13:39:07.724,-0.4,-0.24,0.85,-39.0,-30.46,-10.01
2026-07-27 13:39:07.724,-0.56,-0.2,0.71,-40.22,-25.51,-23.5
2026-07-27 13:39:07.725,-0.56,-0.2,0.71,-40.22,-25.51,-23.5
2026-07-27 13:39:07.725,-0.58,-0.1,0.64,-21.91,-53.47,-67.57
2026-07-27 13:39:07.725,-0.58,-0.1,0.64,11.9,-67.2,-110.9
2026-07-27 13:39:07.725,-0.51,0.02,0.65,11.9,-67.2,-110.9
2026-07-27 13:39:07.725,-0.42,0.11,0.74,45.78,-55.85,-130.62
2026-07-27 13:39:07.765,-0.42,0.11,0.74,45.78,-55.85,-130.62
2026-07-27 13:39:07.795,-0.32,0.17,0.88,66.71,-43.88,-130.43
2026-07-27 13:39:07.795,-0.32,0.17,0.88,66.71,-43.88,-130.43
2026-07-27 13:39:07.795,-0.22,0.19,0.94,70.74,-29.11,-120.18
2026-07-27 13:39:08.229,-0.22,0.19,0.94,60.18,-14.04,-112.61
2026-07-27 13:39:08.239,-0.11,0.19,0.93,60.18,-14.04,-112.61
2026-07-27 13:39:08.239,0.02,0.2,0.94,43.33,-11.11,-114.26
2026-07-27 13:39:08.239,0.02,0.2,0.94,43.33,-11.11,-114.26
2026-07-27 13:39:08.239,0.17,0.2,1.0,27.89,-12.51,-119.38
2026-07-27 13:39:08.239,0.17,0.2,1.0,27.89,-12.51,-119.38
2026-07-27 13:39:08.239,0.3,0.21,1.08,12.63,-18.86,-119.26
2026-07-27 13:39:08.239,0.3,0.21,1.08,12.63,-18.86,-119.26
2026-07-27 13:39:08.239,0.31,0.18,1.08,-2.75,-27.89,-102.05
2026-07-27 13:39:08.240,0.14,0.12,1.03,-12.76,-18.49,-65.92
2026-07-27 13:39:08.240,0.14,0.12,1.03,-12.76,-18.49,-65.92
2026-07-27 13:39:08.240,-0.08,0.04,0.98,-17.58,8.48,-33.33
2026-07-27 13:39:08.240,-0.08,0.04,0.98,-17.58,8.48,-33.33
2026-07-27 13:39:08.240,-0.19,0.01,0.95,-19.04,27.71,-25.09
2026-07-27 13:39:08.339,-0.19,0.01,0.95,-19.04,27.71,-25.09
2026-07-27 13:39:08.339,-0.13,0.04,0.91,-17.27,27.04,-35.4
2026-07-27 13:39:08.339,0.02,0.11,0.91,-10.68,11.17,-43.95
2026-07-27 13:39:08.340,0.02,0.11,0.91,-10.68,11.17,-43.95
2026-07-27 13:39:08.340,0.13,0.16,0.97,3.05,-6.04,-33.26
2026-07-27 13:39:08.345,0.13,0.16,0.97,3.05,-6.04,-33.26
2026-07-27 13:39:08.346,0.15,0.17,1.04,18.37,-10.25,-5.13
2026-07-27 13:39:08.346,0.15,0.17,1.04,18.37,-10.25,-5.13
2026-07-27 13:39:08.346,0.12,0.16,1.06,27.34,-7.81,23.01
2026-07-27 13:39:08.351,0.12,0.16,1.06,27.34,-7.81,23.01
2026-07-27 13:39:08.351,0.03,0.11,1.02,28.75,-5.43,48.34
2026-07-27 13:39:08.406,0.03,0.11,1.02,28.75,-5.43,48.34
2026-07-27 13:39:08.413,-0.13,0.03,0.99,26.86,0.49,72.63
2026-07-27 13:39:08.414,-0.22,-0.06,1.06,25.51,2.32,82.95
2026-07-27 13:39:08.415,-0.22,-0.06,1.06,25.51,2.32,82.95
2026-07-27 13:39:08.415,-0.21,-0.08,1.19,23.56,-1.71,76.54
2026-07-27 13:39:08.416,-0.21,-0.08,1.19,23.56,-1.71,76.54
2026-07-27 13:39:08.416,-0.18,-0.03,1.24,16.91,-7.69,61.77
2026-07-27 13:39:08.416,-0.18,-0.03,1.24,16.91,-7.69,61.77
2026-07-27 13:39:08.417,-0.06,0.08,1.16,6.77,-21.06,38.21
2026-07-27 13:39:08.477,0.17,0.18,0.96,-3.78,-25.27,15.32
2026-07-27 13:39:08.477,0.17,0.18,0.96,-3.78,-25.27,15.32
2026-07-27 13:39:08.526,0.3,0.2,0.72,-8.85,-2.14,8.42
2026-07-27 13:39:08.638,0.3,0.2,0.72,-8.85,-2.14,8.42
2026-07-27 13:39:08.638,0.34,0.18,0.74,1.1,24.35,7.32
2026-07-27 13:39:08.638,0.34,0.18,0.74,1.1,24.35,7.32
2026-07-27 13:39:08.640,0.21,0.1,1.01,17.15,41.5,2.14
2026-07-27 13:39:08.641,0.21,0.1,1.01,17.15,41.5,2.14
2026-07-27 13:39:08.641,0.04,0.01,1.18,18.07,48.28,-13.24
2026-07-27 13:39:08.641,0.04,0.01,1.18,2.62,33.26,-45.29
2026-07-27 13:39:09.064,0.07,-0.01,1.1,2.62,33.26,-45.29
2026-07-27 13:39:09.064,0.15,0.0,0.94,-15.44,12.7,-71.66
2026-07-27 13:39:09.064,0.15,0.0,0.94,-15.44,12.7,-71.66
2026-07-27 13:39:09.064,0.09,0.02,0.85,-27.89,4.76,-74.83
2026-07-27 13:39:09.065,0.09,0.02,0.85,-27.89,4.76,-74.83
2026-07-27 13:39:09.065,-0.08,0.07,0.87,-33.69,3.72,-70.5
2026-07-27 13:39:09.065,-0.2,0.18,0.97,-32.78,-0.73,-77.33
2026-07-27 13:39:09.065,-0.2,0.18,0.97,-32.78,-0.73,-77.33
2026-07-27 13:39:09.065,-0.21,0.27,1.18,-19.9,-9.52,-90.88
2026-07-27 13:39:09.065,-0.21,0.27,1.18,-19.9,-9.52,-90.88
2026-07-27 13:39:09.065,-0.12,0.28,1.4,0.0,-21.12,-92.22
2026-07-27 13:39:09.066,-0.12,0.28,1.4,0.0,-21.12,-92.22
2026-07-27 13:39:09.066,-0.09,0.22,1.27,1.53,-26.06,-68.79
2026-07-27 13:39:09.066,-0.09,0.22,1.27,1.53,-26.06,-68.79
2026-07-27 13:39:09.066,-0.15,0.15,0.82,-19.96,-15.5,-28.99
2026-07-27 13:39:09.066,-0.21,0.09,0.46,-31.98,-0.06,8.18
2026-07-27 13:39:09.067,-0.21,0.09,0.46,-31.98,-0.06,8.18
2026-07-27 13:39:09.067,-0.24,0.01,0.44,-14.34,12.63,36.44
2026-07-27 13:39:09.068,-0.24,0.01,0.44,-14.34,12.63,36.44
2026-07-27 13:39:09.238,-0.25,-0.08,0.75,20.63,21.0,51.82
2026-07-27 13:39:09.239,-0.25,-0.08,0.75,20.63,21.0,51.82
2026-07-27 13:39:09.239,-0.21,-0.15,1.17,48.89,20.75,48.46
2026-07-27 13:39:09.239,-0.17,-0.17,1.36,50.96,18.01,31.01
2026-07-27 13:39:09.240,-0.17,-0.17,1.36,50.96,18.01,31.01
2026-07-27 13:39:09.246,-0.17,-0.16,1.31,31.19,13.12,7.45
2026-07-27 13:39:09.246,-0.17,-0.16,1.31,31.19,13.12,7.45
2026-07-27 13:39:09.246,-0.14,-0.11,1.18,9.46,-2.62,-19.9
2026-07-27 13:39:09.360,-0.14,-0.11,1.18,9.46,-2.62,-19.9
2026-07-27 13:39:09.368,-0.06,-0.04,1.07,-5.0,-21.61,-45.04
2026-07-27 13:39:09.369,-0.06,-0.04,1.07,-5.0,-21.61,-45.04
2026-07-27 13:39:09.369,0.01,0.03,0.99,-14.1,-34.12,-58.11
2026-07-27 13:39:09.369,0.01,0.03,0.99,-16.91,-41.5,-57.07
2026-07-27 13:39:09.479,0.06,0.07,0.96,-16.91,-41.5,-57.07
2026-07-27 13:39:09.480,0.08,0.09,0.96,-15.69,-37.72,-44.98
2026-07-27 13:39:09.481,0.08,0.09,0.96,-15.69,-37.72,-44.98
2026-07-27 13:39:09.481,0.07,0.09,0.92,-12.82,-15.44,-25.82
2026-07-27 13:39:09.481,0.07,0.09,0.92,-12.82,-15.44,-25.82
2026-07-27 13:39:09.488,0.06,0.09,0.87,-3.42,16.78,-4.33
2026-07-27 13:39:09.730,0.06,0.09,0.87,-3.42,16.78,-4.33
2026-07-27 13:39:09.760,0.04,0.06,0.86,8.54,41.38,15.08
2026-07-27 13:39:09.760,-0.03,0.03,0.89,13.79,49.32,26.18
2026-07-27 13:39:09.761,-0.03,0.03,0.89,13.79,49.32,26.18
2026-07-27 13:39:09.761,-0.12,0.03,0.94,12.82,40.28,25.76
2026-07-27 13:39:09.761,-0.12,0.03,0.94,12.82,40.28,25.76
2026-07-27 13:39:09.761,-0.17,0.06,1.01,10.93,20.02,17.21
2026-07-27 13:39:09.761,-0.17,0.06,1.01,10.93,20.02,17.21
2026-07-27 13:39:10.452,-0.2,0.13,1.05,8.3,1.77,7.14
2026-07-27 13:39:10.452,-0.2,0.13,1.05,8.3,1.77,7.14
2026-07-27 13:39:10.476,-0.22,0.23,0.97,5.31,-4.64,1.65
2026-07-27 13:39:10.476,-0.24,0.27,0.96,9.09,-3.6,4.09
2026-07-27 13:39:10.476,-0.24,0.27,0.96,9.09,-3.6,4.09
2026-07-27 13:39:10.476,-0.3,0.21,1.15,20.02,-0.31,11.84
2026-07-27 13:39:10.476,-0.3,0.21,1.15,20.02,-0.31,11.84
2026-07-27 13:39:10.476,-0.38,0.1,1.18,16.97,10.5,13.49
2026-07-27 13:39:10.476,-0.38,0.1,1.18,16.97,10.5,13.49
2026-07-27 13:39:10.476,-0.41,0.02,1.06,3.3,29.05,1.53
2026-07-27 13:39:10.476,-0.41,0.02,1.06,3.3,29.05,1.53
2026-07-27 13:39:10.476,-0.33,-0.01,1.1,3.72,35.89,-21.73
2026-07-27 13:39:10.476,-0.14,0.04,1.17,8.54,22.77,-48.28
2026-07-27 13:39:10.476,-0.14,0.04,1.17,8.54,22.77,-48.28
2026-07-27 13:39:10.476,0.03,0.16,1.04,1.22,-2.32,-67.81
2026-07-27 13:39:10.476,0.03,0.16,1.04,1.22,-2.32,-67.81
2026-07-27 13:39:10.476,0.04,0.25,0.84,-7.93,-34.61,-73.06
2026-07-27 13:39:10.476,0.04,0.25,0.84,-7.93,-34.61,-73.06
2026-07-27 13:39:10.476,-0.09,0.27,0.7,-9.03,-48.77,-65.98
2026-07-27 13:39:10.476,-0.09,0.27,0.7,-9.03,-48.77,-65.98
2026-07-27 13:39:10.476,-0.19,0.24,0.64,-1.77,-27.65,-57.68
2026-07-27 13:39:10.476,-0.19,0.23,0.63,12.7,4.64,-59.08
2026-07-27 13:39:10.476,-0.19,0.23,0.63,12.7,4.64,-59.08
2026-07-27 13:39:10.476,-0.19,0.21,0.69,30.58,21.97,-67.99
2026-07-27 13:39:10.476,-0.19,0.21,0.69,30.58,21.97,-67.99
2026-07-27 13:39:10.476,-0.29,0.14,0.87,49.38,24.72,-72.14
2026-07-27 13:39:10.488,-0.29,0.14,0.87,49.38,24.72,-72.14
2026-07-27 13:39:10.488,-0.48,0.04,1.1,56.21,40.59,-65.8
2026-07-27 13:39:10.488,-0.48,0.04,1.1,56.21,40.59,-65.8
2026-07-27 13:39:10.488,-0.66,-0.07,1.03,22.83,69.7,-58.41
2026-07-27 13:39:10.488,-0.67,-0.1,0.68,-36.5,82.21,-67.32
2026-07-27 13:39:10.488,-0.67,-0.1,0.68,-36.5,82.21,-67.32
2026-07-27 13:39:10.488,-0.4,0.0,0.42,-67.5,65.67,-99.18
2026-07-27 13:39:10.488,-0.4,0.0,0.42,-67.5,65.67,-99.18
2026-07-27 13:39:10.489,0.08,0.19,0.49,-52.55,18.62,-141.36
2026-07-27 13:39:10.627,0.08,0.19,0.49,-52.55,18.62,-141.36
2026-07-27 13:39:10.627,0.31,0.22,0.81,-17.46,-23.19,-152.34
2026-07-27 13:39:10.627,0.02,0.05,1.05,3.3,-27.47,-110.35
2026-07-27 13:39:10.656,0.02,0.05,1.05,3.3,-27.47,-110.35
2026-07-27 13:39:10.656,-0.38,-0.1,1.15,2.93,-20.14,-54.93
2026-07-27 13:39:10.707,-0.38,-0.1,1.15,2.93,-20.14,-54.93
2026-07-27 13:39:10.772,-0.54,-0.13,1.13,-8.3,-17.58,-23.44
2026-07-27 13:39:10.772,-0.54,-0.13,1.13,-8.3,-17.58,-23.44
2026-07-27 13:39:10.773,-0.54,-0.1,1.12,-20.14,-0.24,-8.48
2026-07-27 13:39:10.774,-0.55,-0.05,1.2,-20.94,24.54,1.53
2026-07-27 13:39:11.404,-0.55,-0.05,1.2,-20.94,24.54,1.53
2026-07-27 13:39:11.415,-0.48,-0.01,1.29,-5.62,21.85,-0.37
2026-07-27 13:39:11.415,-0.48,-0.01,1.29,-5.62,21.85,-0.37
2026-07-27 13:39:11.415,-0.39,-0.09,1.36,11.23,-8.24,-5.07
2026-07-27 13:39:11.415,-0.39,-0.09,1.36,11.23,-8.24,-5.07
2026-07-27 13:39:11.415,-0.44,-0.29,1.38,13.12,-30.88,1.83
2026-07-27 13:39:11.415,-0.46,-0.41,1.2,9.4,-45.53,4.21
2026-07-27 13:39:11.415,-0.46,-0.41,1.2,9.4,-45.53,4.21
2026-07-27 13:39:11.416,-0.28,-0.32,0.86,7.69,-66.28,-12.94
2026-07-27 13:39:11.416,-0.28,-0.32,0.86,7.69,-66.28,-12.94
2026-07-27 13:39:11.416,0.01,-0.16,0.58,5.07,-81.67,-33.57
2026-07-27 13:39:11.416,0.01,-0.16,0.58,5.07,-81.67,-33.57
2026-07-27 13:39:11.416,0.23,-0.1,0.58,4.82,-76.35,-33.51
2026-07-27 13:39:11.416,0.23,-0.1,0.58,4.82,-76.35,-33.51
2026-07-27 13:39:11.416,0.21,-0.2,0.87,5.19,-42.42,-6.59
2026-07-27 13:39:11.416,0.04,-0.26,1.13,-0.67,-2.44,24.05
2026-07-27 13:39:11.416,0.04,-0.26,1.13,-0.67,-2.44,24.05
2026-07-27 13:39:11.416,-0.04,-0.14,1.13,-13.55,9.7,29.97
2026-07-27 13:39:11.416,-0.04,-0.14,1.13,-13.55,9.7,29.97
2026-07-27 13:39:11.416,-0.03,0.03,0.97,-25.02,-2.32,20.51
2026-07-27 13:39:11.416,-0.03,0.03,0.97,-25.02,-2.32,20.51
2026-07-27 13:39:11.416,-0.1,0.03,0.9,-20.63,-6.1,22.83
2026-07-27 13:39:11.416,-0.1,0.03,0.9,-20.63,-6.1,22.83
2026-07-27 13:39:11.416,-0.19,-0.09,0.95,-2.56,6.35,28.56
2026-07-27 13:39:11.422,-0.11,-0.16,1.03,12.51,15.26,18.55
2026-07-27 13:39:11.429,-0.11,-0.16,1.03,12.51,15.26,18.55
2026-07-27 13:39:11.429,0.01,-0.17,1.07,15.2,15.14,5.31
2026-07-27 13:39:11.429,0.01,-0.17,1.07,15.2,15.14,5.31
2026-07-27 13:39:11.429,-0.04,-0.18,1.06,7.02,12.94,7.08
2026-07-27 13:39:11.472,-0.04,-0.18,1.06,7.02,12.94,7.08
2026-07-27 13:39:11.483,-0.23,-0.23,1.03,-3.23,12.76,18.86
2026-07-27 13:39:11.483,-0.23,-0.23,1.03,-3.23,12.76,18.86
2026-07-27 13:39:11.483,-0.3,-0.24,0.96,-9.46,8.18,19.1
2026-07-27 13:39:11.483,-0.3,-0.24,0.96,-9.46,8.18,19.1
2026-07-27 13:39:11.483,-0.3,-0.24,0.96,-9.46,8.18,19.1
2026-07-27 13:39:11.483,-0.3,-0.24,0.96,-9.46,8.18,19.1
2026-07-27 13:39:11.709,-0.06,-0.08,0.93,-7.87,-8.91,-0.49
2026-07-27 13:39:11.726,-0.06,-0.08,0.93,-9.22,-2.56,12.88
2026-07-27 13:39:11.736,-0.16,-0.11,0.97,-9.22,-2.56,12.88
2026-07-27 13:39:11.743,-0.28,-0.15,0.99,-10.62,2.81,24.9
2026-07-27 13:39:11.749,-0.28,-0.15,0.99,-10.62,2.81,24.9
2026-07-27 13:39:11.759,-0.26,-0.15,0.98,-8.0,-1.22,22.34
2026-07-27 13:39:11.770,-0.26,-0.15,0.98,-8.0,-1.22,22.34
2026-07-27 13:39:11.770,-0.18,-0.13,0.95,-3.97,-6.59,13.55
2026-07-27 13:39:11.770,-0.18,-0.13,0.95,-3.97,-6.59,13.55
2026-07-27 13:39:11.770,-0.17,-0.14,0.94,0.18,-3.23,9.22
2026-07-27 13:39:12.078,-0.17,-0.14,0.94,4.76,4.46,6.84
2026-07-27 13:39:12.122,-0.2,-0.15,0.96,4.76,4.46,6.84
2026-07-27 13:39:12.122,-0.19,-0.14,0.97,7.2,8.67,2.56
2026-07-27 13:39:12.149,-0.19,-0.14,0.97,7.2,8.67,2.56
2026-07-27 13:39:12.196,-0.17,-0.13,0.98,6.71,8.79,-0.98
2026-07-27 13:39:12.219,-0.17,-0.13,0.98,6.71,8.79,-0.98
2026-07-27 13:39:12.228,-0.16,-0.15,0.98,4.15,7.69,-1.4
2026-07-27 13:39:12.233,-0.16,-0.15,0.98,4.15,7.69,-1.4
2026-07-27 13:39:12.239,-0.17,-0.17,0.98,1.34,5.86,-0.37
2026-07-27 13:39:12.239,-0.17,-0.17,0.98,1.34,5.86,-0.37
2026-07-27 13:39:12.239,-0.19,-0.18,0.97,0.24,1.77,-0.55
2026-07-27 13:39:12.240,-0.19,-0.18,0.97,0.61,-3.6,-2.5
2026-07-27 13:39:12.240,-0.19,-0.16,0.97,0.61,-3.6,-2.5
2026-07-27 13:39:12.240,-0.17,-0.14,0.96,1.04,-7.14,-4.52
2026-07-27 13:39:12.240,-0.17,-0.14,0.96,1.04,-7.14,-4.52
2026-07-27 13:39:12.240,-0.16,-0.12,0.96,1.28,-7.45,-4.52
2026-07-27 13:39:12.240,-0.16,-0.12,0.96,1.28,-7.45,-4.52
2026-07-27 13:39:12.399,-0.16,-0.12,0.97,1.22,-4.82,-2.44
2026-07-27 13:39:12.407,-0.16,-0.12,0.97,1.22,-4.82,-2.44
2026-07-27 13:39:12.407,-0.16,-0.12,0.98,0.49,-1.89,-0.31
2026-07-27 13:39:13.042,-0.16,-0.12,0.98,0.49,-1.89,-0.31
2026-07-27 13:39:13.042,-0.15,-0.12,0.97,-0.24,-1.34,0.73
2026-07-27 13:39:13.042,-0.15,-0.12,0.97,-0.24,-1.65,1.4
2026-07-27 13:39:13.042,-0.16,-0.12,0.96,-0.24,-1.65,1.4
2026-07-27 13:39:13.044,-0.17,-0.14,0.96,0.79,-1.46,1.46
2026-07-27 13:39:13.044,-0.17,-0.14,0.96,0.79,-1.46,1.46
2026-07-27 13:39:13.044,-0.18,-0.14,0.96,2.62,-2.44,-0.18
2026-07-27 13:39:13.044,-0.18,-0.14,0.96,2.62,-2.44,-0.18
2026-07-27 13:39:13.045,-0.17,-0.14,0.97,4.52,-5.0,-3.42
2026-07-27 13:39:13.045,-0.17,-0.14,0.97,4.52,-5.0,-3.42
2026-07-27 13:39:13.045,-0.15,-0.13,0.97,5.74,-5.8,-5.74
2026-07-27 13:39:13.045,-0.15,-0.13,0.97,5.74,-5.8,-5.74
2026-07-27 13:39:13.046,-0.13,-0.12,0.98,5.13,-5.07,-5.55
2026-07-27 13:39:13.046,-0.13,-0.12,0.98,2.44,-5.07,-4.15
2026-07-27 13:39:13.046,-0.13,-0.12,0.98,2.44,-5.07,-4.15
2026-07-27 13:39:13.046,-0.14,-0.12,0.97,-0.31,-5.19,-2.99
2026-07-27 13:39:13.046,-0.14,-0.12,0.97,-0.31,-5.19,-2.99
2026-07-27 13:39:13.047,-0.15,-0.13,0.97,-1.04,-5.19,-2.69
2026-07-27 13:39:13.047,-0.15,-0.13,0.97,-1.04,-5.19,-2.69
2026-07-27 13:39:13.047,-0.15,-0.13,0.97,0.24,-5.92,-3.91
2026-07-27 13:39:13.047,-0.15,-0.13,0.97,0.24,-5.92,-3.91
2026-07-27 13:39:13.047,-0.14,-0.12,0.97,2.56,-7.14,-6.04
2026-07-27 13:39:13.047,-0.14,-0.12,0.97,2.56,-7.14,-6.04
2026-07-27 13:39:13.048,-0.13,-0.11,0.98,5.13,-8.24,-8.0
2026-07-27 13:39:13.048,-0.11,-0.1,0.99,6.04,-7.32,-7.81
2026-07-27 13:39:13.048,-0.11,-0.1,0.99,6.04,-7.32,-7.81
2026-07-27 13:39:13.048,-0.1,-0.1,0.99,3.85,-3.91,-4.94
2026-07-27 13:39:13.049,-0.1,-0.1,0.99,3.85,-3.91,-4.94
2026-07-27 13:39:13.049,-0.11,-0.11,0.98,0.49,-0.24,-1.65
2026-07-27 13:39:13.049,-0.11,-0.11,0.98,0.49,-0.24,-1.65
2026-07-27 13:39:13.049,-0.12,-0.11,0.98,-0.79,1.53,-0.18
2026-07-27 13:39:13.050,-0.12,-0.11,0.98,-0.79,1.53,-0.18
2026-07-27 13:39:13.050,-0.12,-0.12,0.98,-0.31,1.28,-0.18
2026-07-27 13:39:13.050,-0.12,-0.12,0.98,-0.31,1.28,-0.18
2026-07-27 13:39:13.050,-0.12,-0.11,0.98,0.43,0.18,-0.49
2026-07-27 13:39:13.050,-0.12,-0.11,0.98,0.43,0.18,-0.49
2026-07-27 13:39:13.050,-0.12,-0.11,0.98,0.73,-0.49,-0.61
2026-07-27 13:39:13.052,-0.12,-0.11,0.98,0.73,-0.49,-0.61
2026-07-27 13:39:13.052,-0.12,-0.11,0.98,0.73,-0.49,-0.61
2026-07-27 13:39:13.052,-0.12,-0.11,0.98,0.73,-0.49,-0.61
2026-07-27 13:39:13.052,-0.12,-0.12,0.97,0.67,0.67,-0.92
2026-07-27 13:39:13.623,-0.12,-0.11,0.98,1.65,2.32,-1.34
2026-07-27 13:39:13.623,-0.12,-0.11,0.98,1.65,2.32,-1.34
2026-07-27 13:39:13.624,-0.11,-0.11,0.99,2.5,0.85,-2.75
2026-07-27 13:39:13.624,-0.11,-0.11,0.99,2.5,0.85,-2.75
2026-07-27 13:39:13.624,-0.12,-0.11,0.99,1.53,-6.84,-5.31
2026-07-27 13:39:13.624,-0.12,-0.11,0.99,1.53,-6.84,-5.31
2026-07-27 13:39:13.624,-0.11,-0.11,0.98,-0.24,-13.55,-7.26
2026-07-27 13:39:13.625,-0.11,-0.11,0.98,-0.24,-13.55,-7.26
2026-07-27 13:39:13.625,-0.1,-0.11,0.98,-1.16,-11.6,-6.16
2026-07-27 13:39:13.625,-0.1,-0.11,0.98,-1.16,-11.6,-6.16
2026-07-27 13:39:13.625,-0.1,-0.11,0.98,-1.04,-3.97,-2.93
2026-07-27 13:39:13.625,-0.1,-0.11,0.98,-0.85,1.59,-0.49
2026-07-27 13:39:13.625,-0.1,-0.11,0.98,-0.85,1.59,-0.49
2026-07-27 13:39:13.625,-0.1,-0.12,0.98,-0.79,3.23,0.18
2026-07-27 13:39:13.625,-0.1,-0.12,0.98,-0.79,3.23,0.18
2026-07-27 13:39:13.626,-0.11,-0.12,0.98,-0.73,3.3,0.0
2026-07-27 13:39:13.627,-0.11,-0.12,0.98,-0.73,3.3,0.0
2026-07-27 13:39:13.628,-0.11,-0.11,0.98,-0.55,2.5,-0.55
2026-07-27 13:39:13.629,-0.11,-0.11,0.98,-0.55,2.5,-0.55
2026-07-27 13:39:13.629,-0.11,-0.11,0.98,-0.37,1.89,-0.73
2026-07-27 13:39:13.630,-0.11,-0.11,0.98,-0.37,1.89,-0.73
2026-07-27 13:39:13.630,-0.11,-0.11,0.98,-0.31,2.01,-0.31
2026-07-27 13:39:13.630,-0.11,-0.11,0.98,-0.31,2.01,-0.31
2026-07-27 13:39:13.631,-0.11,-0.12,0.98,-0.31,1.83,0.0
2026-07-27 13:39:13.631,-0.11,-0.12,0.98,-0.18,1.22,-0.12
2026-07-27 13:39:13.633,-0.11,-0.12,0.98,-0.18,1.22,-0.12
2026-07-27 13:39:13.633,-0.11,-0.12,0.98,-0.12,0.92,-0.37
2026-07-27 13:39:13.633,-0.11,-0.12,0.98,-0.12,0.92,-0.37
2026-07-27 13:39:13.739,-0.11,-0.11,0.98,-0.31,0.85,-0.49
2026-07-27 13:39:13.740,-0.11,-0.11,0.98,-0.31,0.85,-0.49
2026-07-27 13:39:13.740,-0.11,-0.11,0.98,-0.49,0.98,-0.55
2026-07-27 13:39:13.740,-0.11,-0.11,0.98,-0.49,0.98,-0.55
2026-07-27 13:39:13.740,-0.11,-0.11,0.98,-0.55,0.79,-0.67
2026-07-27 13:39:14.159,-0.11,-0.11,0.98,-0.55,0.79,-0.67
2026-07-27 13:39:14.159,-0.11,-0.12,0.98,-0.43,0.37,-0.67
2026-07-27 13:39:14.159,-0.11,-0.11,0.98,-0.37,0.12,-0.43
2026-07-27 13:39:14.160,-0.11,-0.11,0.98,-0.37,0.12,-0.43
2026-07-27 13:39:14.160,-0.11,-0.12,0.98,-0.49,0.37,-0.24
2026-07-27 13:39:14.161,-0.11,-0.12,0.98,-0.49,0.37,-0.24
2026-07-27 13:39:14.161,-0.12,-0.12,0.98,-0.55,1.22,-0.18
2026-07-27 13:39:14.162,-0.12,-0.12,0.98,-0.55,1.22,-0.18
2026-07-27 13:39:14.163,-0.12,-0.12,0.98,-0.31,1.77,-0.43
2026-07-27 13:39:14.163,-0.12,-0.12,0.98,-0.31,1.77,-0.43
2026-07-27 13:39:14.164,-0.12,-0.12,0.98,0.06,1.28,-0.85
2026-07-27 13:39:14.164,-0.12,-0.12,0.98,0.06,1.28,-0.85
2026-07-27 13:39:14.165,-0.12,-0.12,0.98,0.24,0.61,-1.04
2026-07-27 13:39:14.165,-0.12,-0.12,0.98,0.24,0.61,-1.04
2026-07-27 13:39:14.166,-0.12,-0.12,0.98,0.55,0.49,-1.16
2026-07-27 13:39:14.166,-0.12,-0.12,0.98,0.98,0.55,-1.46
2026-07-27 13:39:14.167,-0.12,-0.12,0.98,0.98,0.55,-1.46
2026-07-27 13:39:14.167,-0.12,-0.11,0.98,0.98,0.31,-1.65
2026-07-27 13:39:14.168,-0.12,-0.11,0.98,0.98,0.31,-1.65
2026-07-27 13:39:14.278,-0.12,-0.11,0.98,0.37,0.12,-1.46
2026-07-27 13:39:14.278,-0.12,-0.11,0.98,0.37,0.12,-1.46
2026-07-27 13:39:14.280,-0.12,-0.11,0.98,-0.12,0.55,-1.1
2026-07-27 13:39:14.281,-0.12,-0.11,0.98,-0.12,0.55,-1.1
2026-07-27 13:39:14.281,-0.12,-0.11,0.98,-0.18,1.04,-0.61
2026-07-27 13:39:14.281,-0.12,-0.11,0.98,-0.18,1.04,-0.61
2026-07-27 13:39:14.338,-0.12,-0.11,0.97,0.0,1.71,-0.24
2026-07-27 13:39:14.339,-0.13,-0.12,0.98,0.61,3.05,0.37
2026-07-27 13:39:14.518,-0.13,-0.12,0.98,0.61,3.05,0.37
2026-07-27 13:39:14.518,-0.13,-0.11,0.98,1.28,3.78,0.98
2026-07-27 13:39:14.519,-0.13,-0.11,0.98,1.28,3.78,0.98
2026-07-27 13:39:14.519,-0.13,-0.11,0.98,1.4,2.93,1.16
2026-07-27 13:39:14.520,-0.13,-0.11,0.98,1.4,2.93,1.16
2026-07-27 13:39:14.520,-0.13,-0.11,0.98,1.16,1.59,0.98
2026-07-27 13:39:14.521,-0.13,-0.11,0.98,1.16,1.59,0.98
2026-07-27 13:39:14.522,-0.13,-0.11,0.98,1.53,0.73,0.55
2026-07-27 13:39:14.522,-0.13,-0.11,0.98,1.53,0.73,0.55
2026-07-27 13:39:14.941,-0.13,-0.11,0.98,2.01,0.37,0.18
2026-07-27 13:39:14.941,-0.13,-0.11,0.98,1.95,0.06,0.0
2026-07-27 13:39:14.942,-0.13,-0.11,0.98,1.95,0.06,0.0
2026-07-27 13:39:14.943,-0.13,-0.11,0.98,1.53,-0.06,0.06
2026-07-27 13:39:14.943,-0.13,-0.11,0.98,1.53,-0.06,0.06
2026-07-27 13:39:14.943,-0.14,-0.11,0.98,1.04,0.18,0.12
2026-07-27 13:39:14.944,-0.14,-0.11,0.98,1.04,0.18,0.12
2026-07-27 13:39:14.944,-0.14,-0.11,0.98,0.85,0.37,0.06
2026-07-27 13:39:14.945,-0.14,-0.11,0.98,0.85,0.37,0.06
2026-07-27 13:39:14.945,-0.14,-0.1,0.98,0.67,0.49,0.06
2026-07-27 13:39:14.945,-0.14,-0.1,0.98,0.67,0.49,0.06
2026-07-27 13:39:14.945,-0.14,-0.1,0.98,0.67,0.49,0.06
2026-07-27 13:39:14.946,-0.14,-0.1,0.98,0.67,0.49,0.06
2026-07-27 13:39:14.946,-0.14,-0.1,0.98,0.43,0.73,0.24
2026-07-27 13:39:14.946,-0.14,-0.1,0.98,0.43,0.73,0.24
2026-07-27 13:39:14.946,-0.14,-0.1,0.98,0.49,0.24,0.12
2026-07-27 13:39:14.947,-0.14,-0.1,0.98,0.43,-0.18,0.18
2026-07-27 13:39:14.949,-0.14,-0.11,0.98,0.43,-0.18,0.18
2026-07-27 13:39:14.949,-0.14,-0.11,0.98,0.55,-0.67,0.37
2026-07-27 13:39:14.949,-0.14,-0.11,0.98,0.55,-0.67,0.37
