Timestamp,AccX,AccY,AccZ,GyroX,GyroY,GyroZ
2026-07-27 13:40:16.799,-0.07,-0.18,0.97,-6.65,-1.71,0.37
2026-07-27 13:40:16.800,-0.07,-0.18,0.97,-6.23,-1.34,1.46
2026-07-27 13:40:16.800,-0.07,-0.18,0.97,-6.53,-0.98,2.01
2026-07-27 13:40:16.858,-0.07,-0.18,0.97,-6.53,-0.98,2.01
2026-07-27 13:40:16.859,-0.07,-0.19,0.97,-7.39,-0.67,1.95
2026-07-27 13:40:16.859,-0.07,-0.19,0.97,-7.39,-0.67,1.95
2026-07-27 13:40:16.948,-0.07,-0.2,0.97,-8.85,-0.49,2.08
2026-07-27 13:40:16.948,-0.07,-0.2,0.97,-8.85,-0.49,2.08
2026-07-27 13:40:16.948,-0.07,-0.21,0.97,-10.68,-0.06,2.62
2026-07-27 13:40:16.949,-0.07,-0.21,0.97,-10.68,-0.06,2.62
2026-07-27 13:40:16.978,-0.07,-0.23,0.97,-11.41,2.01,3.23
2026-07-27 13:40:17.053,-0.08,-0.23,0.96,-10.86,5.98,3.54
2026-07-27 13:40:17.053,-0.08,-0.23,0.96,-10.86,5.98,3.54
2026-07-27 13:40:17.054,-0.09,-0.22,0.95,-9.22,9.34,2.69
2026-07-27 13:40:17.279,-0.09,-0.22,0.95,-9.22,9.34,2.69
2026-07-27 13:40:17.279,-0.1,-0.21,0.95,-7.14,10.01,-0.24
2026-07-27 13:40:17.279,-0.1,-0.21,0.95,-7.14,10.01,-0.24
2026-07-27 13:40:17.280,-0.11,-0.22,0.95,-5.19,8.73,-3.78
2026-07-27 13:40:17.280,-0.1,-0.23,0.96,-3.78,6.71,-4.58
2026-07-27 13:40:17.280,-0.1,-0.23,0.96,-3.78,6.71,-4.58
2026-07-27 13:40:17.280,-0.1,-0.22,0.95,-2.99,4.27,-1.77
2026-07-27 13:40:17.282,-0.1,-0.22,0.95,-2.99,4.27,-1.77
2026-07-27 13:40:17.282,-0.1,-0.22,0.94,0.43,1.77,1.22
2026-07-27 13:40:17.282,-0.1,-0.22,0.94,0.43,1.77,1.22
2026-07-27 13:40:17.518,-0.1,-0.2,0.94,5.49,-1.71,0.98
2026-07-27 13:40:17.519,-0.1,-0.2,0.94,5.49,-1.71,0.98
2026-07-27 13:40:17.519,-0.1,-0.18,0.93,4.88,-8.91,-2.81
2026-07-27 13:40:17.519,-0.1,-0.18,0.93,4.88,-8.91,-2.81
2026-07-27 13:40:17.520,-0.07,-0.18,0.94,-2.56,-21.06,-4.76
2026-07-27 13:40:17.520,-0.03,-0.18,0.98,-13.79,-33.87,-3.05
2026-07-27 13:40:17.521,-0.03,-0.18,0.98,-13.79,-33.87,-3.05
2026-07-27 13:40:17.521,0.0,-0.17,1.03,-27.83,-38.02,-6.77
2026-07-27 13:40:17.522,0.0,-0.17,1.03,-27.83,-38.02,-6.77
2026-07-27 13:40:17.522,-0.07,-0.22,1.07,-39.18,-26.61,-20.51
2026-07-27 13:40:17.523,-0.07,-0.22,1.07,-39.18,-26.61,-20.51
2026-07-27 13:40:17.578,-0.19,-0.42,1.07,-35.89,7.2,-41.44
2026-07-27 13:40:17.578,-0.17,-0.59,0.99,-17.03,60.79,-58.04
2026-07-27 13:40:17.579,-0.17,-0.59,0.99,-17.03,60.79,-58.04
2026-07-27 13:40:17.759,-0.12,-0.34,1.04,6.23,91.0,-43.27
2026-07-27 13:40:17.761,-0.12,-0.34,1.04,6.23,91.0,-43.27
2026-07-27 13:40:17.762,-0.19,0.04,1.39,35.58,61.1,-16.54
2026-07-27 13:40:17.762,-0.19,0.04,1.39,35.58,61.1,-16.54
2026-07-27 13:40:17.762,-0.23,0.14,1.55,98.45,14.04,-37.9
2026-07-27 13:40:17.762,-0.23,0.14,1.55,98.45,14.04,-37.9
2026-07-27 13:40:17.762,-0.15,0.13,1.4,195.31,-1.53,-116.46
2026-07-27 13:40:17.762,-0.01,0.08,1.2,247.25,8.12,-187.19
2026-07-27 13:40:17.819,-0.01,0.08,1.2,247.25,8.12,-187.19
2026-07-27 13:40:17.821,0.07,0.03,0.97,199.77,6.71,-197.75
2026-07-27 13:40:17.878,0.07,0.03,0.97,199.77,6.71,-197.75
2026-07-27 13:40:17.878,0.08,0.02,0.78,110.17,-2.75,-178.04
2026-07-27 13:40:17.879,0.08,0.02,0.78,110.17,-2.75,-178.04
2026-07-27 13:40:17.941,0.01,0.06,0.75,72.08,6.96,-143.07
2026-07-27 13:40:17.941,-0.07,0.06,0.77,85.57,4.09,-54.87
2026-07-27 13:40:17.941,-0.07,0.06,0.77,85.57,4.09,-54.87
2026-07-27 13:40:17.999,-0.15,0.02,0.79,78.06,-8.0,11.84
2026-07-27 13:40:18.002,-0.15,0.02,0.79,78.06,-8.0,11.84
2026-07-27 13:40:18.061,-0.26,0.01,0.9,19.04,-12.51,-11.11
2026-07-27 13:40:18.063,-0.26,0.01,0.9,19.04,-12.51,-11.11
2026-07-27 13:40:18.063,-0.37,0.01,0.84,-72.2,-32.41,-59.57
2026-07-27 13:40:18.119,-0.39,0.13,0.7,-76.9,-35.95,-108.76
2026-07-27 13:40:18.119,-0.39,0.13,0.7,-76.9,-35.95,-108.76
2026-07-27 13:40:18.243,-0.33,0.33,0.69,15.26,3.05,-161.62
2026-07-27 13:40:18.245,-0.33,0.33,0.69,15.26,3.05,-161.62
2026-07-27 13:40:18.246,-0.26,0.43,0.75,64.64,37.48,-190.06
2026-07-27 13:40:18.246,-0.26,0.43,0.75,64.64,37.48,-190.06
2026-07-27 13:40:18.246,-0.16,0.34,0.81,32.59,27.71,-185.79
2026-07-27 13:40:18.478,-0.16,0.22,0.87,-45.35,-3.6,-179.02
2026-07-27 13:40:18.478,-0.16,0.22,0.87,-45.35,-3.6,-179.02
2026-07-27 13:40:18.478,-0.2,0.04,0.9,-136.54,-31.07,-177.25
2026-07-27 13:40:18.479,-0.2,0.04,0.9,-136.54,-31.07,-177.25
2026-07-27 13:40:18.479,-0.18,-0.15,0.92,-171.75,-61.46,-153.5
2026-07-27 13:40:18.480,-0.18,-0.15,0.92,-171.75,-61.46,-153.5
2026-07-27 13:40:18.484,-0.17,-0.19,1.0,-117.25,-82.46,-119.08
2026-07-27 13:40:18.484,-0.14,-0.25,1.13,-61.22,-102.17,-104.49
2026-07-27 13:40:18.484,-0.14,-0.25,1.13,-61.22,-102.17,-104.49
2026-07-27 13:40:18.484,-0.11,-0.33,1.16,-28.44,-117.68,-102.97
2026-07-27 13:40:18.487,-0.11,-0.33,1.16,-28.44,-117.68,-102.97
2026-07-27 13:40:18.602,-0.11,-0.34,1.03,9.16,-95.76,-112.18
2026-07-27 13:40:18.603,-0.11,-0.34,1.03,9.16,-95.76,-112.18
2026-07-27 13:40:18.603,-0.12,-0.32,0.89,19.71,-53.41,-136.23
2026-07-27 13:40:18.604,-0.1,-0.27,0.86,-5.19,-8.24,-160.34
2026-07-27 13:40:18.604,-0.1,-0.27,0.86,-5.19,-8.24,-160.34
2026-07-27 13:40:18.898,-0.02,-0.14,0.92,-31.13,36.07,-168.27
2026-07-27 13:40:18.898,-0.02,-0.14,0.92,-31.13,36.07,-168.27
2026-07-27 13:40:18.898,0.09,-0.06,0.96,-41.93,69.64,-155.76
2026-07-27 13:40:18.899,0.09,-0.06,0.96,-41.93,69.64,-155.76
2026-07-27 13:40:18.900,0.2,-0.06,1.01,-40.22,83.98,-136.23
2026-07-27 13:40:18.900,0.28,-0.09,1.04,-23.62,81.6,-120.73
2026-07-27 13:40:18.901,0.28,-0.09,1.04,-23.62,81.6,-120.73
2026-07-27 13:40:18.901,0.29,-0.11,1.01,2.93,84.66,-113.16
2026-07-27 13:40:18.902,0.29,-0.11,1.01,2.93,84.66,-113.16
2026-07-27 13:40:18.902,0.22,-0.08,1.0,26.55,97.72,-109.01
2026-07-27 13:40:18.903,0.22,-0.08,1.0,36.5,98.27,-89.97
2026-07-27 13:40:18.904,0.12,-0.06,1.01,36.5,98.27,-89.97
2026-07-27 13:40:18.904,0.02,-0.08,0.98,29.54,77.45,-52.25
2026-07-27 13:40:18.958,0.02,-0.08,0.98,29.54,77.45,-52.25
2026-07-27 13:40:18.958,-0.05,-0.14,0.95,19.96,40.71,-10.62
2026-07-27 13:40:18.959,-0.05,-0.14,0.95,19.96,40.71,-10.62
2026-07-27 13:40:19.019,-0.04,-0.19,0.94,22.34,-6.23,16.78
2026-07-27 13:40:19.019,-0.04,-0.19,0.94,32.47,-42.72,21.0
2026-07-27 13:40:19.080,0.01,-0.22,0.95,32.47,-42.72,21.0
2026-07-27 13:40:19.080,0.06,-0.24,0.96,39.12,-50.6,11.84
2026-07-27 13:40:19.080,0.06,-0.24,0.96,39.12,-50.6,11.84
2026-07-27 13:40:19.258,0.1,-0.22,0.93,39.67,-38.02,1.71
2026-07-27 13:40:19.259,0.1,-0.22,0.93,39.67,-38.02,1.71
2026-07-27 13:40:19.259,0.11,-0.16,0.92,38.15,-20.08,-4.27
2026-07-27 13:40:19.259,0.11,-0.16,0.92,38.15,-20.08,-4.27
2026-07-27 13:40:19.260,0.09,-0.12,0.97,35.52,-4.33,-0.37
2026-07-27 13:40:19.261,0.05,-0.13,1.04,31.68,5.86,14.4
2026-07-27 13:40:19.261,0.05,-0.13,1.04,31.68,5.86,14.4
2026-07-27 13:40:19.261,-0.01,-0.13,1.1,28.44,11.96,32.53
2026-07-27 13:40:19.560,-0.01,-0.13,1.1,28.44,11.96,32.53
2026-07-27 13:40:19.560,-0.06,-0.16,1.12,21.06,12.82,50.84
2026-07-27 13:40:19.560,-0.06,-0.16,1.12,21.06,12.82,50.84
2026-07-27 13:40:19.560,-0.08,-0.18,1.07,8.24,6.9,64.76
2026-07-27 13:40:19.560,-0.08,-0.18,1.07,8.24,6.9,64.76
2026-07-27 13:40:19.560,-0.04,-0.15,0.99,-7.14,0.55,65.8
2026-07-27 13:40:19.561,0.01,-0.06,0.88,-21.06,-1.95,53.89
2026-07-27 13:40:19.561,0.01,-0.06,0.88,-21.06,-1.95,53.89
2026-07-27 13:40:19.562,0.04,0.07,0.78,-27.1,-0.24,35.22
2026-07-27 13:40:19.563,0.04,0.07,0.78,-27.1,-0.24,35.22
2026-07-27 13:40:19.621,0.04,0.23,0.84,-24.54,12.7,16.78
2026-07-27 13:40:19.621,0.04,0.23,0.84,-24.54,12.7,16.78
2026-07-27 13:40:19.621,0.03,0.39,1.09,-17.21,38.27,5.07
2026-07-27 13:40:19.621,0.03,0.39,1.09,-8.48,51.76,15.62
2026-07-27 13:40:19.621,0.03,0.48,1.29,-8.48,51.76,15.62
2026-07-27 13:40:19.621,0.05,0.37,1.25,-5.31,32.23,57.86
2026-07-27 13:40:20.098,0.05,0.37,1.25,-5.31,32.23,57.86
2026-07-27 13:40:20.098,0.05,0.17,1.09,-5.62,-4.94,101.99
2026-07-27 13:40:20.098,0.05,0.17,1.09,-5.62,-4.94,101.99
2026-07-27 13:40:20.099,0.01,0.03,0.97,-0.73,-32.17,110.66
2026-07-27 13:40:20.099,0.01,0.03,0.97,-0.73,-32.17,110.66
2026-07-27 13:40:20.100,-0.09,-0.02,0.96,4.39,-38.64,82.89
2026-07-27 13:40:20.101,-0.19,-0.03,1.0,4.33,-32.53,40.83
2026-07-27 13:40:20.101,-0.19,-0.03,1.0,4.33,-32.53,40.83
2026-07-27 13:40:20.102,-0.27,-0.04,1.02,0.24,-25.02,2.56
2026-07-27 13:40:20.102,-0.27,-0.04,1.02,0.24,-25.02,2.56
2026-07-27 13:40:20.103,-0.3,-0.08,1.04,-6.04,-17.64,-25.82
2026-07-27 13:40:20.103,-0.3,-0.08,1.04,-6.04,-17.64,-25.82
2026-07-27 13:40:20.104,-0.29,-0.11,1.0,-8.3,-8.48,-44.56
2026-07-27 13:40:20.104,-0.29,-0.11,1.0,-8.3,-8.48,-44.56
2026-07-27 13:40:20.106,-0.22,-0.11,0.97,-2.99,5.92,-58.35
2026-07-27 13:40:20.106,-0.12,-0.05,0.95,6.41,24.9,-67.14
2026-07-27 13:40:20.106,-0.12,-0.05,0.95,6.41,24.9,-67.14
2026-07-27 13:40:20.107,0.0,-0.02,0.91,12.21,33.94,-58.29
2026-07-27 13:40:20.107,0.0,-0.02,0.91,12.21,33.94,-58.29
2026-07-27 13:40:20.108,0.11,-0.05,0.92,8.18,30.09,-35.52
2026-07-27 13:40:20.109,0.11,-0.05,0.92,8.18,30.09,-35.52
2026-07-27 13:40:20.109,0.13,-0.09,0.96,2.14,22.03,-20.45
2026-07-27 13:40:20.400,0.09,-0.15,0.94,-0.73,7.75,-8.85
2026-07-27 13:40:20.401,0.09,-0.15,0.94,-0.73,7.75,-8.85
2026-07-27 13:40:20.401,0.05,-0.25,0.88,-6.9,-11.05,13.92
2026-07-27 13:40:20.401,0.05,-0.25,0.88,-6.9,-11.05,13.92
2026-07-27 13:40:20.401,0.06,-0.3,0.87,-14.77,-21.73,34.06
2026-07-27 13:40:20.402,0.06,-0.3,0.87,-14.77,-21.73,34.06
2026-07-27 13:40:20.402,0.07,-0.27,0.91,-14.47,-18.43,31.13
2026-07-27 13:40:20.402,0.07,-0.27,0.91,-14.47,-18.43,31.13
2026-07-27 13:40:20.402,0.05,-0.17,0.97,-2.99,-9.58,7.63
2026-07-27 13:40:20.403,-0.02,-0.03,1.02,15.01,-3.05,-24.9
2026-07-27 13:40:20.404,-0.02,-0.03,1.02,15.01,-3.05,-24.9
2026-07-27 13:40:20.405,-0.15,0.09,1.01,38.45,-1.53,-52.49
2026-07-27 13:40:20.405,-0.15,0.09,1.01,38.45,-1.53,-52.49
2026-07-27 13:40:20.578,-0.29,0.13,0.98,58.11,-0.73,-60.42
2026-07-27 13:40:20.578,-0.29,0.13,0.98,58.11,-0.73,-60.42
2026-07-27 13:40:20.579,-0.36,0.11,1.04,61.28,11.72,-51.57
2026-07-27 13:40:20.579,-0.36,0.11,1.04,61.28,11.72,-51.57
2026-07-27 13:40:20.580,-0.33,0.1,1.21,46.45,37.54,-40.53
2026-07-27 13:40:20.581,-0.23,0.07,1.3,23.56,50.05,-30.82
2026-07-27 13:40:20.581,-0.23,0.07,1.3,23.56,50.05,-30.82
2026-07-27 13:40:20.581,-0.14,0.05,1.18,6.04,33.02,-25.33
2026-07-27 13:40:20.638,-0.14,0.05,1.18,6.04,33.02,-25.33
2026-07-27 13:40:20.639,-0.1,0.1,1.02,-4.03,10.93,-37.66
2026-07-27 13:40:20.641,-0.1,0.1,1.02,-4.03,10.93,-37.66
2026-07-27 13:40:20.819,-0.09,0.2,0.9,-8.61,1.04,-61.1
2026-07-27 13:40:20.819,-0.09,0.2,0.9,-9.64,-2.2,-74.16
2026-07-27 13:40:20.819,-0.09,0.3,0.84,-9.64,-2.2,-74.16
2026-07-27 13:40:20.821,-0.07,0.33,0.87,-10.8,-3.6,-70.31
2026-07-27 13:40:20.821,-0.07,0.33,0.87,-10.8,-3.6,-70.31
2026-07-27 13:40:20.821,-0.03,0.31,0.94,-10.99,-6.9,-55.79
2026-07-27 13:40:20.821,-0.03,0.31,0.94,-10.99,-6.9,-55.79
2026-07-27 13:40:21.420,0.0,0.26,1.0,-7.26,-12.02,-43.15
2026-07-27 13:40:21.420,0.01,0.23,1.02,0.0,-15.75,-39.49
2026-07-27 13:40:21.422,0.01,0.23,1.02,0.0,-15.75,-39.49
2026-07-27 13:40:21.422,-0.0,0.21,1.0,8.42,-16.66,-38.76
2026-07-27 13:40:21.422,-0.0,0.21,1.0,8.42,-16.66,-38.76
2026-07-27 13:40:21.422,-0.01,0.18,0.98,13.18,-16.85,-32.59
2026-07-27 13:40:21.423,-0.01,0.18,0.98,13.18,-16.85,-32.59
2026-07-27 13:40:21.423,-0.02,0.12,0.97,12.21,-19.29,-21.0
2026-07-27 13:40:21.423,-0.02,0.12,0.97,12.21,-19.29,-21.0
2026-07-27 13:40:21.423,-0.04,0.05,0.97,8.42,-22.34,-10.38
2026-07-27 13:40:21.423,-0.04,-0.0,0.95,6.04,-22.77,-7.14
2026-07-27 13:40:21.423,-0.04,-0.0,0.95,6.04,-22.77,-7.14
2026-07-27 13:40:21.424,-0.04,-0.01,0.91,6.96,-18.43,-15.08
2026-07-27 13:40:21.425,-0.04,-0.01,0.91,6.96,-18.43,-15.08
2026-07-27 13:40:21.430,-0.0,0.05,0.91,10.31,-6.29,-32.47
2026-07-27 13:40:21.430,-0.0,0.05,0.91,10.31,-6.29,-32.47
2026-07-27 13:40:21.478,0.05,0.13,0.97,15.38,11.11,-50.6
2026-07-27 13:40:21.479,0.05,0.13,0.97,18.19,20.45,-59.51
2026-07-27 13:40:21.479,0.09,0.16,1.06,18.19,20.45,-59.51
2026-07-27 13:40:21.479,0.09,0.13,1.06,14.28,10.19,-57.92
2026-07-27 13:40:21.479,0.09,0.13,1.06,14.28,10.19,-57.92
2026-07-27 13:40:21.480,0.02,0.04,1.03,3.54,-12.21,-53.65
2026-07-27 13:40:21.481,0.02,0.04,1.03,3.54,-12.21,-53.65
2026-07-27 13:40:21.481,-0.11,-0.0,1.14,-8.91,-21.73,-63.96
2026-07-27 13:40:21.597,-0.11,-0.0,1.14,-8.91,-21.73,-63.96
2026-07-27 13:40:21.598,-0.31,0.01,1.28,-15.14,-14.77,-85.88
2026-07-27 13:40:21.598,-0.31,0.01,1.28,-23.01,-20.81,-75.68
2026-07-27 13:40:21.601,-0.46,-0.11,1.21,-23.01,-20.81,-75.68
2026-07-27 13:40:21.601,-0.38,-0.3,0.99,-40.34,-36.56,-34.48
2026-07-27 13:40:21.601,-0.38,-0.3,0.99,-40.34,-36.56,-34.48
2026-07-27 13:40:21.601,-0.1,-0.36,0.82,-51.27,-26.12,-19.1
2026-07-27 13:40:21.601,-0.1,-0.36,0.82,-51.27,-26.12,-19.1
2026-07-27 13:40:21.602,0.13,-0.23,0.75,-51.09,4.52,-44.62
2026-07-27 13:40:21.602,0.13,-0.23,0.75,-51.09,4.52,-44.62
2026-07-27 13:40:21.606,0.18,-0.03,0.74,-58.53,22.46,-76.42
2026-07-27 13:40:22.082,0.17,0.02,0.79,-86.98,26.98,-86.3
2026-07-27 13:40:22.082,0.17,0.02,0.79,-86.98,26.98,-86.3
2026-07-27 13:40:22.082,0.14,-0.15,0.92,-89.23,61.16,-82.82
2026-07-27 13:40:22.082,0.14,-0.15,0.92,-89.23,61.16,-82.82
2026-07-27 13:40:22.082,0.07,-0.26,0.97,36.32,147.34,-72.08
2026-07-27 13:40:22.082,0.07,-0.26,0.97,36.32,147.34,-72.08
2026-07-27 13:40:22.082,-0.05,-0.06,0.86,238.89,232.6,-51.15
2026-07-27 13:40:22.082,-0.25,0.24,0.84,284.3,237.12,-42.18
2026-07-27 13:40:22.083,-0.25,0.24,0.84,284.3,237.12,-42.18
2026-07-27 13:40:22.085,-0.37,0.39,0.95,155.64,132.26,-54.32
2026-07-27 13:40:22.085,-0.37,0.39,0.95,155.64,132.26,-54.32
2026-07-27 13:40:22.085,-0.38,0.37,1.02,29.48,-1.4,-53.16
2026-07-27 13:40:22.086,-0.38,0.37,1.02,29.48,-1.4,-53.16
2026-07-27 13:40:22.087,-0.28,0.22,1.08,-45.04,-101.26,-16.6
2026-07-27 13:40:22.087,-0.04,0.16,1.19,-65.0,-182.13,42.6
2026-07-27 13:40:22.087,-0.04,0.16,1.19,-65.0,-182.13,42.6
2026-07-27 13:40:22.087,0.16,0.21,1.36,-36.19,-210.88,98.08
2026-07-27 13:40:22.087,0.16,0.21,1.36,-36.19,-210.88,98.08
2026-07-27 13:40:22.089,0.13,0.17,1.57,-13.79,-176.45,124.82
2026-07-27 13:40:22.089,0.13,0.17,1.57,-13.79,-176.45,124.82
2026-07-27 13:40:22.093,-0.06,0.03,1.69,-20.02,-128.54,110.11
2026-07-27 13:40:22.318,-0.26,-0.04,1.58,-21.12,-95.83,55.79
2026-07-27 13:40:22.319,-0.26,-0.04,1.58,-21.12,-95.83,55.79
2026-07-27 13:40:22.319,-0.43,-0.03,1.18,3.36,-80.81,-4.33
2026-07-27 13:40:22.322,-0.43,-0.03,1.18,3.36,-80.81,-4.33
2026-07-27 13:40:22.322,-0.59,-0.04,0.71,19.47,-69.21,-27.28
2026-07-27 13:40:22.322,-0.59,-0.04,0.71,19.47,-69.21,-27.28
2026-07-27 13:40:22.323,-0.7,-0.08,0.34,-1.4,-44.01,-7.02
2026-07-27 13:40:22.323,-0.7,-0.08,0.34,-31.8,-2.32,25.15
2026-07-27 13:40:22.323,-0.64,-0.14,0.11,-31.8,-2.32,25.15
2026-07-27 13:40:22.323,-0.5,-0.16,0.11,-37.6,54.2,30.15
2026-07-27 13:40:22.323,-0.5,-0.16,0.11,-37.6,54.2,30.15
2026-07-27 13:40:22.618,-0.37,-0.11,0.37,-25.76,115.6,-1.53
2026-07-27 13:40:22.619,-0.37,-0.11,0.37,-25.76,115.6,-1.53
2026-07-27 13:40:22.619,-0.28,-0.08,0.78,-23.5,154.97,-44.56
2026-07-27 13:40:22.620,-0.28,-0.08,0.78,-23.5,154.97,-44.56
2026-07-27 13:40:22.620,-0.27,-0.03,1.22,-32.65,160.34,-86.18
2026-07-27 13:40:22.620,-0.36,0.08,1.72,-27.34,152.95,-133.85
2026-07-27 13:40:22.621,-0.36,0.08,1.72,-27.34,152.95,-133.85
2026-07-27 13:40:22.678,-0.52,0.25,2.24,8.36,148.8,-176.45
2026-07-27 13:40:22.738,-0.52,0.25,2.24,8.36,148.8,-176.45
2026-07-27 13:40:23.098,-0.64,0.45,2.37,61.71,135.13,-181.88
2026-07-27 13:40:23.098,-0.64,0.45,2.37,61.71,135.13,-181.88
2026-07-27 13:40:23.098,-0.58,0.64,1.92,99.98,103.45,-135.5
2026-07-27 13:40:23.101,-0.15,0.4,1.21,84.05,62.68,-39.61
2026-07-27 13:40:23.101,-0.15,0.4,1.21,84.05,62.68,-39.61
2026-07-27 13:40:23.101,0.45,-0.17,0.57,-7.45,5.13,66.22
2026-07-27 13:40:23.101,0.45,-0.17,0.57,-7.45,5.13,66.22
2026-07-27 13:40:23.101,0.73,-0.43,0.01,-108.89,-66.41,115.11
2026-07-27 13:40:23.102,0.73,-0.43,0.01,-108.89,-66.41,115.11
2026-07-27 13:40:23.106,0.64,-0.3,-0.42,-130.43,-115.48,92.47
2026-07-27 13:40:23.109,0.47,-0.06,-0.51,-92.96,-122.13,26.43
2026-07-27 13:40:23.110,0.47,-0.06,-0.51,-92.96,-122.13,26.43
2026-07-27 13:40:23.111,0.54,0.17,0.2,-56.21,-81.42,-47.42
2026-07-27 13:40:23.111,0.54,0.17,0.2,-56.21,-81.42,-47.42
2026-07-27 13:40:23.111,0.72,0.53,2.06,-18.62,-2.2,-102.84
2026-07-27 13:40:23.157,0.3,0.71,3.81,38.57,-8.06,-91.98
2026-07-27 13:40:23.158,0.3,0.71,3.81,38.57,-8.06,-91.98
2026-07-27 13:40:23.398,-0.79,0.33,3.73,88.07,-189.45,19.47
2026-07-27 13:40:23.398,-0.79,0.33,3.73,88.07,-189.45,19.47
2026-07-27 13:40:23.408,-1.6,-0.18,2.02,99.43,-383.42,155.58
2026-07-27 13:40:23.408,-1.6,-0.18,2.02,99.43,-383.42,155.58
2026-07-27 13:40:23.410,-1.66,-0.34,0.21,94.42,-397.46,215.15
2026-07-27 13:40:23.410,-1.66,-0.34,0.21,91.92,-245.67,188.48
2026-07-27 13:40:23.410,-1.4,-0.25,-0.82,91.92,-245.67,188.48
2026-07-27 13:40:23.410,-1.27,-0.21,-1.24,96.8,-54.99,125.49
2026-07-27 13:40:23.410,-1.27,-0.21,-1.24,96.8,-54.99,125.49
2026-07-27 13:40:23.410,-1.26,-0.33,-1.09,118.16,115.78,53.83
2026-07-27 13:40:23.411,-1.26,-0.33,-1.09,118.16,115.78,53.83
2026-07-27 13:40:23.411,-1.25,-0.46,-0.13,102.11,254.82,-34.12
2026-07-27 13:40:23.411,-1.19,-0.38,1.36,-1.46,313.72,-133.85
2026-07-27 13:40:23.411,-1.19,-0.38,1.36,-1.46,313.72,-133.85
2026-07-27 13:40:23.411,-1.02,-0.12,2.67,-93.44,276.73,-190.31
2026-07-27 13:40:23.412,-1.02,-0.12,2.67,-93.44,276.73,-190.31
2026-07-27 13:40:23.412,-0.74,0.09,3.43,-104.61,211.91,-165.95
2026-07-27 13:40:23.412,-0.74,0.09,3.43,-104.61,211.91,-165.95
2026-07-27 13:40:23.412,-0.35,0.14,3.39,-97.41,166.26,-95.15
2026-07-27 13:40:23.412,0.14,0.02,2.39,-86.85,109.68,-16.97
2026-07-27 13:40:23.412,0.14,0.02,2.39,-86.85,109.68,-16.97
2026-07-27 13:40:23.759,0.64,-0.06,1.1,-69.76,30.58,36.5
2026-07-27 13:40:23.759,0.64,-0.06,1.1,-69.76,30.58,36.5
2026-07-27 13:40:23.760,0.97,0.01,0.26,-64.27,-38.27,34.42
2026-07-27 13:40:23.760,0.97,0.01,0.26,-64.27,-38.27,34.42
2026-07-27 13:40:23.760,0.96,0.12,-0.08,-60.3,-83.92,-5.98
2026-07-27 13:40:23.760,0.64,0.08,-0.16,-50.48,-120.73,-32.59
2026-07-27 13:40:23.761,0.64,0.08,-0.16,-50.48,-120.73,-32.59
2026-07-27 13:40:23.761,0.24,-0.14,-0.1,-39.49,-142.7,-31.98
2026-07-27 13:40:23.762,0.24,-0.14,-0.1,-39.49,-142.7,-31.98
2026-07-27 13:40:23.763,-0.02,-0.58,0.25,-18.62,-118.29,-39.86
2026-07-27 13:40:23.763,-0.02,-0.58,0.25,-18.62,-118.29,-39.86
2026-07-27 13:40:23.763,-0.16,-1.01,1.66,16.05,-29.97,-93.99
2026-07-27 13:40:23.764,-0.39,-0.91,3.19,29.91,39.92,-155.88
2026-07-27 13:40:23.764,-0.39,-0.91,3.19,29.91,39.92,-155.88
2026-07-27 13:40:23.765,-0.54,-0.38,2.97,84.35,-20.45,-105.22
2026-07-27 13:40:23.766,-0.54,-0.38,2.97,84.35,-20.45,-105.22
2026-07-27 13:40:24.658,-0.52,-0.12,1.52,154.36,-134.34,53.47
2026-07-27 13:40:24.838,-0.52,-0.12,1.52,154.36,-134.34,53.47
2026-07-27 13:40:24.839,-0.51,-0.24,0.05,116.88,-190.8,193.12
2026-07-27 13:40:25.025,-0.56,-0.33,-0.98,32.47,-189.21,235.35
2026-07-27 13:40:25.025,-0.56,-0.33,-0.98,32.47,-189.21,235.35
2026-07-27 13:40:25.026,-0.64,-0.22,-1.43,-17.94,-137.7,180.66
2026-07-27 13:40:25.027,-0.64,-0.22,-1.43,-17.94,-137.7,180.66
2026-07-27 13:40:25.027,-0.77,-0.06,-1.25,-23.68,-26.98,70.92
2026-07-27 13:40:25.027,-0.77,-0.06,-1.25,-13.85,126.34,-45.9
2026-07-27 13:40:25.028,-1.03,-0.17,-0.21,-13.85,126.34,-45.9
2026-07-27 13:40:25.028,-1.08,-0.56,1.92,-1.83,260.31,-117.92
2026-07-27 13:40:25.030,-1.08,-0.56,1.92,-1.83,260.31,-117.92
2026-07-27 13:40:25.030,-0.55,-0.68,3.65,36.99,286.68,-132.63
2026-07-27 13:40:25.030,-0.55,-0.68,3.65,36.99,286.68,-132.63
2026-07-27 13:40:25.030,0.17,-0.33,3.09,100.22,159.79,-119.75
2026-07-27 13:40:25.032,0.77,-0.17,1.17,93.08,4.27,-107.97
2026-07-27 13:40:25.033,0.77,-0.17,1.17,93.08,4.27,-107.97
2026-07-27 13:40:25.034,0.88,-0.3,-0.12,-60.0,-50.6,-127.01
2026-07-27 13:40:25.035,0.88,-0.3,-0.12,-60.0,-50.6,-127.01
2026-07-27 13:40:25.036,0.49,-0.15,-0.52,-227.05,-50.6,-181.46
2026-07-27 13:40:25.040,0.49,-0.15,-0.52,-227.05,-50.6,-181.46
2026-07-27 13:40:25.040,0.1,0.2,-0.53,-242.61,-40.65,-219.91
2026-07-27 13:40:25.040,0.1,0.2,-0.53,-242.61,-40.65,-219.91
2026-07-27 13:40:25.041,-0.09,0.37,-0.28,-138.67,2.56,-205.81
2026-07-27 13:40:33.178,-0.02,0.11,0.53,-28.99,69.27,-147.46
2026-07-27 13:40:33.179,-0.02,0.11,0.53,-28.99,69.27,-147.46
2026-07-27 13:40:33.179,0.15,-0.79,2.23,33.14,123.78,-64.51
2026-07-27 13:40:33.179,0.15,-0.79,2.23,33.14,123.78,-64.51
2026-07-27 13:40:33.180,0.19,-1.6,3.22,36.07,70.07,36.19
2026-07-27 13:40:33.180,0.19,-1.6,3.22,36.07,70.07,36.19
2026-07-27 13:40:33.181,0.15,-1.35,2.23,34.61,-98.14,129.21
2026-07-27 13:40:33.181,0.13,-0.61,0.79,64.09,-193.18,158.2
2026-07-27 13:40:33.181,0.13,-0.61,0.79,64.09,-193.18,158.2
2026-07-27 13:40:33.182,-0.04,-0.11,-0.11,87.77,-158.39,126.04
2026-07-27 13:40:33.183,-0.04,-0.11,-0.11,87.77,-158.39,126.04
2026-07-27 13:40:33.479,-0.3,0.1,-0.63,84.11,-108.09,91.67
2026-07-27 13:40:33.479,-0.3,0.1,-0.63,84.11,-108.09,91.67
2026-07-27 13:40:33.479,-0.48,0.07,-0.76,51.57,-69.89,71.17
2026-07-27 13:40:33.479,-0.48,0.07,-0.76,51.57,-69.89,71.17
2026-07-27 13:40:33.481,-0.59,-0.24,-0.41,9.34,-6.47,33.87
2026-07-27 13:40:33.481,-0.67,-0.99,0.73,-20.39,88.99,-25.51
2026-07-27 13:40:33.481,-0.67,-0.99,0.73,-20.39,88.99,-25.51
2026-07-27 13:40:33.481,-0.65,-1.56,2.61,-21.67,197.69,-95.76
2026-07-27 13:40:33.482,-0.65,-1.56,2.61,-21.67,197.69,-95.76
2026-07-27 13:40:33.483,-0.44,-1.18,3.44,6.04,227.66,-142.76
2026-07-27 13:40:33.483,-0.44,-1.18,3.44,6.04,227.66,-142.76
2026-07-27 13:40:33.484,-0.03,-0.45,2.32,41.56,116.76,-110.78
2026-07-27 13:40:33.484,0.38,0.01,0.71,30.52,-14.89,-32.47
2026-07-27 13:40:33.485,0.38,0.01,0.71,30.52,-14.89,-32.47
2026-07-27 13:40:33.485,0.53,0.2,-0.2,-22.58,-56.09,-2.93
2026-07-27 13:40:33.485,0.53,0.2,-0.2,-22.58,-56.09,-2.93
2026-07-27 13:40:33.490,0.48,0.27,-0.44,-48.83,-47.0,-30.03
2026-07-27 13:40:33.493,0.48,0.27,-0.44,-48.83,-47.0,-30.03
2026-07-27 13:40:33.494,0.42,0.25,-0.45,-39.86,-57.62,-50.23
2026-07-27 13:40:33.494,0.42,0.25,-0.45,-39.86,-57.62,-50.23
2026-07-27 13:40:33.494,0.45,0.0,-0.36,-28.26,-89.11,-35.83
2026-07-27 13:40:33.494,0.53,-0.42,0.5,-52.86,-66.65,-33.87
2026-07-27 13:40:33.494,0.53,-0.42,0.5,-52.86,-66.65,-33.87
2026-07-27 13:40:33.494,0.31,-0.67,2.38,-98.63,44.92,-89.29
2026-07-27 13:40:33.494,0.31,-0.67,2.38,-98.63,44.92,-89.29
2026-07-27 13:40:33.494,-0.25,-0.7,3.36,-62.56,115.48,-106.93
2026-07-27 13:40:33.495,-0.25,-0.7,3.36,-62.56,115.48,-106.93
2026-07-27 13:40:33.495,-0.49,-0.68,2.38,85.51,45.78,-5.43
2026-07-27 13:40:33.495,-0.19,-0.61,1.02,182.68,-70.43,119.08
2026-07-27 13:40:33.495,-0.19,-0.61,1.02,182.68,-70.43,119.08
2026-07-27 13:40:33.495,0.13,-0.58,0.26,116.33,-109.92,172.24
2026-07-27 13:40:33.496,0.13,-0.58,0.26,116.33,-109.92,172.24
2026-07-27 13:40:33.496,0.13,-0.66,-0.15,-25.45,-72.08,158.75
2026-07-27 13:40:33.496,0.13,-0.66,-0.15,-25.45,-72.08,158.75
2026-07-27 13:40:33.496,-0.04,-0.73,-0.4,-103.39,-53.59,98.94
2026-07-27 13:40:33.497,-0.04,-0.73,-0.4,-73.91,-65.43,-5.98
2026-07-27 13:40:33.498,-0.28,-0.63,-0.35,-73.91,-65.43,-5.98
2026-07-27 13:40:33.498,-0.51,-0.42,0.0,8.61,-35.22,-123.41
2026-07-27 13:40:33.499,-0.51,-0.42,0.0,8.61,-35.22,-123.41
2026-07-27 13:40:33.499,-0.53,-0.44,0.8,43.88,39.98,-179.57
2026-07-27 13:40:33.500,-0.53,-0.44,0.8,43.88,39.98,-179.57
2026-07-27 13:40:33.500,-0.19,-0.65,2.31,-22.4,128.11,-162.35
2026-07-27 13:40:33.501,-0.19,-0.65,2.31,-22.4,128.11,-162.35
2026-07-27 13:40:33.502,0.3,-0.58,2.98,-61.34,183.72,-117.37
2026-07-27 13:40:33.539,0.63,-0.25,1.9,-0.79,150.27,-63.42
2026-07-27 13:40:33.539,0.63,-0.25,1.9,-0.79,150.27,-63.42
2026-07-27 13:40:33.539,0.73,0.03,0.54,32.29,60.12,-17.64
2026-07-27 13:40:33.540,0.73,0.03,0.54,32.29,60.12,-17.64
2026-07-27 13:40:33.540,0.68,0.19,-0.18,-0.79,-10.38,-3.48
2026-07-27 13:40:33.540,0.68,0.19,-0.18,-0.79,-10.38,-3.48
2026-07-27 13:40:33.540,0.56,0.27,-0.32,-23.25,-41.69,-17.21
2026-07-27 13:40:33.541,0.04,0.29,0.97,183.35,-23.86,5.19
2026-07-27 13:40:33.543,0.14,0.54,1.25,167.11,-38.39,72.33
2026-07-27 13:40:33.544,0.14,0.54,1.25,167.11,-38.39,72.33
2026-07-27 13:40:33.544,0.16,0.69,1.59,98.82,-45.59,148.68
2026-07-27 13:40:33.544,0.16,0.69,1.59,98.82,-45.59,148.68
2026-07-27 13:40:33.544,0.06,0.48,1.76,10.99,-37.48,222.84
2026-07-27 13:40:34.145,0.06,0.48,1.76,10.99,-37.48,222.84
2026-07-27 13:40:34.145,-0.03,-0.05,1.53,-54.08,-24.66,266.66
2026-07-27 13:40:34.145,-0.03,-0.05,1.53,-54.08,-24.66,266.66
2026-07-27 13:40:34.146,-0.13,-0.37,1.05,-62.74,-11.54,236.69
2026-07-27 13:40:34.146,-0.16,-0.27,0.59,-35.28,-2.75,162.84
2026-07-27 13:40:34.146,0.07,-0.17,0.38,19.29,-12.82,91.98
2026-07-27 13:40:34.146,-0.03,-0.12,0.35,17.09,8.24,74.71
2026-07-27 13:40:34.147,-0.03,-0.12,0.35,17.09,8.24,74.71
2026-07-27 13:40:34.147,-0.2,-0.18,0.52,-51.33,34.3,37.9
2026-07-27 13:40:34.147,-0.2,-0.18,0.52,-51.33,34.3,37.9
2026-07-27 13:40:34.147,-0.35,-0.24,1.16,-111.02,22.71,27.34
2026-07-27 13:40:34.147,-0.35,-0.24,1.16,-111.02,22.71,27.34
2026-07-27 13:40:34.148,-0.23,-0.17,2.05,-112.67,-36.38,29.24
2026-07-27 13:40:34.148,-0.23,-0.17,2.05,-49.13,-50.29,1.46
2026-07-27 13:40:34.149,-0.02,-0.19,2.18,-49.13,-50.29,1.46
2026-07-27 13:40:34.149,0.1,-0.2,1.41,30.46,15.26,-45.17
2026-07-27 13:40:34.150,0.1,-0.2,1.41,30.46,15.26,-45.17
2026-07-27 13:40:34.150,0.2,-0.13,0.64,68.97,57.19,-77.33
2026-07-27 13:40:34.151,0.2,-0.13,0.64,68.97,57.19,-77.33
2026-07-27 13:40:34.151,0.28,-0.09,0.14,60.97,52.25,-87.65
2026-07-27 13:40:34.151,0.28,-0.09,0.14,60.97,52.25,-87.65
2026-07-27 13:40:34.151,0.26,-0.06,-0.04,30.94,33.45,-70.86
2026-07-27 13:40:34.152,0.22,-0.04,0.07,2.2,18.01,-33.63
2026-07-27 13:40:34.152,0.22,-0.04,0.07,2.2,18.01,-33.63
2026-07-27 13:40:34.152,0.21,-0.05,0.29,-9.77,23.19,2.69
2026-07-27 13:40:34.152,0.21,-0.05,0.29,-9.77,23.19,2.69
2026-07-27 13:40:34.152,0.39,0.02,1.01,-1.89,25.39,37.78
2026-07-27 13:40:34.153,0.39,0.02,1.01,-1.89,25.39,37.78
2026-07-27 13:40:34.153,0.68,0.25,2.35,8.36,-29.36,89.05
2026-07-27 13:40:34.154,0.68,0.25,2.35,8.36,-29.36,89.05
2026-07-27 13:40:34.154,0.63,0.25,2.74,21.55,-67.99,119.38
2026-07-27 13:40:34.155,0.29,-0.19,1.85,35.89,-45.04,94.54
2026-07-27 13:40:34.155,0.29,-0.19,1.85,35.89,-45.04,94.54
2026-07-27 13:40:34.158,0.06,-0.49,0.96,35.46,-43.46,63.29
2026-07-27 13:40:34.260,0.06,-0.49,0.96,35.46,-43.46,63.29
2026-07-27 13:40:34.260,-0.07,-0.35,0.47,16.72,-60.97,61.52
2026-07-27 13:40:34.260,-0.07,-0.35,0.47,16.72,-60.97,61.52
2026-07-27 13:40:34.260,-0.19,-0.04,0.21,-35.83,-39.06,60.49
2026-07-27 13:40:34.260,-0.23,0.08,0.1,-87.28,7.75,33.08
2026-07-27 13:40:34.378,-0.23,0.08,0.1,-87.28,7.75,33.08
2026-07-27 13:40:34.378,-0.31,0.04,0.07,-77.09,27.47,-9.64
2026-07-27 13:40:34.379,-0.31,0.04,0.07,-77.09,27.47,-9.64
2026-07-27 13:40:34.380,-0.59,0.01,0.14,-49.56,31.31,-61.1
2026-07-27 13:40:34.380,-0.59,0.01,0.14,-49.56,31.31,-61.1
2026-07-27 13:40:36.061,-0.86,0.21,0.86,-21.12,35.22,-116.7
2026-07-27 13:40:36.062,-0.86,0.21,0.86,26.25,-2.32,-181.76
2026-07-27 13:40:36.062,-0.6,0.51,2.25,26.25,-2.32,-181.76
2026-07-27 13:40:36.062,0.05,0.48,2.74,86.73,-9.16,-264.1
2026-07-27 13:40:36.062,0.05,0.48,2.74,86.73,-9.16,-264.1
2026-07-27 13:40:36.062,0.48,0.44,1.94,135.13,57.62,-318.24
2026-07-27 13:40:36.063,0.48,0.44,1.94,135.13,57.62,-318.24
2026-07-27 13:40:36.063,0.64,0.46,0.97,120.42,95.89,-330.87
2026-07-27 13:40:36.298,0.64,0.46,0.97,75.44,67.2,-313.78
2026-07-27 13:40:36.299,0.6,0.33,0.27,75.44,67.2,-313.78
2026-07-27 13:40:36.299,0.54,0.12,-0.08,25.51,-4.64,-246.4
2026-07-27 13:40:36.299,0.54,0.12,-0.08,25.51,-4.64,-246.4
2026-07-27 13:40:36.301,0.67,-0.18,0.2,1.59,-77.51,-139.34
2026-07-27 13:40:36.301,0.67,-0.18,0.2,1.59,-77.51,-139.34
2026-07-27 13:40:36.301,0.83,-0.02,0.64,33.45,-51.09,40.53
2026-07-27 13:40:36.302,0.83,-0.02,0.64,33.45,-51.09,40.53
2026-07-27 13:40:36.304,0.71,0.36,1.07,24.29,38.76,226.2
2026-07-27 13:40:36.304,0.16,0.36,1.75,-93.38,90.82,204.71
2026-07-27 13:40:36.304,0.16,0.36,1.75,-93.38,90.82,204.71
2026-07-27 13:40:36.305,-0.37,0.15,1.84,-167.72,92.29,16.6
2026-07-27 13:40:36.305,-0.37,0.15,1.84,-167.72,92.29,16.6
2026-07-27 13:40:36.305,-0.59,-0.03,1.16,-114.2,50.05,-125.37
2026-07-27 13:40:36.306,-0.59,-0.04,0.56,-47.61,20.45,-154.17
2026-07-27 13:40:36.307,-0.59,-0.04,0.56,-47.61,20.45,-154.17
2026-07-27 13:40:36.308,-0.44,-0.04,0.33,-16.54,10.68,-130.0
2026-07-27 13:40:36.309,-0.44,-0.04,0.33,-16.54,10.68,-130.0
2026-07-27 13:40:36.309,-0.15,-0.0,0.33,18.25,-12.08,-97.47
2026-07-27 13:40:36.310,-0.15,-0.0,0.33,18.25,-12.08,-97.47
2026-07-27 13:40:36.310,0.03,0.17,0.42,46.57,-23.56,-76.05
2026-07-27 13:40:36.310,0.03,0.17,0.42,46.57,-23.56,-76.05
2026-07-27 13:40:36.310,-0.05,0.11,0.97,41.38,-20.39,-149.29
2026-07-27 13:40:36.311,-0.15,-0.04,2.25,35.95,-4.15,-285.89
2026-07-27 13:40:36.311,-0.15,-0.04,2.25,35.95,-4.15,-285.89
2026-07-27 13:40:36.312,-0.08,0.06,2.78,53.65,58.65,-264.34
2026-07-27 13:40:36.313,-0.08,0.06,2.78,53.65,58.65,-264.34
2026-07-27 13:40:36.313,0.11,0.19,1.77,92.35,72.45,-66.28
2026-07-27 13:40:36.313,0.11,0.19,1.77,92.35,72.45,-66.28
2026-07-27 13:40:36.314,0.29,0.37,0.57,110.05,6.71,75.81
2026-07-27 13:40:36.315,0.29,0.37,0.57,110.05,6.71,75.81
2026-07-27 13:40:36.315,0.29,0.39,0.04,90.76,-27.1,88.44
2026-07-27 13:40:36.316,0.13,0.21,-0.12,72.94,-6.59,87.95
2026-07-27 13:40:36.316,0.13,0.21,-0.12,72.94,-6.59,87.95
2026-07-27 13:40:36.317,-0.01,0.03,-0.02,70.56,20.32,123.9
2026-07-27 13:40:36.317,-0.01,0.03,-0.02,70.56,20.32,123.9
2026-07-27 13:40:36.318,-0.02,0.19,0.53,83.62,31.98,137.7
2026-07-27 13:40:36.319,-0.02,0.19,0.53,83.62,31.98,137.7
2026-07-27 13:40:36.319,-0.05,0.94,1.4,106.75,31.56,95.09
2026-07-27 13:40:36.320,-0.05,0.94,1.4,106.75,31.56,95.09
2026-07-27 13:40:36.321,-0.23,1.85,2.06,110.29,27.47,27.71
2026-07-27 13:40:36.321,-0.28,1.91,2.02,72.88,37.96,17.27
2026-07-27 13:40:36.321,-0.28,1.91,2.02,72.88,37.96,17.27
2026-07-27 13:40:36.324,-0.05,0.92,1.34,18.8,45.1,83.01
2026-07-27 13:40:36.325,-0.05,0.92,1.34,18.8,45.1,83.01
2026-07-27 13:40:36.325,0.15,-0.22,0.56,-24.17,12.27,139.89
2026-07-27 13:40:36.325,0.15,-0.22,0.56,-24.17,12.27,139.89
2026-07-27 13:40:36.325,-0.07,-0.68,-0.1,-44.01,-49.32,119.32
2026-07-27 13:40:36.325,-0.07,-0.68,-0.1,-44.01,-49.32,119.32
2026-07-27 13:40:36.326,-0.31,-0.49,-0.34,-30.58,-71.41,22.52
2026-07-27 13:40:36.326,-0.19,-0.07,-0.01,-6.53,-35.22,-79.96
2026-07-27 13:40:36.326,-0.19,-0.07,-0.01,-6.53,-35.22,-79.96
2026-07-27 13:40:36.327,-0.22,0.43,0.51,-4.15,-15.93,-123.47
2026-07-27 13:40:36.327,0.07,0.01,-0.36,-104.68,14.47,-136.66
2026-07-27 13:40:36.328,-0.16,0.09,0.19,-158.87,79.83,-99.91
2026-07-27 13:40:36.329,-0.16,0.09,0.19,-158.87,79.83,-99.91
2026-07-27 13:40:36.334,-0.37,0.24,0.95,-136.6,95.09,13.98
2026-07-27 13:40:36.334,-0.37,0.24,0.95,-136.6,95.09,13.98
2026-07-27 13:40:36.335,-0.45,0.43,1.99,-88.01,54.69,125.18
2026-07-27 13:40:36.335,-0.45,0.43,1.99,-88.01,54.69,125.18
2026-07-27 13:40:36.335,-0.42,0.44,1.17,-38.51,24.66,25.88
2026-07-27 13:40:36.335,-0.42,0.44,1.17,-38.51,24.66,25.88
2026-07-27 13:40:36.478,-0.12,0.16,0.58,-68.6,37.11,14.89
2026-07-27 13:40:36.478,-0.12,0.16,0.58,-68.6,37.11,14.89
2026-07-27 13:40:36.479,0.05,-0.05,0.12,-52.61,38.27,12.33
2026-07-27 13:40:36.718,0.07,-0.17,-0.01,-19.65,23.01,9.16
2026-07-27 13:40:36.719,0.07,-0.17,-0.01,-19.65,23.01,9.16
2026-07-27 13:40:36.719,0.01,-0.25,0.35,-7.93,-8.3,13.06
2026-07-27 13:40:36.726,0.01,-0.25,0.35,-7.93,-8.3,13.06
2026-07-27 13:40:36.726,-0.19,-0.35,1.11,-18.37,-47.12,-0.61
2026-07-27 13:40:36.960,-0.19,-0.35,1.11,-18.37,-47.12,-0.61
2026-07-27 13:40:36.960,-0.57,-0.3,2.16,-34.06,-60.91,-55.42
2026-07-27 13:40:36.960,-0.57,-0.3,2.16,-34.06,-60.91,-55.42
2026-07-27 13:40:36.960,-0.82,-0.19,2.69,-42.54,-36.93,-113.46
2026-07-27 13:40:36.960,-0.53,-0.16,1.95,-28.08,0.49,-114.07
2026-07-27 13:40:36.960,-0.53,-0.16,1.95,-28.08,0.49,-114.07
2026-07-27 13:40:36.960,0.0,0.0,0.81,-2.62,35.64,-75.32
2026-07-27 13:40:36.961,0.0,0.0,0.81,-2.62,35.64,-75.32
2026-07-27 13:40:36.961,0.42,0.26,0.12,11.29,60.91,-50.9
2026-07-27 13:40:36.962,0.42,0.26,0.12,11.29,60.91,-50.9
2026-07-27 13:40:36.963,0.55,0.44,-0.09,18.62,69.21,-46.39
2026-07-27 13:40:36.965,0.42,0.44,0.03,18.8,49.07,-38.21
2026-07-27 13:40:36.965,0.42,0.44,0.03,18.8,49.07,-38.21
2026-07-27 13:40:36.965,0.19,0.28,0.4,9.16,-2.93,-8.79
2026-07-27 13:40:36.965,0.19,0.28,0.4,9.16,-2.93,-8.79
2026-07-27 13:40:36.966,-0.07,0.09,0.92,5.98,-55.36,31.43
2026-07-27 13:40:36.966,-0.07,0.09,0.92,-0.73,-75.13,53.47
2026-07-27 13:40:36.966,-0.36,0.06,1.82,-0.73,-75.13,53.47
2026-07-27 13:40:36.968,-0.56,0.16,2.61,-18.43,-67.93,46.33
2026-07-27 13:40:37.138,-0.56,0.16,2.61,-18.43,-67.93,46.33
2026-07-27 13:40:37.139,-0.51,0.21,2.36,3.66,-49.32,45.84
2026-07-27 13:40:37.139,-0.51,0.21,2.36,3.66,-49.32,45.84
2026-07-27 13:40:37.139,-0.23,0.09,1.38,49.07,-30.7,67.99
2026-07-27 13:40:37.139,-0.23,0.09,1.38,49.07,-30.7,67.99
2026-07-27 13:40:37.140,0.02,-0.12,0.38,65.37,-19.35,80.44
2026-07-27 13:40:37.141,0.06,-0.27,-0.26,46.69,-7.57,66.53
2026-07-27 13:40:37.141,0.06,-0.27,-0.26,46.69,-7.57,66.53
2026-07-27 13:40:40.620,-0.07,-0.3,-0.44,8.42,-1.16,37.05
2026-07-27 13:40:40.621,-0.07,-0.3,-0.44,8.42,-1.16,37.05
2026-07-27 13:40:40.621,-0.26,-0.29,-0.15,-14.89,-5.31,4.76
2026-07-27 13:40:40.621,-0.26,-0.29,-0.15,-14.89,-5.31,4.76
2026-07-27 13:40:40.621,-0.52,-0.39,0.53,-21.91,-6.16,-29.42
2026-07-27 13:40:40.621,-0.52,-0.39,0.53,-10.07,5.43,-69.95
2026-07-27 13:40:40.621,-0.79,-0.44,1.38,-10.07,5.43,-69.95
2026-07-27 13:40:40.621,-0.96,-0.21,2.46,-0.24,34.0,-115.91
2026-07-27 13:40:40.621,-0.96,-0.21,2.46,-0.24,34.0,-115.91
2026-07-27 13:40:40.622,-0.69,-0.02,3.0,-19.84,46.94,-137.63
2026-07-27 13:40:40.623,-0.69,-0.02,3.0,-19.84,46.94,-137.63
2026-07-27 13:40:40.624,-0.06,0.03,2.12,-18.8,1.71,-133.85
2026-07-27 13:40:40.624,-0.06,0.03,2.12,-18.8,1.71,-133.85
2026-07-27 13:40:40.625,0.34,0.37,0.57,17.09,-80.14,-136.6
2026-07-27 13:40:40.626,0.49,0.8,-0.4,17.46,-120.42,-132.87
2026-07-27 13:40:40.626,0.49,0.8,-0.4,17.46,-120.42,-132.87
2026-07-27 13:40:40.626,0.54,0.9,-0.56,-18.07,-77.88,-106.26
2026-07-27 13:40:40.627,0.54,0.9,-0.56,-18.07,-77.88,-106.26
2026-07-27 13:40:40.627,0.47,0.77,-0.21,-33.94,-3.05,-73.0
2026-07-27 13:40:40.798,0.47,0.77,-0.21,-33.94,-3.05,-73.0
2026-07-27 13:40:40.798,0.29,0.64,0.38,-15.99,49.13,-38.15
2026-07-27 13:40:40.798,-0.0,0.75,1.37,21.67,75.93,7.63
2026-07-27 13:40:40.799,-0.0,0.75,1.37,21.67,75.93,7.63
2026-07-27 13:40:40.799,-0.44,0.95,2.73,47.0,91.55,67.38
2026-07-27 13:40:40.800,-0.44,0.95,2.73,47.0,91.55,67.38
2026-07-27 13:40:40.802,-0.76,0.84,3.18,57.13,54.69,137.63
2026-07-27 13:40:40.803,-0.76,0.84,3.18,57.13,54.69,137.63
2026-07-27 13:40:40.803,-0.68,0.37,2.28,58.53,-38.39,202.45
2026-07-27 13:40:41.700,-0.68,0.37,2.28,58.53,-38.39,202.45
2026-07-27 13:40:41.700,-0.48,-0.09,0.96,39.37,-108.28,236.15
2026-07-27 13:40:41.700,-0.43,-0.33,-0.09,-12.45,-144.04,257.14
2026-07-27 13:40:41.700,-0.43,-0.33,-0.09,-12.45,-144.04,257.14
2026-07-27 13:40:41.700,-0.5,-0.4,-0.62,-71.72,-154.17,254.94
2026-07-27 13:40:41.702,-0.5,-0.4,-0.62,-71.72,-154.17,254.94
2026-07-27 13:40:41.703,-0.58,-0.37,-0.7,-70.98,-97.78,170.29
2026-07-27 13:40:41.704,-0.58,-0.37,-0.7,-70.98,-97.78,170.29
2026-07-27 13:40:41.704,-0.5,-0.4,-0.3,-36.74,13.61,36.8
2026-07-27 13:40:41.704,-0.5,-0.4,-0.3,-47.91,115.97,-74.04
2026-07-27 13:40:41.704,-0.32,-0.61,0.82,-47.91,115.97,-74.04
2026-07-27 13:40:41.711,-0.16,-0.62,2.6,-72.88,177.73,-148.56
2026-07-27 13:40:41.711,-0.16,-0.62,2.6,-72.88,177.73,-148.56
2026-07-27 13:40:41.711,-0.05,-0.24,3.68,-43.58,184.63,-188.54
2026-07-27 13:40:41.711,-0.05,-0.24,3.68,-43.58,184.63,-188.54
2026-07-27 13:40:41.711,0.08,0.09,2.75,33.51,107.54,-160.95
2026-07-27 13:40:41.711,0.08,0.09,2.75,33.51,107.54,-160.95
2026-07-27 13:40:41.712,0.32,0.25,0.79,77.09,-21.85,-79.77
2026-07-27 13:40:41.712,0.53,0.38,-0.46,47.97,-89.72,-33.75
2026-07-27 13:40:41.712,0.53,0.38,-0.46,47.97,-89.72,-33.75
2026-07-27 13:40:41.712,0.58,0.42,-0.57,-5.25,-61.22,-41.08
2026-07-27 13:40:41.712,0.58,0.42,-0.57,-5.25,-61.22,-41.08
2026-07-27 13:40:41.712,0.48,0.34,-0.15,-39.67,-17.94,-43.95
2026-07-27 13:40:41.712,0.48,0.34,-0.15,-39.67,-17.94,-43.95
2026-07-27 13:40:41.712,0.35,0.24,0.21,-35.95,-17.33,-16.24
2026-07-27 13:40:41.712,0.35,0.24,0.21,-35.95,-17.33,-16.24
2026-07-27 13:40:41.712,0.29,0.24,0.52,-1.53,-41.93,21.79
2026-07-27 13:40:41.713,0.29,0.58,1.51,42.85,-34.36,49.44
2026-07-27 13:40:41.714,0.29,0.58,1.51,42.85,-34.36,49.44
2026-07-27 13:40:41.714,0.0,1.07,2.94,70.68,20.69,60.42
2026-07-27 13:40:41.715,0.0,1.07,2.94,70.68,20.69,60.42
2026-07-27 13:40:41.720,-0.49,0.95,3.0,105.65,18.37,97.35
2026-07-27 13:40:41.720,-0.49,0.95,3.0,105.65,18.37,97.35
2026-07-27 13:40:41.720,-0.56,0.28,1.72,125.85,-68.3,176.76
2026-07-27 13:40:41.720,0.48,0.55,1.7,-52.98,18.92,124.63
2026-07-27 13:40:41.720,0.48,0.55,1.7,-52.98,18.92,124.63
2026-07-27 13:40:41.721,0.04,0.23,2.48,-97.29,5.98,147.46
2026-07-27 13:40:45.298,0.04,0.23,2.48,-97.29,5.98,147.46
2026-07-27 13:40:45.298,-0.28,-0.09,2.38,-89.72,-47.18,152.95
2026-07-27 13:40:45.298,-0.28,-0.09,2.38,-89.72,-47.18,152.95
2026-07-27 13:40:45.299,-0.35,-0.3,1.71,-43.7,-101.87,156.68
2026-07-27 13:40:45.300,-0.35,-0.3,1.71,-27.77,-122.62,143.55
2026-07-27 13:40:45.300,-0.28,-0.41,0.99,-27.77,-122.62,143.55
2026-07-27 13:40:45.301,-0.15,-0.41,0.45,-37.96,-115.78,105.77
2026-07-27 13:40:45.302,-0.15,-0.41,0.45,-37.96,-115.78,105.77
2026-07-27 13:40:45.302,-0.17,-0.4,0.26,-79.22,-93.2,31.07
2026-07-27 13:40:45.303,-0.17,-0.4,0.26,-94.48,-88.01,-54.44
2026-07-27 13:40:45.304,-0.29,-0.32,0.34,-94.48,-88.01,-54.44
2026-07-27 13:40:45.304,-0.18,-0.27,0.5,-19.59,-96.44,-69.7
2026-07-27 13:40:45.305,-0.18,-0.27,0.5,-19.59,-96.44,-69.7
2026-07-27 13:40:45.305,-0.07,-0.28,0.87,92.35,-54.87,-7.39
2026-07-27 13:40:45.307,-0.07,-0.28,0.87,92.35,-54.87,-7.39
2026-07-27 13:40:45.307,-0.08,-0.19,1.19,178.59,14.71,59.81
2026-07-27 13:40:45.722,-0.08,-0.19,1.19,178.59,14.71,59.81
2026-07-27 13:40:45.837,0.04,-0.21,1.14,164.12,35.03,91.37
2026-07-27 13:40:45.838,0.04,-0.21,1.14,74.16,14.47,85.02
2026-07-27 13:40:45.838,0.24,-0.33,0.93,74.16,14.47,85.02
2026-07-27 13:40:45.839,0.34,-0.36,0.78,-22.03,-18.19,42.05
2026-07-27 13:40:45.840,0.34,-0.36,0.78,-22.03,-18.19,42.05
2026-07-27 13:40:45.840,0.35,-0.36,0.72,-82.28,-46.81,-6.41
2026-07-27 13:40:45.841,0.35,-0.36,0.72,-82.28,-46.81,-6.41
2026-07-27 13:40:47.578,0.36,-0.32,0.64,-59.27,-47.06,-17.03
2026-07-27 13:40:47.578,-0.03,-0.17,0.83,-37.35,57.74,47.55
2026-07-27 13:40:47.578,-0.13,-0.13,0.94,4.03,51.39,55.54
2026-07-27 13:40:47.580,-0.13,-0.13,0.94,4.03,51.39,55.54
2026-07-27 13:40:47.587,-0.13,-0.13,0.94,4.03,51.39,55.54
2026-07-27 13:40:47.587,-0.13,-0.13,0.94,4.03,51.39,55.54
2026-07-27 13:40:47.587,-0.22,-0.13,1.09,61.46,24.23,50.29
2026-07-27 13:40:47.587,-0.22,-0.13,1.09,61.46,24.23,50.29
2026-07-27 13:40:47.587,-0.2,-0.19,1.08,72.88,14.28,37.84
2026-07-27 13:40:47.588,-0.18,-0.08,0.9,81.12,-7.14,9.7
2026-07-27 13:40:47.588,-0.18,-0.08,0.9,81.12,-7.14,9.7
2026-07-27 13:40:47.588,-0.13,0.09,0.7,67.63,-11.78,-17.94
2026-07-27 13:40:47.588,-0.13,0.09,0.7,67.63,-11.78,-17.94
2026-07-27 13:40:47.589,-0.03,0.12,0.66,57.19,25.76,-27.1
2026-07-27 13:40:47.589,-0.03,0.12,0.66,57.19,25.76,-27.1
2026-07-27 13:40:47.589,0.02,0.13,0.75,69.21,71.59,-25.21
2026-07-27 13:40:47.589,0.02,0.13,0.75,69.21,71.59,-25.21
2026-07-27 13:40:47.589,-0.04,0.18,0.95,69.52,97.29,-18.86
2026-07-27 13:40:47.590,-0.04,0.18,0.95,51.94,114.44,-8.18
2026-07-27 13:40:47.591,-0.19,0.27,1.2,51.94,114.44,-8.18
2026-07-27 13:40:47.592,-0.29,0.29,1.33,28.69,120.97,10.5
2026-07-27 13:40:47.592,-0.29,0.29,1.33,28.69,120.97,10.5
2026-07-27 13:40:47.592,-0.28,0.18,1.31,-4.15,100.04,33.26
2026-07-27 13:40:47.592,-0.28,0.18,1.31,-4.15,100.04,33.26
2026-07-27 13:40:47.592,-0.22,0.01,1.22,-42.91,58.29,49.8
2026-07-27 13:40:47.593,-0.22,0.01,1.22,-42.91,58.29,49.8
2026-07-27 13:40:47.593,-0.21,-0.14,1.17,-64.09,24.23,52.0
2026-07-27 13:40:47.877,-0.21,-0.14,1.17,-64.09,24.23,52.0
2026-07-27 13:40:47.878,-0.24,-0.21,1.14,-57.13,9.89,40.04
2026-07-27 13:40:47.878,-0.25,-0.19,1.03,-35.03,1.04,21.3
2026-07-27 13:40:47.940,-0.25,-0.19,1.03,-35.03,1.04,21.3
2026-07-27 13:40:47.940,-0.22,-0.13,0.87,-10.99,-7.08,5.0
2026-07-27 13:40:47.941,-0.22,-0.13,0.87,-10.99,-7.08,5.0
2026-07-27 13:40:47.941,-0.19,-0.06,0.78,6.65,-5.98,-5.13
2026-07-27 13:40:47.941,-0.19,-0.06,0.78,6.65,-5.98,-5.13
2026-07-27 13:40:47.941,-0.24,0.02,0.8,18.68,6.29,-11.78
2026-07-27 13:40:47.941,-0.24,0.02,0.8,18.68,6.29,-11.78
2026-07-27 13:40:47.942,-0.36,0.1,0.91,32.96,24.6,-12.76
2026-07-27 13:40:47.943,0.41,0.12,1.06,30.7,-73.91,75.13
2026-07-27 13:40:47.944,0.41,0.12,1.06,30.7,-73.91,75.13
2026-07-27 13:40:47.944,0.49,0.32,1.84,7.81,-56.4,74.89
2026-07-27 13:40:48.358,0.49,0.32,1.84,7.81,-56.4,74.89
2026-07-27 13:40:48.358,0.29,0.53,2.29,1.46,-31.43,50.72
2026-07-27 13:40:48.364,0.29,0.53,2.29,1.46,-31.43,50.72
2026-07-27 13:40:48.368,0.29,0.53,2.29,1.46,-31.43,50.72
2026-07-27 13:40:48.368,0.29,0.53,2.29,1.46,-31.43,50.72
2026-07-27 13:40:48.368,0.04,0.05,1.03,19.47,-45.17,72.81
2026-07-27 13:40:48.368,0.04,0.05,1.03,19.47,-45.17,72.81
2026-07-27 13:40:48.369,-0.03,-0.2,0.43,15.99,-40.1,79.83
2026-07-27 13:40:48.369,-0.13,-0.25,0.26,1.22,-24.54,64.45
2026-07-27 13:40:48.369,-0.13,-0.25,0.26,1.22,-24.54,64.45
2026-07-27 13:40:48.369,-0.19,-0.18,0.33,-11.9,-15.81,41.93
2026-07-27 13:40:49.082,-0.19,-0.18,0.33,-11.9,-15.81,41.93
2026-07-27 13:40:49.082,-0.18,-0.15,0.41,-16.54,-22.71,21.42
2026-07-27 13:40:49.318,0.31,-0.14,1.7,-34.61,116.52,-119.38
2026-07-27 13:40:49.319,0.51,-0.17,0.79,-8.06,117.92,-96.19
2026-07-27 13:40:49.319,0.51,-0.17,0.79,-8.06,117.92,-96.19
2026-07-27 13:40:49.319,0.6,-0.24,0.27,-14.04,98.39,-77.21
2026-07-27 13:40:49.319,0.6,-0.24,0.27,-14.04,98.39,-77.21
2026-07-27 13:40:49.321,0.54,-0.32,0.26,-38.82,72.69,-73.0
2026-07-27 13:40:49.321,0.43,-0.28,0.42,-52.67,26.12,-68.36
2026-07-27 13:40:49.323,0.43,-0.28,0.42,-52.67,26.12,-68.36
